time,orientation.x,orientation.y,orientation.z,orientation.w,orientation_covariance,angular_velocity.x,angular_velocity.y,angular_velocity.z,angular_velocity_covariance,linear_acceleration.x,linear_acceleration.y,linear_acceleration.z,linear_acceleration_covariance
1.6306405067443848,0.01568099483847618,0.014960397966206074,-0.4434666931629181,0.8960288166999817,[0. 0. 0. 0. 0. 0. 0. 0. 0.],-0.3662109375,-0.732421875,-0.18310546875,[0. 0. 0. 0. 0. 0. 0. 0. 0.],-0.041015625,0.01416015625,1.0048828125,[0. 0. 0. 0. 0. 0. 0. 0. 0.]
1.654036045074463,0.01570788398385048,0.014742275699973106,-0.4434985816478729,0.8960162401199341,[0. 0. 0. 0. 0. 0. 0. 0. 0.],-0.06103515625,-0.18310546875,-0.1220703125,[0. 0. 0. 0. 0. 0. 0. 0. 0.],-0.04052734375,0.01513671875,1.0029296875,[0. 0. 0. 0. 0. 0. 0. 0. 0.]
1.674450397491455,0.0158761627972126,0.01381442230194807,-0.44352611899375916,0.896014392375946,[0. 0. 0. 0. 0. 0. 0. 0. 0.],-0.06103515625,0.06103515625,-0.06103515625,[0. 0. 0. 0. 0. 0. 0. 0. 0.],-0.0390625,0.0166015625,1.001953125,[0. 0. 0. 0. 0. 0. 0. 0. 0.]
1.691603660583496,0.015549013391137123,0.015042177401483059,-0.44356682896614075,0.895980179309845,[0. 0. 0. 0. 0. 0. 0. 0. 0.],-0.1220703125,-1.15966796875,-0.244140625,[0. 0. 0. 0. 0. 0. 0. 0. 0.],-0.041015625,0.0146484375,1.00537109375,[0. 0. 0. 0. 0. 0. 0. 0. 0.]
1.7145373821258545,0.015214236453175545,0.014723282307386398,-0.44358304142951965,0.8959831595420837,[0. 0. 0. 0. 0. 0. 0. 0. 0.],-0.42724609375,-1.15966796875,-0.18310546875,[0. 0. 0. 0. 0. 0. 0. 0. 0.],-0.0400390625,0.01416015625,1.00390625,[0. 0. 0. 0. 0. 0. 0. 0. 0.]
1.7339015007019043,0.01475735753774643,0.014488116838037968,-0.44362008571624756,0.8959764242172241,[0. 0. 0. 0. 0. 0. 0. 0. 0.],0.06103515625,-0.3662109375,-0.30517578125,[0. 0. 0. 0. 0. 0. 0. 0. 0.],-0.03955078125,0.013671875,1.0029296875,[0. 0. 0. 0. 0. 0. 0. 0. 0.]
1.7495293617248535,0.014626401476562023,0.014635330997407436,-0.4436468183994293,0.8959628343582153,[0. 0. 0. 0. 0. 0. 0. 0. 0.],0.0,0.0,0.0,[0. 0. 0. 0. 0. 0. 0. 0. 0.],-0.0390625,0.013671875,1.001953125,[0. 0. 0. 0. 0. 0. 0. 0. 0.]
1.7693684101104736,0.015996042639017105,0.01457572914659977,-0.4436507821083069,0.8959384560585022,[0. 0. 0. 0. 0. 0. 0. 0. 0.],-0.30517578125,-0.67138671875,-0.18310546875,[0. 0. 0. 0. 0. 0. 0. 0. 0.],-0.04052734375,0.015625,1.00439453125,[0. 0. 0. 0. 0. 0. 0. 0. 0.]
1.7953815460205078,0.015720341354608536,0.014899087138473988,-0.44369271397590637,0.8959172964096069,[0. 0. 0. 0. 0. 0. 0. 0. 0.],-0.1220703125,-1.40380859375,-0.3662109375,[0. 0. 0. 0. 0. 0. 0. 0. 0.],-0.041015625,0.0146484375,1.0068359375,[0. 0. 0. 0. 0. 0. 0. 0. 0.]
1.8142979145050049,0.015535731799900532,0.014170188456773758,-0.4437137246131897,0.8959218263626099,[0. 0. 0. 0. 0. 0. 0. 0. 0.],0.18310546875,-0.79345703125,-0.18310546875,[0. 0. 0. 0. 0. 0. 0. 0. 0.],-0.03955078125,0.0146484375,1.0029296875,[0. 0. 0. 0. 0. 0. 0. 0. 0.]
1.8369450569152832,0.01562824472784996,0.01509866863489151,-0.4437464475631714,0.8958888649940491,[0. 0. 0. 0. 0. 0. 0. 0. 0.],-0.1220703125,-0.8544921875,-0.3662109375,[0. 0. 0. 0. 0. 0. 0. 0. 0.],-0.041015625,0.01416015625,1.00341796875,[0. 0. 0. 0. 0. 0. 0. 0. 0.]
1.8539438247680664,0.01595110446214676,0.0150084737688303,-0.4437562823295593,0.895879864692688,[0. 0. 0. 0. 0. 0. 0. 0. 0.],-0.244140625,-0.48828125,-0.06103515625,[0. 0. 0. 0. 0. 0. 0. 0. 0.],-0.04150390625,0.01513671875,1.00390625,[0. 0. 0. 0. 0. 0. 0. 0. 0.]
1.868873119354248,0.015521601773798466,0.013835840858519077,-0.4437757730484009,0.8958966732025146,[0. 0. 0. 0. 0. 0. 0. 0. 0.],-0.06103515625,-0.1220703125,0.0,[0. 0. 0. 0. 0. 0. 0. 0. 0.],-0.03857421875,0.01513671875,1.0048828125,[0. 0. 0. 0. 0. 0. 0. 0. 0.]
1.894024133682251,0.01567034050822258,0.013883523643016815,-0.4437996447086334,0.8958815336227417,[0. 0. 0. 0. 0. 0. 0. 0. 0.],0.18310546875,-0.67138671875,-0.18310546875,[0. 0. 0. 0. 0. 0. 0. 0. 0.],-0.0390625,0.015625,1.00390625,[0. 0. 0. 0. 0. 0. 0. 0. 0.]
1.914778232574463,0.016329383477568626,0.013296212069690228,-0.4438043236732483,0.8958762884140015,[0. 0. 0. 0. 0. 0. 0. 0. 0.],-0.244140625,-1.28173828125,-0.30517578125,[0. 0. 0. 0. 0. 0. 0. 0. 0.],-0.03857421875,0.01708984375,1.00439453125,[0. 0. 0. 0. 0. 0. 0. 0. 0.]
1.9337403774261475,0.015592113137245178,0.013890739530324936,-0.4438377320766449,0.8958638310432434,[0. 0. 0. 0. 0. 0. 0. 0. 0.],-0.42724609375,-0.8544921875,-0.1220703125,[0. 0. 0. 0. 0. 0. 0. 0. 0.],-0.0390625,0.015625,1.00439453125,[0. 0. 0. 0. 0. 0. 0. 0. 0.]
1.9537544250488281,0.015285992994904518,0.014698733575642109,-0.4438771605491638,0.8958367705345154,[0. 0. 0. 0. 0. 0. 0. 0. 0.],0.18310546875,-0.1220703125,0.0,[0. 0. 0. 0. 0. 0. 0. 0. 0.],-0.0400390625,0.0146484375,1.0048828125,[0. 0. 0. 0. 0. 0. 0. 0. 0.]
1.9699437618255615,0.01534788217395544,0.014554804190993309,-0.44390302896499634,0.8958251476287842,[0. 0. 0. 0. 0. 0. 0. 0. 0.],0.06103515625,-0.18310546875,-0.06103515625,[0. 0. 0. 0. 0. 0. 0. 0. 0.],-0.0400390625,0.0146484375,1.00439453125,[0. 0. 0. 0. 0. 0. 0. 0. 0.]
1.9949965476989746,0.015244582667946815,0.015210804529488087,-0.4439390301704407,0.8957982063293457,[0. 0. 0. 0. 0. 0. 0. 0. 0.],-0.18310546875,-1.220703125,-0.18310546875,[0. 0. 0. 0. 0. 0. 0. 0. 0.],-0.04052734375,0.01416015625,1.00439453125,[0. 0. 0. 0. 0. 0. 0. 0. 0.]
2.0137710571289062,0.01479495782405138,0.014923606999218464,-0.44397151470184326,0.8957944512367249,[0. 0. 0. 0. 0. 0. 0. 0. 0.],-0.30517578125,-1.15966796875,-0.30517578125,[0. 0. 0. 0. 0. 0. 0. 0. 0.],-0.0400390625,0.01416015625,1.0029296875,[0. 0. 0. 0. 0. 0. 0. 0. 0.]
2.033917188644409,0.01550310105085373,0.01429316308349371,-0.44398486614227295,0.8957861661911011,[0. 0. 0. 0. 0. 0. 0. 0. 0.],0.06103515625,-0.30517578125,-0.30517578125,[0. 0. 0. 0. 0. 0. 0. 0. 0.],-0.03955078125,0.01513671875,1.0029296875,[0. 0. 0. 0. 0. 0. 0. 0. 0.]
2.0544137954711914,0.015357148833572865,0.015109572559595108,-0.4440096318721771,0.8957629799842834,[0. 0. 0. 0. 0. 0. 0. 0. 0.],-0.06103515625,0.0,0.06103515625,[0. 0. 0. 0. 0. 0. 0. 0. 0.],-0.041015625,0.01416015625,1.00341796875,[0. 0. 0. 0. 0. 0. 0. 0. 0.]
2.074012279510498,0.014796862378716469,0.014247878454625607,-0.44404900074005127,0.895767092704773,[0. 0. 0. 0. 0. 0. 0. 0. 0.],-0.244140625,-0.67138671875,-0.06103515625,[0. 0. 0. 0. 0. 0. 0. 0. 0.],-0.0390625,0.013671875,1.00244140625,[0. 0. 0. 0. 0. 0. 0. 0. 0.]
2.0938310623168945,0.014967369846999645,0.014716992154717445,-0.4440661370754242,0.8957480788230896,[0. 0. 0. 0. 0. 0. 0. 0. 0.],0.0,-1.0986328125,-0.244140625,[0. 0. 0. 0. 0. 0. 0. 0. 0.],-0.0400390625,0.013671875,1.00341796875,[0. 0. 0. 0. 0. 0. 0. 0. 0.]
2.1138529777526855,0.01528963167220354,0.014815242029726505,-0.44408780336380005,0.8957302570343018,[0. 0. 0. 0. 0. 0. 0. 0. 0.],0.0,-0.8544921875,-0.244140625,[0. 0. 0. 0. 0. 0. 0. 0. 0.],-0.0400390625,0.0146484375,1.00439453125,[0. 0. 0. 0. 0. 0. 0. 0. 0.]
2.134474754333496,0.015271103009581566,0.014902201481163502,-0.4441089332103729,0.8957186937332153,[0. 0. 0. 0. 0. 0. 0. 0. 0.],-0.244140625,-0.30517578125,-0.244140625,[0. 0. 0. 0. 0. 0. 0. 0. 0.],-0.04052734375,0.01416015625,1.0048828125,[0. 0. 0. 0. 0. 0. 0. 0. 0.]
2.153709650039673,0.015319177880883217,0.0162271149456501,-0.4441397786140442,0.8956795930862427,[0. 0. 0. 0. 0. 0. 0. 0. 0.],-0.30517578125,-0.30517578125,-0.18310546875,[0. 0. 0. 0. 0. 0. 0. 0. 0.],-0.04296875,0.01318359375,1.00341796875,[0. 0. 0. 0. 0. 0. 0. 0. 0.]
2.1737828254699707,0.015538946725428104,0.01547425426542759,-0.4441720247268677,0.8956730961799622,[0. 0. 0. 0. 0. 0. 0. 0. 0.],0.06103515625,-0.6103515625,-0.1220703125,[0. 0. 0. 0. 0. 0. 0. 0. 0.],-0.04150390625,0.01416015625,1.00439453125,[0. 0. 0. 0. 0. 0. 0. 0. 0.]
2.1937386989593506,0.015159799717366695,0.01452446635812521,-0.44420096278190613,0.8956812024116516,[0. 0. 0. 0. 0. 0. 0. 0. 0.],0.18310546875,-0.9765625,-0.3662109375,[0. 0. 0. 0. 0. 0. 0. 0. 0.],-0.0400390625,0.01416015625,1.00341796875,[0. 0. 0. 0. 0. 0. 0. 0. 0.]
2.214263677597046,0.015233594924211502,0.013967189937829971,-0.44421467185020447,0.8956820368766785,[0. 0. 0. 0. 0. 0. 0. 0. 0.],-0.18310546875,-1.03759765625,-0.244140625,[0. 0. 0. 0. 0. 0. 0. 0. 0.],-0.0390625,0.01513671875,1.00439453125,[0. 0. 0. 0. 0. 0. 0. 0. 0.]
2.2338249683380127,0.015233092941343784,0.014727229252457619,-0.4442349374294281,0.8956597447395325,[0. 0. 0. 0. 0. 0. 0. 0. 0.],-0.30517578125,-0.42724609375,0.0,[0. 0. 0. 0. 0. 0. 0. 0. 0.],-0.0400390625,0.01513671875,1.005859375,[0. 0. 0. 0. 0. 0. 0. 0. 0.]
2.2539427280426025,0.015517433173954487,0.014194716699421406,-0.4442507028579712,0.8956556916236877,[0. 0. 0. 0. 0. 0. 0. 0. 0.],0.1220703125,0.18310546875,0.1220703125,[0. 0. 0. 0. 0. 0. 0. 0. 0.],-0.0400390625,0.01513671875,1.005859375,[0. 0. 0. 0. 0. 0. 0. 0. 0.]
2.2693002223968506,0.014650910161435604,0.014959769323468208,-0.44429442286491394,0.8956361413002014,[0. 0. 0. 0. 0. 0. 0. 0. 0.],0.244140625,-0.732421875,0.0,[0. 0. 0. 0. 0. 0. 0. 0. 0.],-0.0400390625,0.01318359375,1.00634765625,[0. 0. 0. 0. 0. 0. 0. 0. 0.]
2.302198886871338,0.01562196109443903,0.014485969208180904,-0.4442984163761139,0.8956255316734314,[0. 0. 0. 0. 0. 0. 0. 0. 0.],-0.30517578125,-1.03759765625,-0.244140625,[0. 0. 0. 0. 0. 0. 0. 0. 0.],-0.0400390625,0.01513671875,1.00439453125,[0. 0. 0. 0. 0. 0. 0. 0. 0.]
2.3158531188964844,0.014960619620978832,0.014717412181198597,-0.4443388283252716,0.8956130146980286,[0. 0. 0. 0. 0. 0. 0. 0. 0.],-0.1220703125,-1.28173828125,-0.30517578125,[0. 0. 0. 0. 0. 0. 0. 0. 0.],-0.03955078125,0.01416015625,1.0048828125,[0. 0. 0. 0. 0. 0. 0. 0. 0.]
2.3342013359069824,0.015376168303191662,0.014566279947757721,-0.4443420171737671,0.8956068754196167,[0. 0. 0. 0. 0. 0. 0. 0. 0.],0.0,-0.54931640625,-0.06103515625,[0. 0. 0. 0. 0. 0. 0. 0. 0.],-0.0400390625,0.0146484375,1.00439453125,[0. 0. 0. 0. 0. 0. 0. 0. 0.]
2.354060411453247,0.015646157786250114,0.014458651654422283,-0.444365531206131,0.8955922722816467,[0. 0. 0. 0. 0. 0. 0. 0. 0.],-0.244140625,-0.1220703125,-0.1220703125,[0. 0. 0. 0. 0. 0. 0. 0. 0.],-0.0400390625,0.01513671875,1.001953125,[0. 0. 0. 0. 0. 0. 0. 0. 0.]
2.369676351547241,0.015123068355023861,0.01460055448114872,-0.44440385699272156,0.895579993724823,[0. 0. 0. 0. 0. 0. 0. 0. 0.],-0.244140625,-0.42724609375,-0.06103515625,[0. 0. 0. 0. 0. 0. 0. 0. 0.],-0.03955078125,0.01416015625,1.00439453125,[0. 0. 0. 0. 0. 0. 0. 0. 0.]
2.393786668777466,0.014974037185311317,0.014872520230710506,-0.44444575905799866,0.895557165145874,[0. 0. 0. 0. 0. 0. 0. 0. 0.],0.06103515625,-0.8544921875,-0.30517578125,[0. 0. 0. 0. 0. 0. 0. 0. 0.],-0.0400390625,0.013671875,1.005859375,[0. 0. 0. 0. 0. 0. 0. 0. 0.]
2.4097812175750732,0.01501456368714571,0.015738165006041527,-0.4444757401943207,0.8955267667770386,[0. 0. 0. 0. 0. 0. 0. 0. 0.],0.1220703125,-1.0986328125,-0.42724609375,[0. 0. 0. 0. 0. 0. 0. 0. 0.],-0.04150390625,0.01318359375,1.00537109375,[0. 0. 0. 0. 0. 0. 0. 0. 0.]
2.4341790676116943,0.01572449877858162,0.014907153323292732,-0.44447508454322815,0.8955291509628296,[0. 0. 0. 0. 0. 0. 0. 0. 0.],-0.30517578125,-0.67138671875,-0.18310546875,[0. 0. 0. 0. 0. 0. 0. 0. 0.],-0.0400390625,0.01513671875,1.001953125,[0. 0. 0. 0. 0. 0. 0. 0. 0.]
2.4561243057250977,0.015719763934612274,0.01604907214641571,-0.44451871514320374,0.895487904548645,[0. 0. 0. 0. 0. 0. 0. 0. 0.],-0.1220703125,-0.732421875,-0.18310546875,[0. 0. 0. 0. 0. 0. 0. 0. 0.],-0.04248046875,0.01416015625,1.00537109375,[0. 0. 0. 0. 0. 0. 0. 0. 0.]
2.4687814712524414,0.01546801719814539,0.015355372801423073,-0.444537878036499,0.8954948782920837,[0. 0. 0. 0. 0. 0. 0. 0. 0.],0.18310546875,-0.244140625,0.06103515625,[0. 0. 0. 0. 0. 0. 0. 0. 0.],-0.04150390625,0.01416015625,1.0068359375,[0. 0. 0. 0. 0. 0. 0. 0. 0.]
2.4951906204223633,0.01483343355357647,0.013894210569560528,-0.4445698857307434,0.8955135345458984,[0. 0. 0. 0. 0. 0. 0. 0. 0.],0.06103515625,-1.03759765625,-0.244140625,[0. 0. 0. 0. 0. 0. 0. 0. 0.],-0.03857421875,0.0146484375,1.00439453125,[0. 0. 0. 0. 0. 0. 0. 0. 0.]
2.513806104660034,0.015101294964551926,0.014504542574286461,-0.4445858895778656,0.8954915404319763,[0. 0. 0. 0. 0. 0. 0. 0. 0.],-0.42724609375,-1.220703125,-0.244140625,[0. 0. 0. 0. 0. 0. 0. 0. 0.],-0.0400390625,0.01416015625,1.001953125,[0. 0. 0. 0. 0. 0. 0. 0. 0.]
2.5397043228149414,0.015006075613200665,0.014308330602943897,-0.44460779428482056,0.8954854011535645,[0. 0. 0. 0. 0. 0. 0. 0. 0.],-0.244140625,-0.6103515625,-0.1220703125,[0. 0. 0. 0. 0. 0. 0. 0. 0.],-0.03955078125,0.01416015625,1.00390625,[0. 0. 0. 0. 0. 0. 0. 0. 0.]
2.5537633895874023,0.014517050236463547,0.014973165467381477,-0.44465693831443787,0.8954582810401917,[0. 0. 0. 0. 0. 0. 0. 0. 0.],0.06103515625,0.0,-0.18310546875,[0. 0. 0. 0. 0. 0. 0. 0. 0.],-0.0400390625,0.0126953125,1.00537109375,[0. 0. 0. 0. 0. 0. 0. 0. 0.]
2.5743837356567383,0.015168022364377975,0.014322876930236816,-0.44467467069625854,0.8954492211341858,[0. 0. 0. 0. 0. 0. 0. 0. 0.],-0.06103515625,-0.54931640625,-0.1220703125,[0. 0. 0. 0. 0. 0. 0. 0. 0.],-0.03955078125,0.01416015625,1.00390625,[0. 0. 0. 0. 0. 0. 0. 0. 0.]
2.593928575515747,0.015419942326843739,0.014065397903323174,-0.44468724727630615,0.89544278383255,[0. 0. 0. 0. 0. 0. 0. 0. 0.],-0.30517578125,-1.40380859375,-0.30517578125,[0. 0. 0. 0. 0. 0. 0. 0. 0.],-0.0390625,0.01513671875,1.00146484375,[0. 0. 0. 0. 0. 0. 0. 0. 0.]
2.6136016845703125,0.015361083671450615,0.013838374055922031,-0.4447176158428192,0.89543217420578,[0. 0. 0. 0. 0. 0. 0. 0. 0.],-0.1220703125,-0.9765625,-0.244140625,[0. 0. 0. 0. 0. 0. 0. 0. 0.],-0.03857421875,0.01513671875,1.00244140625,[0. 0. 0. 0. 0. 0. 0. 0. 0.]
2.6345553398132324,0.015380818396806717,0.014044634066522121,-0.444736510515213,0.8954192996025085,[0. 0. 0. 0. 0. 0. 0. 0. 0.],0.0,-0.1220703125,-0.06103515625,[0. 0. 0. 0. 0. 0. 0. 0. 0.],-0.0390625,0.01513671875,1.0048828125,[0. 0. 0. 0. 0. 0. 0. 0. 0.]
2.657059669494629,0.015637489035725594,0.01485360972583294,-0.4447571337223053,0.8953914642333984,[0. 0. 0. 0. 0. 0. 0. 0. 0.],-0.3662109375,-0.42724609375,-0.06103515625,[0. 0. 0. 0. 0. 0. 0. 0. 0.],-0.04052734375,0.01416015625,1.0029296875,[0. 0. 0. 0. 0. 0. 0. 0. 0.]
2.676283121109009,0.014808712527155876,0.015015782788395882,-0.44479450583457947,0.8953843712806702,[0. 0. 0. 0. 0. 0. 0. 0. 0.],-0.244140625,-0.30517578125,0.0,[0. 0. 0. 0. 0. 0. 0. 0. 0.],-0.0400390625,0.01318359375,1.00537109375,[0. 0. 0. 0. 0. 0. 0. 0. 0.]
2.694535970687866,0.014787997119128704,0.014502611942589283,-0.4448186457157135,0.8953812122344971,[0. 0. 0. 0. 0. 0. 0. 0. 0.],0.18310546875,-1.0986328125,-0.3662109375,[0. 0. 0. 0. 0. 0. 0. 0. 0.],-0.03955078125,0.01416015625,1.00732421875,[0. 0. 0. 0. 0. 0. 0. 0. 0.]
2.713648557662964,0.015536223538219929,0.014851497486233711,-0.44481924176216125,0.8953624963760376,[0. 0. 0. 0. 0. 0. 0. 0. 0.],-0.1220703125,-0.54931640625,-0.1220703125,[0. 0. 0. 0. 0. 0. 0. 0. 0.],-0.04052734375,0.0146484375,1.00439453125,[0. 0. 0. 0. 0. 0. 0. 0. 0.]
2.7338576316833496,0.0155873978510499,0.014285978861153126,-0.4448416233062744,0.8953597545623779,[0. 0. 0. 0. 0. 0. 0. 0. 0.],-0.30517578125,-0.30517578125,-0.18310546875,[0. 0. 0. 0. 0. 0. 0. 0. 0.],-0.03955078125,0.0146484375,1.00341796875,[0. 0. 0. 0. 0. 0. 0. 0. 0.]
2.7513675689697266,0.01590796746313572,0.01459199097007513,-0.4448571503162384,0.8953413963317871,[0. 0. 0. 0. 0. 0. 0. 0. 0.],-0.06103515625,-0.42724609375,-0.06103515625,[0. 0. 0. 0. 0. 0. 0. 0. 0.],-0.04052734375,0.015625,1.0029296875,[0. 0. 0. 0. 0. 0. 0. 0. 0.]
2.774118661880493,0.01578802429139614,0.014568542130291462,-0.4448876678943634,0.89532870054245,[0. 0. 0. 0. 0. 0. 0. 0. 0.],0.244140625,-0.79345703125,-0.06103515625,[0. 0. 0. 0. 0. 0. 0. 0. 0.],-0.04052734375,0.01513671875,1.00439453125,[0. 0. 0. 0. 0. 0. 0. 0. 0.]
2.7943673133850098,0.014286905527114868,0.01440613716840744,-0.44493526220321655,0.895332932472229,[0. 0. 0. 0. 0. 0. 0. 0. 0.],0.0,-0.9765625,-0.06103515625,[0. 0. 0. 0. 0. 0. 0. 0. 0.],-0.03857421875,0.0126953125,1.00390625,[0. 0. 0. 0. 0. 0. 0. 0. 0.]
2.81361722946167,0.015103498473763466,0.014568503946065903,-0.44495177268981934,0.8953086733818054,[0. 0. 0. 0. 0. 0. 0. 0. 0.],-0.18310546875,-1.3427734375,-0.30517578125,[0. 0. 0. 0. 0. 0. 0. 0. 0.],-0.0400390625,0.01416015625,1.0029296875,[0. 0. 0. 0. 0. 0. 0. 0. 0.]
2.831989049911499,0.015451792627573013,0.015317924320697784,-0.4449522793292999,0.8952900171279907,[0. 0. 0. 0. 0. 0. 0. 0. 0.],-0.30517578125,-0.67138671875,-0.18310546875,[0. 0. 0. 0. 0. 0. 0. 0. 0.],-0.04150390625,0.01416015625,1.00634765625,[0. 0. 0. 0. 0. 0. 0. 0. 0.]
2.8538684844970703,0.015668876469135284,0.014651811681687832,-0.44497594237327576,0.8952855467796326,[0. 0. 0. 0. 0. 0. 0. 0. 0.],0.1220703125,0.244140625,-0.06103515625,[0. 0. 0. 0. 0. 0. 0. 0. 0.],-0.0400390625,0.01513671875,1.00390625,[0. 0. 0. 0. 0. 0. 0. 0. 0.]
2.8699073791503906,0.015680883079767227,0.015217483974993229,-0.44500306248664856,0.8952624201774597,[0. 0. 0. 0. 0. 0. 0. 0. 0.],-0.1220703125,-0.54931640625,-0.06103515625,[0. 0. 0. 0. 0. 0. 0. 0. 0.],-0.041015625,0.01513671875,1.00341796875,[0. 0. 0. 0. 0. 0. 0. 0. 0.]
2.8937129974365234,0.015383274294435978,0.015127239748835564,-0.4450373351573944,0.8952521085739136,[0. 0. 0. 0. 0. 0. 0. 0. 0.],-0.244140625,-1.15966796875,-0.18310546875,[0. 0. 0. 0. 0. 0. 0. 0. 0.],-0.041015625,0.0146484375,1.0048828125,[0. 0. 0. 0. 0. 0. 0. 0. 0.]
2.9140777587890625,0.015306162647902966,0.014609365724027157,-0.445068895816803,0.8952463865280151,[0. 0. 0. 0. 0. 0. 0. 0. 0.],0.1220703125,-0.91552734375,-0.30517578125,[0. 0. 0. 0. 0. 0. 0. 0. 0.],-0.0400390625,0.0146484375,1.001953125,[0. 0. 0. 0. 0. 0. 0. 0. 0.]
2.9341847896575928,0.015849117189645767,0.013999485410749912,-0.4450620710849762,0.8952500224113464,[0. 0. 0. 0. 0. 0. 0. 0. 0.],-0.1220703125,-0.30517578125,-0.1220703125,[0. 0. 0. 0. 0. 0. 0. 0. 0.],-0.0400390625,0.015625,1.00341796875,[0. 0. 0. 0. 0. 0. 0. 0. 0.]
2.9538261890411377,0.015285366214811802,0.014400297775864601,-0.44509583711624146,0.8952367305755615,[0. 0. 0. 0. 0. 0. 0. 0. 0.],-0.30517578125,-0.30517578125,0.06103515625,[0. 0. 0. 0. 0. 0. 0. 0. 0.],-0.0390625,0.01416015625,1.00146484375,[0. 0. 0. 0. 0. 0. 0. 0. 0.]
2.9739136695861816,0.015434851869940758,0.015234704129397869,-0.4451321065425873,0.8952023386955261,[0. 0. 0. 0. 0. 0. 0. 0. 0.],-0.18310546875,-0.67138671875,-0.18310546875,[0. 0. 0. 0. 0. 0. 0. 0. 0.],-0.04052734375,0.01416015625,1.0029296875,[0. 0. 0. 0. 0. 0. 0. 0. 0.]
2.992872714996338,0.015309016220271587,0.01513527613133192,-0.4451758861541748,0.8951843976974487,[0. 0. 0. 0. 0. 0. 0. 0. 0.],0.1220703125,-0.91552734375,-0.30517578125,[0. 0. 0. 0. 0. 0. 0. 0. 0.],-0.04052734375,0.0146484375,1.0048828125,[0. 0. 0. 0. 0. 0. 0. 0. 0.]
3.0093114376068115,0.015752224251627922,0.01424300204962492,-0.4451739490032196,0.8951923251152039,[0. 0. 0. 0. 0. 0. 0. 0. 0.],0.06103515625,-0.91552734375,-0.06103515625,[0. 0. 0. 0. 0. 0. 0. 0. 0.],-0.0400390625,0.01513671875,1.00244140625,[0. 0. 0. 0. 0. 0. 0. 0. 0.]
3.0343799591064453,0.01488378643989563,0.014437255449593067,-0.44522345066070557,0.8951794505119324,[0. 0. 0. 0. 0. 0. 0. 0. 0.],-0.42724609375,-0.48828125,-0.244140625,[0. 0. 0. 0. 0. 0. 0. 0. 0.],-0.03955078125,0.01416015625,1.00537109375,[0. 0. 0. 0. 0. 0. 0. 0. 0.]
3.0539329051971436,0.01564330980181694,0.014752219431102276,-0.44523727893829346,0.8951545357704163,[0. 0. 0. 0. 0. 0. 0. 0. 0.],0.0,-0.244140625,-0.1220703125,[0. 0. 0. 0. 0. 0. 0. 0. 0.],-0.0400390625,0.01513671875,1.005859375,[0. 0. 0. 0. 0. 0. 0. 0. 0.]
3.076477527618408,0.01588822901248932,0.01400740072131157,-0.4452625513076782,0.8951495885848999,[0. 0. 0. 0. 0. 0. 0. 0. 0.],0.06103515625,-0.1220703125,-0.1220703125,[0. 0. 0. 0. 0. 0. 0. 0. 0.],-0.03955078125,0.01611328125,1.00390625,[0. 0. 0. 0. 0. 0. 0. 0. 0.]
3.0937986373901367,0.015726635232567787,0.014762504026293755,-0.4453009366989136,0.895121157169342,[0. 0. 0. 0. 0. 0. 0. 0. 0.],-0.1220703125,-1.0986328125,-0.244140625,[0. 0. 0. 0. 0. 0. 0. 0. 0.],-0.041015625,0.0146484375,1.00341796875,[0. 0. 0. 0. 0. 0. 0. 0. 0.]
3.1106722354888916,0.01540999673306942,0.014822795987129211,-0.4453292787075043,0.8951115608215332,[0. 0. 0. 0. 0. 0. 0. 0. 0.],-0.30517578125,-1.0986328125,-0.18310546875,[0. 0. 0. 0. 0. 0. 0. 0. 0.],-0.041015625,0.01416015625,1.00341796875,[0. 0. 0. 0. 0. 0. 0. 0. 0.]
3.1347289085388184,0.015099707990884781,0.014617972075939178,-0.4453539550304413,0.8951079845428467,[0. 0. 0. 0. 0. 0. 0. 0. 0.],0.0,-0.18310546875,-0.06103515625,[0. 0. 0. 0. 0. 0. 0. 0. 0.],-0.03955078125,0.01416015625,1.0048828125,[0. 0. 0. 0. 0. 0. 0. 0. 0.]
3.154179096221924,0.015510901808738708,0.014887248165905476,-0.44537830352783203,0.8950843811035156,[0. 0. 0. 0. 0. 0. 0. 0. 0.],0.18310546875,-0.1220703125,-0.1220703125,[0. 0. 0. 0. 0. 0. 0. 0. 0.],-0.04052734375,0.01416015625,1.00390625,[0. 0. 0. 0. 0. 0. 0. 0. 0.]
3.1738228797912598,0.0147913983091712,0.015288826078176498,-0.44542035460472107,0.8950687646865845,[0. 0. 0. 0. 0. 0. 0. 0. 0.],-0.244140625,-0.91552734375,-0.1220703125,[0. 0. 0. 0. 0. 0. 0. 0. 0.],-0.04052734375,0.013671875,1.005859375,[0. 0. 0. 0. 0. 0. 0. 0. 0.]
3.195521354675293,0.015243489295244217,0.014622881077229977,-0.4454323947429657,0.8950664401054382,[0. 0. 0. 0. 0. 0. 0. 0. 0.],-0.3662109375,-1.3427734375,-0.244140625,[0. 0. 0. 0. 0. 0. 0. 0. 0.],-0.0400390625,0.013671875,1.00244140625,[0. 0. 0. 0. 0. 0. 0. 0. 0.]
3.2145800590515137,0.014855371788144112,0.014450200833380222,-0.4454543888568878,0.8950647711753845,[0. 0. 0. 0. 0. 0. 0. 0. 0.],0.0,-0.6103515625,-0.1220703125,[0. 0. 0. 0. 0. 0. 0. 0. 0.],-0.03955078125,0.013671875,1.00341796875,[0. 0. 0. 0. 0. 0. 0. 0. 0.]
3.2344837188720703,0.015594620257616043,0.01449365820735693,-0.4454677700996399,0.8950448036193848,[0. 0. 0. 0. 0. 0. 0. 0. 0.],-0.06103515625,0.06103515625,-0.06103515625,[0. 0. 0. 0. 0. 0. 0. 0. 0.],-0.0400390625,0.0146484375,1.0048828125,[0. 0. 0. 0. 0. 0. 0. 0. 0.]
3.254199743270874,0.014880577102303505,0.014145852997899055,-0.44549843668937683,0.8950473666191101,[0. 0. 0. 0. 0. 0. 0. 0. 0.],-0.42724609375,-0.30517578125,0.0,[0. 0. 0. 0. 0. 0. 0. 0. 0.],-0.0390625,0.01416015625,1.005859375,[0. 0. 0. 0. 0. 0. 0. 0. 0.]
3.27459454536438,0.015760743990540504,0.014317362569272518,-0.44551026821136475,0.8950235843658447,[0. 0. 0. 0. 0. 0. 0. 0. 0.],0.0,-0.48828125,-0.1220703125,[0. 0. 0. 0. 0. 0. 0. 0. 0.],-0.0400390625,0.015625,1.00537109375,[0. 0. 0. 0. 0. 0. 0. 0. 0.]
3.2892251014709473,0.015587272122502327,0.015241366811096668,-0.44554221630096436,0.8949955701828003,[0. 0. 0. 0. 0. 0. 0. 0. 0.],0.244140625,-0.79345703125,-0.1220703125,[0. 0. 0. 0. 0. 0. 0. 0. 0.],-0.04150390625,0.01416015625,1.0048828125,[0. 0. 0. 0. 0. 0. 0. 0. 0.]
3.3138983249664307,0.014730215072631836,0.015196054242551327,-0.4455814063549042,0.8949913382530212,[0. 0. 0. 0. 0. 0. 0. 0. 0.],-0.06103515625,-1.0986328125,-0.3662109375,[0. 0. 0. 0. 0. 0. 0. 0. 0.],-0.04052734375,0.0126953125,1.005859375,[0. 0. 0. 0. 0. 0. 0. 0. 0.]
3.3343136310577393,0.015215643681585789,0.01447976939380169,-0.4455806016921997,0.8949954509735107,[0. 0. 0. 0. 0. 0. 0. 0. 0.],-0.30517578125,-0.67138671875,-0.1220703125,[0. 0. 0. 0. 0. 0. 0. 0. 0.],-0.03955078125,0.01416015625,1.0029296875,[0. 0. 0. 0. 0. 0. 0. 0. 0.]
3.349257230758667,0.014835855923593044,0.014853698201477528,-0.4456174969673157,0.8949772715568542,[0. 0. 0. 0. 0. 0. 0. 0. 0.],0.06103515625,0.06103515625,-0.06103515625,[0. 0. 0. 0. 0. 0. 0. 0. 0.],-0.0400390625,0.01318359375,1.0009765625,[0. 0. 0. 0. 0. 0. 0. 0. 0.]
3.3762755393981934,0.015217667445540428,0.014646004885435104,-0.4456366300582886,0.8949646949768066,[0. 0. 0. 0. 0. 0. 0. 0. 0.],0.18310546875,-0.42724609375,-0.06103515625,[0. 0. 0. 0. 0. 0. 0. 0. 0.],-0.03955078125,0.013671875,1.00244140625,[0. 0. 0. 0. 0. 0. 0. 0. 0.]
3.3957455158233643,0.015738481655716896,0.014005259610712528,-0.44563427567481995,0.894967257976532,[0. 0. 0. 0. 0. 0. 0. 0. 0.],-0.18310546875,-1.220703125,-0.18310546875,[0. 0. 0. 0. 0. 0. 0. 0. 0.],-0.03955078125,0.015625,1.00341796875,[0. 0. 0. 0. 0. 0. 0. 0. 0.]
3.416137456893921,0.014751137234270573,0.015081067569553852,-0.44569480419158936,0.8949364423751831,[0. 0. 0. 0. 0. 0. 0. 0. 0.],-0.18310546875,-1.220703125,-0.30517578125,[0. 0. 0. 0. 0. 0. 0. 0. 0.],-0.04052734375,0.01318359375,1.00341796875,[0. 0. 0. 0. 0. 0. 0. 0. 0.]
3.42901873588562,0.014776376076042652,0.014383068308234215,-0.44570446014404297,0.8949427008628845,[0. 0. 0. 0. 0. 0. 0. 0. 0.],0.0,-0.1220703125,-0.06103515625,[0. 0. 0. 0. 0. 0. 0. 0. 0.],-0.0390625,0.013671875,1.00244140625,[0. 0. 0. 0. 0. 0. 0. 0. 0.]
3.453864812850952,0.015086554922163486,0.015581184066832066,-0.44573432207107544,0.8949025869369507,[0. 0. 0. 0. 0. 0. 0. 0. 0.],0.06103515625,-0.1220703125,-0.06103515625,[0. 0. 0. 0. 0. 0. 0. 0. 0.],-0.041015625,0.01318359375,1.0029296875,[0. 0. 0. 0. 0. 0. 0. 0. 0.]
3.4742090702056885,0.014908893965184689,0.01537491474300623,-0.44575875997543335,0.894896924495697,[0. 0. 0. 0. 0. 0. 0. 0. 0.],-0.18310546875,-0.91552734375,-0.06103515625,[0. 0. 0. 0. 0. 0. 0. 0. 0.],-0.041015625,0.01318359375,1.00341796875,[0. 0. 0. 0. 0. 0. 0. 0. 0.]
3.4944911003112793,0.014846944250166416,0.014858570881187916,-0.44578251242637634,0.8948948383331299,[0. 0. 0. 0. 0. 0. 0. 0. 0.],-0.244140625,-1.28173828125,-0.244140625,[0. 0. 0. 0. 0. 0. 0. 0. 0.],-0.04052734375,0.013671875,1.00439453125,[0. 0. 0. 0. 0. 0. 0. 0. 0.]
3.517632484436035,0.014829575084149837,0.014925234019756317,-0.44580596685409546,0.894882321357727,[0. 0. 0. 0. 0. 0. 0. 0. 0.],0.1220703125,-0.67138671875,-0.18310546875,[0. 0. 0. 0. 0. 0. 0. 0. 0.],-0.04052734375,0.013671875,1.00244140625,[0. 0. 0. 0. 0. 0. 0. 0. 0.]
3.540919303894043,0.015341471880674362,0.015187760815024376,-0.4458100199699402,0.8948673009872437,[0. 0. 0. 0. 0. 0. 0. 0. 0.],-0.244140625,-0.06103515625,0.0,[0. 0. 0. 0. 0. 0. 0. 0. 0.],-0.041015625,0.013671875,1.00390625,[0. 0. 0. 0. 0. 0. 0. 0. 0.]
3.553804874420166,0.01497836783528328,0.01438354142010212,-0.4458305835723877,0.8948764204978943,[0. 0. 0. 0. 0. 0. 0. 0. 0.],-0.42724609375,-0.42724609375,-0.06103515625,[0. 0. 0. 0. 0. 0. 0. 0. 0.],-0.0400390625,0.01416015625,1.00439453125,[0. 0. 0. 0. 0. 0. 0. 0. 0.]
3.573763608932495,0.015133966691792011,0.01488842349499464,-0.44585779309272766,0.8948519825935364,[0. 0. 0. 0. 0. 0. 0. 0. 0.],0.06103515625,-0.79345703125,-0.18310546875,[0. 0. 0. 0. 0. 0. 0. 0. 0.],-0.04052734375,0.013671875,1.0048828125,[0. 0. 0. 0. 0. 0. 0. 0. 0.]
3.5888633728027344,0.015102164819836617,0.014821456745266914,-0.4458853006362915,0.8948400020599365,[0. 0. 0. 0. 0. 0. 0. 0. 0.],0.1220703125,-0.91552734375,-0.3662109375,[0. 0. 0. 0. 0. 0. 0. 0. 0.],-0.0400390625,0.0146484375,1.00390625,[0. 0. 0. 0. 0. 0. 0. 0. 0.]
3.609193801879883,0.015711776912212372,0.013733585365116596,-0.4458867013454437,0.8948462605476379,[0. 0. 0. 0. 0. 0. 0. 0. 0.],-0.3662109375,-0.8544921875,-0.1220703125,[0. 0. 0. 0. 0. 0. 0. 0. 0.],-0.0390625,0.01611328125,1.00390625,[0. 0. 0. 0. 0. 0. 0. 0. 0.]
3.6352384090423584,0.015132317319512367,0.015281781554222107,-0.4459236264228821,0.8948125839233398,[0. 0. 0. 0. 0. 0. 0. 0. 0.],-0.30517578125,-0.30517578125,0.06103515625,[0. 0. 0. 0. 0. 0. 0. 0. 0.],-0.04052734375,0.013671875,1.00244140625,[0. 0. 0. 0. 0. 0. 0. 0. 0.]
3.653834581375122,0.014584478922188282,0.01449528243392706,-0.4459666609764099,0.8948133587837219,[0. 0. 0. 0. 0. 0. 0. 0. 0.],0.1220703125,-0.18310546875,-0.18310546875,[0. 0. 0. 0. 0. 0. 0. 0. 0.],-0.03955078125,0.01318359375,1.00341796875,[0. 0. 0. 0. 0. 0. 0. 0. 0.]
3.6738946437835693,0.01444800291210413,0.014077519066631794,-0.44599398970603943,0.8948086500167847,[0. 0. 0. 0. 0. 0. 0. 0. 0.],0.0,-0.8544921875,-0.244140625,[0. 0. 0. 0. 0. 0. 0. 0. 0.],-0.03857421875,0.013671875,1.00537109375,[0. 0. 0. 0. 0. 0. 0. 0. 0.]
3.6939573287963867,0.0161804910749197,0.014289936982095242,-0.4459790587425232,0.894783079624176,[0. 0. 0. 0. 0. 0. 0. 0. 0.],-0.244140625,-1.28173828125,-0.244140625,[0. 0. 0. 0. 0. 0. 0. 0. 0.],-0.0400390625,0.01611328125,1.0048828125,[0. 0. 0. 0. 0. 0. 0. 0. 0.]
3.7143468856811523,0.015304326079785824,0.014798958785831928,-0.44602516293525696,0.8947672247886658,[0. 0. 0. 0. 0. 0. 0. 0. 0.],-0.1220703125,-1.28173828125,-0.18310546875,[0. 0. 0. 0. 0. 0. 0. 0. 0.],-0.04052734375,0.013671875,1.0048828125,[0. 0. 0. 0. 0. 0. 0. 0. 0.]
3.734165906906128,0.01518977526575327,0.01410919614136219,-0.4460480213165283,0.8947689533233643,[0. 0. 0. 0. 0. 0. 0. 0. 0.],0.1220703125,-0.244140625,-0.18310546875,[0. 0. 0. 0. 0. 0. 0. 0. 0.],-0.0390625,0.0146484375,1.0048828125,[0. 0. 0. 0. 0. 0. 0. 0. 0.]
3.7489049434661865,0.015317786484956741,0.01489128079265356,-0.44608116149902344,0.8947376012802124,[0. 0. 0. 0. 0. 0. 0. 0. 0.],-0.18310546875,-0.18310546875,0.0,[0. 0. 0. 0. 0. 0. 0. 0. 0.],-0.04052734375,0.01416015625,1.0068359375,[0. 0. 0. 0. 0. 0. 0. 0. 0.]
3.769181251525879,0.015161028131842613,0.01439461950212717,-0.44611915946006775,0.8947294354438782,[0. 0. 0. 0. 0. 0. 0. 0. 0.],-0.30517578125,-0.67138671875,-0.18310546875,[0. 0. 0. 0. 0. 0. 0. 0. 0.],-0.03955078125,0.013671875,1.00390625,[0. 0. 0. 0. 0. 0. 0. 0. 0.]
3.7913172245025635,0.014883321709930897,0.014243245124816895,-0.44614580273628235,0.894723117351532,[0. 0. 0. 0. 0. 0. 0. 0. 0.],0.06103515625,-1.0986328125,-0.244140625,[0. 0. 0. 0. 0. 0. 0. 0. 0.],-0.0390625,0.01318359375,1.0048828125,[0. 0. 0. 0. 0. 0. 0. 0. 0.]
3.8143815994262695,0.0156877264380455,0.014372637495398521,-0.4461396038532257,0.8947104811668396,[0. 0. 0. 0. 0. 0. 0. 0. 0.],0.06103515625,-0.8544921875,-0.1220703125,[0. 0. 0. 0. 0. 0. 0. 0. 0.],-0.03955078125,0.01513671875,1.001953125,[0. 0. 0. 0. 0. 0. 0. 0. 0.]
3.8341174125671387,0.016313906759023666,0.014865215867757797,-0.44613873958587646,0.8946916460990906,[0. 0. 0. 0. 0. 0. 0. 0. 0.],-0.244140625,-0.3662109375,-0.1220703125,[0. 0. 0. 0. 0. 0. 0. 0. 0.],-0.041015625,0.01611328125,1.00537109375,[0. 0. 0. 0. 0. 0. 0. 0. 0.]
3.8544259071350098,0.015125546604394913,0.015167243778705597,-0.44618988037109375,0.8946819305419922,[0. 0. 0. 0. 0. 0. 0. 0. 0.],-0.3662109375,-0.30517578125,0.0,[0. 0. 0. 0. 0. 0. 0. 0. 0.],-0.041015625,0.013671875,1.00732421875,[0. 0. 0. 0. 0. 0. 0. 0. 0.]
3.874174118041992,0.015780095010995865,0.015337442047894001,-0.44621741771698,0.8946540355682373,[0. 0. 0. 0. 0. 0. 0. 0. 0.],0.244140625,-0.54931640625,-0.18310546875,[0. 0. 0. 0. 0. 0. 0. 0. 0.],-0.0419921875,0.0146484375,1.00634765625,[0. 0. 0. 0. 0. 0. 0. 0. 0.]
3.8933799266815186,0.016087908297777176,0.014937933534383774,-0.44624796509742737,0.8946400284767151,[0. 0. 0. 0. 0. 0. 0. 0. 0.],0.0,-0.732421875,-0.1220703125,[0. 0. 0. 0. 0. 0. 0. 0. 0.],-0.041015625,0.015625,1.00390625,[0. 0. 0. 0. 0. 0. 0. 0. 0.]
3.9092063903808594,0.015498589724302292,0.015260518528521061,-0.4462764263153076,0.8946309089660645,[0. 0. 0. 0. 0. 0. 0. 0. 0.],-0.244140625,-1.03759765625,-0.18310546875,[0. 0. 0. 0. 0. 0. 0. 0. 0.],-0.041015625,0.0146484375,1.00341796875,[0. 0. 0. 0. 0. 0. 0. 0. 0.]
3.930687665939331,0.015126796439290047,0.015048348344862461,-0.44630587100982666,0.8946261405944824,[0. 0. 0. 0. 0. 0. 0. 0. 0.],-0.244140625,-0.42724609375,-0.06103515625,[0. 0. 0. 0. 0. 0. 0. 0. 0.],-0.04052734375,0.013671875,1.0029296875,[0. 0. 0. 0. 0. 0. 0. 0. 0.]
3.949352502822876,0.015128889121115208,0.014988486655056477,-0.4463266134262085,0.8946167826652527,[0. 0. 0. 0. 0. 0. 0. 0. 0.],0.18310546875,-0.1220703125,0.06103515625,[0. 0. 0. 0. 0. 0. 0. 0. 0.],-0.04052734375,0.013671875,1.00390625,[0. 0. 0. 0. 0. 0. 0. 0. 0.]
3.974914312362671,0.014771784655749798,0.015353919006884098,-0.4463709592819214,0.8945943117141724,[0. 0. 0. 0. 0. 0. 0. 0. 0.],0.1220703125,-0.79345703125,-0.1220703125,[0. 0. 0. 0. 0. 0. 0. 0. 0.],-0.04052734375,0.0126953125,1.00341796875,[0. 0. 0. 0. 0. 0. 0. 0. 0.]
3.9940857887268066,0.015424280427396297,0.015154995024204254,-0.44638240337371826,0.894581139087677,[0. 0. 0. 0. 0. 0. 0. 0. 0.],-0.30517578125,-1.46484375,-0.3662109375,[0. 0. 0. 0. 0. 0. 0. 0. 0.],-0.04052734375,0.013671875,1.00439453125,[0. 0. 0. 0. 0. 0. 0. 0. 0.]
4.01407790184021,0.0154406214132905,0.015192104503512383,-0.4464092552661896,0.8945667743682861,[0. 0. 0. 0. 0. 0. 0. 0. 0.],-0.06103515625,-0.732421875,-0.30517578125,[0. 0. 0. 0. 0. 0. 0. 0. 0.],-0.041015625,0.013671875,1.0048828125,[0. 0. 0. 0. 0. 0. 0. 0. 0.]
4.034128189086914,0.015058275312185287,0.014651107601821423,-0.4464440941810608,0.8945648670196533,[0. 0. 0. 0. 0. 0. 0. 0. 0.],0.1220703125,0.1220703125,0.0,[0. 0. 0. 0. 0. 0. 0. 0. 0.],-0.0400390625,0.013671875,1.00341796875,[0. 0. 0. 0. 0. 0. 0. 0. 0.]
4.055752754211426,0.015447755344212055,0.015000233426690102,-0.4464687705039978,0.8945400714874268,[0. 0. 0. 0. 0. 0. 0. 0. 0.],-0.06103515625,-0.30517578125,-0.06103515625,[0. 0. 0. 0. 0. 0. 0. 0. 0.],-0.0400390625,0.0146484375,1.00390625,[0. 0. 0. 0. 0. 0. 0. 0. 0.]
4.074357509613037,0.015981366857886314,0.014947629533708096,-0.4464791417121887,0.8945264220237732,[0. 0. 0. 0. 0. 0. 0. 0. 0.],-0.18310546875,-1.220703125,-0.1220703125,[0. 0. 0. 0. 0. 0. 0. 0. 0.],-0.04052734375,0.01513671875,1.00390625,[0. 0. 0. 0. 0. 0. 0. 0. 0.]
4.094290018081665,0.015145261771976948,0.015577691607177258,-0.44652506709098816,0.8945073485374451,[0. 0. 0. 0. 0. 0. 0. 0. 0.],0.0,-1.15966796875,-0.244140625,[0. 0. 0. 0. 0. 0. 0. 0. 0.],-0.04150390625,0.0126953125,1.0048828125,[0. 0. 0. 0. 0. 0. 0. 0. 0.]
4.113869905471802,0.015172425657510757,0.014637100510299206,-0.44652679562568665,0.8945218920707703,[0. 0. 0. 0. 0. 0. 0. 0. 0.],0.06103515625,-0.3662109375,-0.18310546875,[0. 0. 0. 0. 0. 0. 0. 0. 0.],-0.0400390625,0.01416015625,1.005859375,[0. 0. 0. 0. 0. 0. 0. 0. 0.]
4.133759498596191,0.015260724350810051,0.014954625628888607,-0.4465492367744446,0.8945039510726929,[0. 0. 0. 0. 0. 0. 0. 0. 0.],-0.30517578125,-0.244140625,0.0,[0. 0. 0. 0. 0. 0. 0. 0. 0.],-0.04052734375,0.01416015625,1.00341796875,[0. 0. 0. 0. 0. 0. 0. 0. 0.]
4.153666257858276,0.014874331653118134,0.014802171848714352,-0.44658470153808594,0.8944952487945557,[0. 0. 0. 0. 0. 0. 0. 0. 0.],-0.18310546875,-0.67138671875,0.0,[0. 0. 0. 0. 0. 0. 0. 0. 0.],-0.0400390625,0.01318359375,1.00390625,[0. 0. 0. 0. 0. 0. 0. 0. 0.]
4.174435377120972,0.015294811688363552,0.014504881575703621,-0.44659727811813354,0.8944868445396423,[0. 0. 0. 0. 0. 0. 0. 0. 0.],0.30517578125,-0.30517578125,-0.1220703125,[0. 0. 0. 0. 0. 0. 0. 0. 0.],-0.0400390625,0.01416015625,1.00390625,[0. 0. 0. 0. 0. 0. 0. 0. 0.]
4.194437026977539,0.014826805330812931,0.014442349784076214,-0.4466332197189331,0.8944777250289917,[0. 0. 0. 0. 0. 0. 0. 0. 0.],0.06103515625,-1.03759765625,-0.18310546875,[0. 0. 0. 0. 0. 0. 0. 0. 0.],-0.03955078125,0.013671875,1.00634765625,[0. 0. 0. 0. 0. 0. 0. 0. 0.]
4.213855504989624,0.014817580580711365,0.014895785599946976,-0.44665512442588806,0.8944594264030457,[0. 0. 0. 0. 0. 0. 0. 0. 0.],-0.244140625,-1.28173828125,-0.244140625,[0. 0. 0. 0. 0. 0. 0. 0. 0.],-0.04052734375,0.01318359375,1.00537109375,[0. 0. 0. 0. 0. 0. 0. 0. 0.]
4.234067678451538,0.01583232171833515,0.01402648538351059,-0.4466404616832733,0.8944634795188904,[0. 0. 0. 0. 0. 0. 0. 0. 0.],-0.06103515625,-0.42724609375,-0.1220703125,[0. 0. 0. 0. 0. 0. 0. 0. 0.],-0.03955078125,0.0166015625,1.00634765625,[0. 0. 0. 0. 0. 0. 0. 0. 0.]
4.254056692123413,0.015812857076525688,0.0140343327075243,-0.44666963815689087,0.8944492340087891,[0. 0. 0. 0. 0. 0. 0. 0. 0.],0.06103515625,0.0,0.0,[0. 0. 0. 0. 0. 0. 0. 0. 0.],-0.03955078125,0.015625,1.00244140625,[0. 0. 0. 0. 0. 0. 0. 0. 0.]
4.274135589599609,0.014957193285226822,0.013968925923109055,-0.4467110335826874,0.8944442272186279,[0. 0. 0. 0. 0. 0. 0. 0. 0.],0.0,-0.732421875,-0.06103515625,[0. 0. 0. 0. 0. 0. 0. 0. 0.],-0.03857421875,0.0146484375,1.00390625,[0. 0. 0. 0. 0. 0. 0. 0. 0.]
4.293855428695679,0.015325093641877174,0.014165863394737244,-0.4467338025569916,0.8944236040115356,[0. 0. 0. 0. 0. 0. 0. 0. 0.],-0.244140625,-1.40380859375,-0.244140625,[0. 0. 0. 0. 0. 0. 0. 0. 0.],-0.0400390625,0.0146484375,1.00537109375,[0. 0. 0. 0. 0. 0. 0. 0. 0.]
4.3136749267578125,0.015613880939781666,0.014774731360375881,-0.4467501640319824,0.8944005370140076,[0. 0. 0. 0. 0. 0. 0. 0. 0.],0.06103515625,-0.79345703125,-0.244140625,[0. 0. 0. 0. 0. 0. 0. 0. 0.],-0.041015625,0.0146484375,1.00341796875,[0. 0. 0. 0. 0. 0. 0. 0. 0.]
4.335251569747925,0.015609142370522022,0.014673651196062565,-0.44676584005355835,0.8943945169448853,[0. 0. 0. 0. 0. 0. 0. 0. 0.],0.18310546875,0.06103515625,-0.06103515625,[0. 0. 0. 0. 0. 0. 0. 0. 0.],-0.04052734375,0.0146484375,1.00244140625,[0. 0. 0. 0. 0. 0. 0. 0. 0.]
4.353741645812988,0.015072472393512726,0.013959373347461224,-0.4467933773994446,0.8944013714790344,[0. 0. 0. 0. 0. 0. 0. 0. 0.],-0.3662109375,-0.30517578125,0.0,[0. 0. 0. 0. 0. 0. 0. 0. 0.],-0.03857421875,0.0146484375,1.005859375,[0. 0. 0. 0. 0. 0. 0. 0. 0.]
4.369041204452515,0.01503885816782713,0.014214050024747849,-0.44682472944259644,0.894382119178772,[0. 0. 0. 0. 0. 0. 0. 0. 0.],-0.06103515625,-0.9765625,-0.244140625,[0. 0. 0. 0. 0. 0. 0. 0. 0.],-0.0390625,0.01416015625,1.0048828125,[0. 0. 0. 0. 0. 0. 0. 0. 0.]
4.395854711532593,0.015462963841855526,0.014379294589161873,-0.44683748483657837,0.8943660259246826,[0. 0. 0. 0. 0. 0. 0. 0. 0.],0.1220703125,-1.03759765625,-0.244140625,[0. 0. 0. 0. 0. 0. 0. 0. 0.],-0.04052734375,0.0146484375,1.0048828125,[0. 0. 0. 0. 0. 0. 0. 0. 0.]
4.415323734283447,0.015311543829739094,0.013796471990644932,-0.4468589425086975,0.8943670988082886,[0. 0. 0. 0. 0. 0. 0. 0. 0.],-0.06103515625,-0.54931640625,-0.1220703125,[0. 0. 0. 0. 0. 0. 0. 0. 0.],-0.0390625,0.0146484375,1.0029296875,[0. 0. 0. 0. 0. 0. 0. 0. 0.]
4.4341325759887695,0.015054632909595966,0.014622163958847523,-0.44689658284187317,0.8943394422531128,[0. 0. 0. 0. 0. 0. 0. 0. 0.],-0.244140625,-0.3662109375,-0.1220703125,[0. 0. 0. 0. 0. 0. 0. 0. 0.],-0.03955078125,0.01416015625,1.0048828125,[0. 0. 0. 0. 0. 0. 0. 0. 0.]
4.453896760940552,0.01593310758471489,0.015072408132255077,-0.44692298769950867,0.894303560256958,[0. 0. 0. 0. 0. 0. 0. 0. 0.],-0.18310546875,-0.48828125,-0.1220703125,[0. 0. 0. 0. 0. 0. 0. 0. 0.],-0.04150390625,0.01513671875,1.00537109375,[0. 0. 0. 0. 0. 0. 0. 0. 0.]
4.474956035614014,0.015232840552926064,0.014613569714128971,-0.44696393609046936,0.8943029046058655,[0. 0. 0. 0. 0. 0. 0. 0. 0.],0.244140625,-0.8544921875,-0.244140625,[0. 0. 0. 0. 0. 0. 0. 0. 0.],-0.0400390625,0.01416015625,1.0048828125,[0. 0. 0. 0. 0. 0. 0. 0. 0.]
4.497014760971069,0.015263251960277557,0.014098726212978363,-0.4469755291938782,0.8943048119544983,[0. 0. 0. 0. 0. 0. 0. 0. 0.],0.06103515625,-1.0986328125,-0.244140625,[0. 0. 0. 0. 0. 0. 0. 0. 0.],-0.0390625,0.0146484375,1.00390625,[0. 0. 0. 0. 0. 0. 0. 0. 0.]
4.514752388000488,0.015254924073815346,0.014024408534169197,-0.4469839036464691,0.8943019509315491,[0. 0. 0. 0. 0. 0. 0. 0. 0.],-0.30517578125,-0.67138671875,0.0,[0. 0. 0. 0. 0. 0. 0. 0. 0.],-0.0390625,0.01513671875,1.00439453125,[0. 0. 0. 0. 0. 0. 0. 0. 0.]
4.529607057571411,0.015076497569680214,0.014736025594174862,-0.44701701402664185,0.894277036190033,[0. 0. 0. 0. 0. 0. 0. 0. 0.],0.06103515625,-0.06103515625,0.0,[0. 0. 0. 0. 0. 0. 0. 0. 0.],-0.04052734375,0.01318359375,1.00341796875,[0. 0. 0. 0. 0. 0. 0. 0. 0.]
4.553861618041992,0.014904468320310116,0.015578174963593483,-0.4470635950565338,0.8942423462867737,[0. 0. 0. 0. 0. 0. 0. 0. 0.],0.06103515625,-0.3662109375,0.0,[0. 0. 0. 0. 0. 0. 0. 0. 0.],-0.04150390625,0.0126953125,1.0048828125,[0. 0. 0. 0. 0. 0. 0. 0. 0.]
4.576135635375977,0.015401660464704037,0.014543145895004272,-0.4470878541469574,0.8942392468452454,[0. 0. 0. 0. 0. 0. 0. 0. 0.],-0.244140625,-0.79345703125,-0.244140625,[0. 0. 0. 0. 0. 0. 0. 0. 0.],-0.0400390625,0.0146484375,1.00439453125,[0. 0. 0. 0. 0. 0. 0. 0. 0.]
4.59639310836792,0.01504528522491455,0.014507047832012177,-0.4471081793308258,0.8942357897758484,[0. 0. 0. 0. 0. 0. 0. 0. 0.],-0.3662109375,-1.220703125,-0.244140625,[0. 0. 0. 0. 0. 0. 0. 0. 0.],-0.0400390625,0.01416015625,1.00537109375,[0. 0. 0. 0. 0. 0. 0. 0. 0.]
4.62134313583374,0.015290789306163788,0.014496369287371635,-0.4471275210380554,0.89422208070755,[0. 0. 0. 0. 0. 0. 0. 0. 0.],0.1220703125,-0.1220703125,-0.1220703125,[0. 0. 0. 0. 0. 0. 0. 0. 0.],-0.0400390625,0.01416015625,1.00537109375,[0. 0. 0. 0. 0. 0. 0. 0. 0.]
4.630317449569702,0.015025678090751171,0.014766737818717957,-0.4471698999404907,0.89420086145401,[0. 0. 0. 0. 0. 0. 0. 0. 0.],0.0,-0.244140625,-0.30517578125,[0. 0. 0. 0. 0. 0. 0. 0. 0.],-0.03955078125,0.013671875,1.00390625,[0. 0. 0. 0. 0. 0. 0. 0. 0.]
4.654609680175781,0.015349638648331165,0.01518520899116993,-0.44720345735549927,0.8941716551780701,[0. 0. 0. 0. 0. 0. 0. 0. 0.],-0.3662109375,-0.54931640625,-0.1220703125,[0. 0. 0. 0. 0. 0. 0. 0. 0.],-0.041015625,0.013671875,1.00244140625,[0. 0. 0. 0. 0. 0. 0. 0. 0.]
4.674282550811768,0.015794020146131516,0.015186818316578865,-0.44721660017967224,0.8941572904586792,[0. 0. 0. 0. 0. 0. 0. 0. 0.],-0.06103515625,-0.79345703125,-0.244140625,[0. 0. 0. 0. 0. 0. 0. 0. 0.],-0.04150390625,0.0146484375,1.00439453125,[0. 0. 0. 0. 0. 0. 0. 0. 0.]
4.68916654586792,0.015253526158630848,0.015094432048499584,-0.44725680351257324,0.8941481709480286,[0. 0. 0. 0. 0. 0. 0. 0. 0.],0.1220703125,-1.0986328125,-0.30517578125,[0. 0. 0. 0. 0. 0. 0. 0. 0.],-0.041015625,0.013671875,1.00390625,[0. 0. 0. 0. 0. 0. 0. 0. 0.]
4.713932514190674,0.01595994457602501,0.014665365219116211,-0.44726207852363586,0.894140362739563,[0. 0. 0. 0. 0. 0. 0. 0. 0.],-0.18310546875,-0.67138671875,-0.244140625,[0. 0. 0. 0. 0. 0. 0. 0. 0.],-0.04052734375,0.01513671875,1.00390625,[0. 0. 0. 0. 0. 0. 0. 0. 0.]
4.734491586685181,0.0157033558934927,0.01384782511740923,-0.4472826421260834,0.8941476345062256,[0. 0. 0. 0. 0. 0. 0. 0. 0.],-0.244140625,-0.30517578125,-0.18310546875,[0. 0. 0. 0. 0. 0. 0. 0. 0.],-0.03955078125,0.01513671875,1.00244140625,[0. 0. 0. 0. 0. 0. 0. 0. 0.]
4.754010438919067,0.01509715523570776,0.014479790814220905,-0.4473198652267456,0.8941294550895691,[0. 0. 0. 0. 0. 0. 0. 0. 0.],0.0,-0.244140625,-0.06103515625,[0. 0. 0. 0. 0. 0. 0. 0. 0.],-0.03955078125,0.0146484375,1.00244140625,[0. 0. 0. 0. 0. 0. 0. 0. 0.]
4.769027471542358,0.015279932878911495,0.014439135789871216,-0.44734159111976624,0.8941161036491394,[0. 0. 0. 0. 0. 0. 0. 0. 0.],0.1220703125,-0.67138671875,-0.06103515625,[0. 0. 0. 0. 0. 0. 0. 0. 0.],-0.04052734375,0.01416015625,1.00390625,[0. 0. 0. 0. 0. 0. 0. 0. 0.]
4.793747425079346,0.015474677085876465,0.014901228249073029,-0.44735753536224365,0.8940972089767456,[0. 0. 0. 0. 0. 0. 0. 0. 0.],-0.3662109375,-1.28173828125,-0.30517578125,[0. 0. 0. 0. 0. 0. 0. 0. 0.],-0.04052734375,0.01416015625,1.00537109375,[0. 0. 0. 0. 0. 0. 0. 0. 0.]
4.81439995765686,0.015387611463665962,0.014191979542374611,-0.44738227128982544,0.8940978646278381,[0. 0. 0. 0. 0. 0. 0. 0. 0.],-0.42724609375,-0.8544921875,-0.1220703125,[0. 0. 0. 0. 0. 0. 0. 0. 0.],-0.03955078125,0.0146484375,1.00537109375,[0. 0. 0. 0. 0. 0. 0. 0. 0.]
4.833587646484375,0.015727797523140907,0.014166640117764473,-0.4474024474620819,0.894082248210907,[0. 0. 0. 0. 0. 0. 0. 0. 0.],0.06103515625,0.06103515625,-0.244140625,[0. 0. 0. 0. 0. 0. 0. 0. 0.],-0.03955078125,0.015625,1.00634765625,[0. 0. 0. 0. 0. 0. 0. 0. 0.]
4.854231595993042,0.01518026553094387,0.014378214254975319,-0.44744083285331726,0.8940690755844116,[0. 0. 0. 0. 0. 0. 0. 0. 0.],0.06103515625,-0.30517578125,-0.06103515625,[0. 0. 0. 0. 0. 0. 0. 0. 0.],-0.03955078125,0.01416015625,1.00390625,[0. 0. 0. 0. 0. 0. 0. 0. 0.]
4.873741388320923,0.01539056096225977,0.014738811179995537,-0.4474634528160095,0.8940483331680298,[0. 0. 0. 0. 0. 0. 0. 0. 0.],-0.30517578125,-1.28173828125,-0.244140625,[0. 0. 0. 0. 0. 0. 0. 0. 0.],-0.041015625,0.01416015625,1.00341796875,[0. 0. 0. 0. 0. 0. 0. 0. 0.]
4.894579887390137,0.014860331080853939,0.015461514703929424,-0.4474925100803375,0.8940304517745972,[0. 0. 0. 0. 0. 0. 0. 0. 0.],-0.30517578125,-1.3427734375,-0.244140625,[0. 0. 0. 0. 0. 0. 0. 0. 0.],-0.041015625,0.01318359375,1.0029296875,[0. 0. 0. 0. 0. 0. 0. 0. 0.]
4.914705753326416,0.015543581917881966,0.014219030737876892,-0.4474940598011017,0.8940387964248657,[0. 0. 0. 0. 0. 0. 0. 0. 0.],0.0,-0.244140625,-0.244140625,[0. 0. 0. 0. 0. 0. 0. 0. 0.],-0.03955078125,0.01513671875,1.00341796875,[0. 0. 0. 0. 0. 0. 0. 0. 0.]
4.936144828796387,0.015908723697066307,0.013674463145434856,-0.4475204646587372,0.8940277099609375,[0. 0. 0. 0. 0. 0. 0. 0. 0.],-0.18310546875,-0.42724609375,-0.18310546875,[0. 0. 0. 0. 0. 0. 0. 0. 0.],-0.0390625,0.015625,1.00341796875,[0. 0. 0. 0. 0. 0. 0. 0. 0.]
4.953845262527466,0.0156032619997859,0.014869224280118942,-0.4475622773170471,0.8939929604530334,[0. 0. 0. 0. 0. 0. 0. 0. 0.],-0.30517578125,-0.79345703125,-0.1220703125,[0. 0. 0. 0. 0. 0. 0. 0. 0.],-0.041015625,0.0146484375,1.00439453125,[0. 0. 0. 0. 0. 0. 0. 0. 0.]
4.980128049850464,0.014927494339644909,0.014957585372030735,-0.4476012587547302,0.8939836025238037,[0. 0. 0. 0. 0. 0. 0. 0. 0.],0.06103515625,-1.28173828125,-0.30517578125,[0. 0. 0. 0. 0. 0. 0. 0. 0.],-0.0400390625,0.013671875,1.00341796875,[0. 0. 0. 0. 0. 0. 0. 0. 0.]
4.993772506713867,0.01584824174642563,0.014820518903434277,-0.4476049244403839,0.8939681053161621,[0. 0. 0. 0. 0. 0. 0. 0. 0.],0.06103515625,-0.9765625,-0.244140625,[0. 0. 0. 0. 0. 0. 0. 0. 0.],-0.041015625,0.01513671875,1.0048828125,[0. 0. 0. 0. 0. 0. 0. 0. 0.]
5.0143327713012695,0.015323643572628498,0.01542731374502182,-0.4476240873336792,0.8939574956893921,[0. 0. 0. 0. 0. 0. 0. 0. 0.],-0.06103515625,-0.244140625,0.0,[0. 0. 0. 0. 0. 0. 0. 0. 0.],-0.04150390625,0.01416015625,1.00341796875,[0. 0. 0. 0. 0. 0. 0. 0. 0.]
5.0356903076171875,0.014722038991749287,0.014939537271857262,-0.44766315817832947,0.8939563632011414,[0. 0. 0. 0. 0. 0. 0. 0. 0.],-0.30517578125,-0.18310546875,-0.06103515625,[0. 0. 0. 0. 0. 0. 0. 0. 0.],-0.0400390625,0.013671875,1.0029296875,[0. 0. 0. 0. 0. 0. 0. 0. 0.]
5.0549938678741455,0.0153613006696105,0.014918805100023746,-0.4476724863052368,0.8939412236213684,[0. 0. 0. 0. 0. 0. 0. 0. 0.],0.06103515625,-0.6103515625,-0.06103515625,[0. 0. 0. 0. 0. 0. 0. 0. 0.],-0.04052734375,0.01416015625,1.0029296875,[0. 0. 0. 0. 0. 0. 0. 0. 0.]
5.069180965423584,0.015400080010294914,0.015046615153551102,-0.44769829511642456,0.8939254283905029,[0. 0. 0. 0. 0. 0. 0. 0. 0.],0.18310546875,-0.9765625,-0.30517578125,[0. 0. 0. 0. 0. 0. 0. 0. 0.],-0.041015625,0.01416015625,1.00537109375,[0. 0. 0. 0. 0. 0. 0. 0. 0.]
5.094623327255249,0.01541743054986,0.01477316115051508,-0.44770553708076477,0.8939260840415955,[0. 0. 0. 0. 0. 0. 0. 0. 0.],-0.42724609375,-0.8544921875,-0.18310546875,[0. 0. 0. 0. 0. 0. 0. 0. 0.],-0.0400390625,0.01416015625,1.0048828125,[0. 0. 0. 0. 0. 0. 0. 0. 0.]
5.113994836807251,0.01629364863038063,0.014912407845258713,-0.4477095901966095,0.8939062356948853,[0. 0. 0. 0. 0. 0. 0. 0. 0.],-0.3662109375,-0.8544921875,-0.244140625,[0. 0. 0. 0. 0. 0. 0. 0. 0.],-0.04150390625,0.015625,1.00537109375,[0. 0. 0. 0. 0. 0. 0. 0. 0.]
5.134423017501831,0.015725448727607727,0.015554389916360378,-0.44775649905204773,0.8938819169998169,[0. 0. 0. 0. 0. 0. 0. 0. 0.],0.0,0.06103515625,-0.06103515625,[0. 0. 0. 0. 0. 0. 0. 0. 0.],-0.0419921875,0.0146484375,1.00341796875,[0. 0. 0. 0. 0. 0. 0. 0. 0.]
5.1537322998046875,0.015030637383460999,0.015247799456119537,-0.44779375195503235,0.8938805460929871,[0. 0. 0. 0. 0. 0. 0. 0. 0.],-0.18310546875,-0.18310546875,-0.06103515625,[0. 0. 0. 0. 0. 0. 0. 0. 0.],-0.041015625,0.013671875,1.005859375,[0. 0. 0. 0. 0. 0. 0. 0. 0.]
5.174810171127319,0.015841364860534668,0.013899700716137886,-0.4478010833263397,0.8938848972320557,[0. 0. 0. 0. 0. 0. 0. 0. 0.],-0.18310546875,-1.03759765625,-0.244140625,[0. 0. 0. 0. 0. 0. 0. 0. 0.],-0.0400390625,0.015625,1.005859375,[0. 0. 0. 0. 0. 0. 0. 0. 0.]
5.195362329483032,0.015256019309163094,0.014697321690618992,-0.4478585124015808,0.8938535451889038,[0. 0. 0. 0. 0. 0. 0. 0. 0.],0.06103515625,-1.03759765625,-0.244140625,[0. 0. 0. 0. 0. 0. 0. 0. 0.],-0.0400390625,0.0146484375,1.0029296875,[0. 0. 0. 0. 0. 0. 0. 0. 0.]
5.214112043380737,0.015527977608144283,0.013954286463558674,-0.44786694645881653,0.8938565254211426,[0. 0. 0. 0. 0. 0. 0. 0. 0.],0.0,-0.42724609375,-0.18310546875,[0. 0. 0. 0. 0. 0. 0. 0. 0.],-0.0390625,0.01513671875,1.001953125,[0. 0. 0. 0. 0. 0. 0. 0. 0.]
5.229635715484619,0.015598460100591183,0.013553119264543056,-0.44786709547042847,0.8938614130020142,[0. 0. 0. 0. 0. 0. 0. 0. 0.],-0.1220703125,-0.1220703125,0.0,[0. 0. 0. 0. 0. 0. 0. 0. 0.],-0.03857421875,0.015625,1.00390625,[0. 0. 0. 0. 0. 0. 0. 0. 0.]
5.253995656967163,0.015584643930196762,0.014353437349200249,-0.44790512323379517,0.8938300609588623,[0. 0. 0. 0. 0. 0. 0. 0. 0.],-0.244140625,-0.6103515625,-0.06103515625,[0. 0. 0. 0. 0. 0. 0. 0. 0.],-0.04052734375,0.01513671875,1.00439453125,[0. 0. 0. 0. 0. 0. 0. 0. 0.]
5.27380108833313,0.01594257541000843,0.014945633709430695,-0.44793900847435,0.8937970995903015,[0. 0. 0. 0. 0. 0. 0. 0. 0.],0.1220703125,-1.03759765625,-0.18310546875,[0. 0. 0. 0. 0. 0. 0. 0. 0.],-0.041015625,0.01513671875,1.00537109375,[0. 0. 0. 0. 0. 0. 0. 0. 0.]
5.294373273849487,0.015292572788894176,0.015001323074102402,-0.4479612112045288,0.8937963843345642,[0. 0. 0. 0. 0. 0. 0. 0. 0.],0.1220703125,-0.9765625,-0.30517578125,[0. 0. 0. 0. 0. 0. 0. 0. 0.],-0.04052734375,0.01416015625,1.001953125,[0. 0. 0. 0. 0. 0. 0. 0. 0.]
5.313953399658203,0.015859536826610565,0.014297434128820896,-0.44795894622802734,0.8937991261482239,[0. 0. 0. 0. 0. 0. 0. 0. 0.],-0.42724609375,-0.54931640625,-0.1220703125,[0. 0. 0. 0. 0. 0. 0. 0. 0.],-0.0400390625,0.01513671875,1.0048828125,[0. 0. 0. 0. 0. 0. 0. 0. 0.]
5.333831548690796,0.015476847998797894,0.015877418220043182,-0.44799554347991943,0.8937608599662781,[0. 0. 0. 0. 0. 0. 0. 0. 0.],-0.18310546875,-0.18310546875,0.06103515625,[0. 0. 0. 0. 0. 0. 0. 0. 0.],-0.0419921875,0.013671875,1.0048828125,[0. 0. 0. 0. 0. 0. 0. 0. 0.]
5.3540940284729,0.015467571094632149,0.015323302708566189,-0.44802212715148926,0.8937573432922363,[0. 0. 0. 0. 0. 0. 0. 0. 0.],0.18310546875,-0.48828125,-0.1220703125,[0. 0. 0. 0. 0. 0. 0. 0. 0.],-0.04150390625,0.013671875,1.00341796875,[0. 0. 0. 0. 0. 0. 0. 0. 0.]
5.3690996170043945,0.01591462455689907,0.014607192948460579,-0.4480311870574951,0.8937568664550781,[0. 0. 0. 0. 0. 0. 0. 0. 0.],0.1220703125,-0.9765625,-0.244140625,[0. 0. 0. 0. 0. 0. 0. 0. 0.],-0.04052734375,0.0146484375,1.001953125,[0. 0. 0. 0. 0. 0. 0. 0. 0.]
5.393829107284546,0.015432599000632763,0.015782568603754044,-0.4480607807636261,0.893730640411377,[0. 0. 0. 0. 0. 0. 0. 0. 0.],-0.42724609375,-1.220703125,-0.30517578125,[0. 0. 0. 0. 0. 0. 0. 0. 0.],-0.0419921875,0.01318359375,1.00341796875,[0. 0. 0. 0. 0. 0. 0. 0. 0.]
5.413980960845947,0.015162191353738308,0.014875606633722782,-0.4480833411216736,0.8937395215034485,[0. 0. 0. 0. 0. 0. 0. 0. 0.],-0.244140625,-0.42724609375,-0.06103515625,[0. 0. 0. 0. 0. 0. 0. 0. 0.],-0.041015625,0.01416015625,1.005859375,[0. 0. 0. 0. 0. 0. 0. 0. 0.]
5.433799505233765,0.015202454291284084,0.014085683040320873,-0.44809690117836,0.8937447667121887,[0. 0. 0. 0. 0. 0. 0. 0. 0.],0.06103515625,0.06103515625,0.0,[0. 0. 0. 0. 0. 0. 0. 0. 0.],-0.03955078125,0.0146484375,1.00341796875,[0. 0. 0. 0. 0. 0. 0. 0. 0.]
5.4542622566223145,0.014761129394173622,0.01502112578600645,-0.4481372535228729,0.8937166333198547,[0. 0. 0. 0. 0. 0. 0. 0. 0.],0.0,-0.6103515625,-0.06103515625,[0. 0. 0. 0. 0. 0. 0. 0. 0.],-0.0400390625,0.01318359375,1.00390625,[0. 0. 0. 0. 0. 0. 0. 0. 0.]
5.473886489868164,0.015177016146481037,0.015096097253262997,-0.4481458067893982,0.8937041759490967,[0. 0. 0. 0. 0. 0. 0. 0. 0.],-0.3662109375,-1.40380859375,-0.18310546875,[0. 0. 0. 0. 0. 0. 0. 0. 0.],-0.041015625,0.013671875,1.00439453125,[0. 0. 0. 0. 0. 0. 0. 0. 0.]
5.493741512298584,0.015924807637929916,0.015936700627207756,-0.44815343618392944,0.8936727643013,[0. 0. 0. 0. 0. 0. 0. 0. 0.],0.0,-0.8544921875,-0.244140625,[0. 0. 0. 0. 0. 0. 0. 0. 0.],-0.04248046875,0.01416015625,1.00341796875,[0. 0. 0. 0. 0. 0. 0. 0. 0.]
5.513772010803223,0.015430804342031479,0.015297871083021164,-0.44817352294921875,0.8936825394630432,[0. 0. 0. 0. 0. 0. 0. 0. 0.],-0.06103515625,0.06103515625,-0.06103515625,[0. 0. 0. 0. 0. 0. 0. 0. 0.],-0.04150390625,0.013671875,1.001953125,[0. 0. 0. 0. 0. 0. 0. 0. 0.]
5.533740043640137,0.014981419779360294,0.01441339123994112,-0.44820162653923035,0.8936907649040222,[0. 0. 0. 0. 0. 0. 0. 0. 0.],-0.244140625,-0.18310546875,-0.06103515625,[0. 0. 0. 0. 0. 0. 0. 0. 0.],-0.0390625,0.01416015625,1.00537109375,[0. 0. 0. 0. 0. 0. 0. 0. 0.]
5.555913686752319,0.01515816431492567,0.01506076380610466,-0.4482257068157196,0.8936649560928345,[0. 0. 0. 0. 0. 0. 0. 0. 0.],-0.18310546875,-0.18310546875,-0.1220703125,[0. 0. 0. 0. 0. 0. 0. 0. 0.],-0.041015625,0.013671875,1.00244140625,[0. 0. 0. 0. 0. 0. 0. 0. 0.]
5.5695741176605225,0.014784096740186214,0.015364582650363445,-0.44825780391693115,0.8936499953269958,[0. 0. 0. 0. 0. 0. 0. 0. 0.],-0.06103515625,-0.79345703125,-0.1220703125,[0. 0. 0. 0. 0. 0. 0. 0. 0.],-0.041015625,0.0126953125,1.00341796875,[0. 0. 0. 0. 0. 0. 0. 0. 0.]
5.593833684921265,0.014590291306376457,0.01472562551498413,-0.4482777416706085,0.893653929233551,[0. 0. 0. 0. 0. 0. 0. 0. 0.],0.06103515625,-1.0986328125,-0.244140625,[0. 0. 0. 0. 0. 0. 0. 0. 0.],-0.03955078125,0.01318359375,1.00537109375,[0. 0. 0. 0. 0. 0. 0. 0. 0.]
5.615020275115967,0.01443916279822588,0.014492811635136604,-0.4482983350753784,0.8936499357223511,[0. 0. 0. 0. 0. 0. 0. 0. 0.],-0.30517578125,-0.732421875,-0.244140625,[0. 0. 0. 0. 0. 0. 0. 0. 0.],-0.0390625,0.01318359375,1.00390625,[0. 0. 0. 0. 0. 0. 0. 0. 0.]
5.63374924659729,0.01527972612529993,0.014314885251224041,-0.4483141601085663,0.893630862236023,[0. 0. 0. 0. 0. 0. 0. 0. 0.],-0.1220703125,-0.244140625,0.0,[0. 0. 0. 0. 0. 0. 0. 0. 0.],-0.03955078125,0.01513671875,1.00439453125,[0. 0. 0. 0. 0. 0. 0. 0. 0.]
5.655977249145508,0.015604156069457531,0.014832619577646255,-0.4483523964881897,0.8935976028442383,[0. 0. 0. 0. 0. 0. 0. 0. 0.],0.06103515625,0.1220703125,-0.06103515625,[0. 0. 0. 0. 0. 0. 0. 0. 0.],-0.0400390625,0.01513671875,1.0048828125,[0. 0. 0. 0. 0. 0. 0. 0. 0.]
5.67403507232666,0.015316572971642017,0.015429794788360596,-0.4483877718448639,0.8935747146606445,[0. 0. 0. 0. 0. 0. 0. 0. 0.],0.0,-1.03759765625,-0.30517578125,[0. 0. 0. 0. 0. 0. 0. 0. 0.],-0.04150390625,0.013671875,1.00439453125,[0. 0. 0. 0. 0. 0. 0. 0. 0.]
5.693824768066406,0.015318181365728378,0.014947871677577496,-0.44841206073760986,0.8935706615447998,[0. 0. 0. 0. 0. 0. 0. 0. 0.],-0.30517578125,-1.28173828125,-0.42724609375,[0. 0. 0. 0. 0. 0. 0. 0. 0.],-0.04052734375,0.01416015625,1.0048828125,[0. 0. 0. 0. 0. 0. 0. 0. 0.]
5.713819742202759,0.016352955251932144,0.015608522109687328,-0.4484216868877411,0.8935362696647644,[0. 0. 0. 0. 0. 0. 0. 0. 0.],-0.18310546875,-0.48828125,-0.1220703125,[0. 0. 0. 0. 0. 0. 0. 0. 0.],-0.04248046875,0.01513671875,1.00390625,[0. 0. 0. 0. 0. 0. 0. 0. 0.]
5.73390531539917,0.01573784463107586,0.015553471632301807,-0.4484695792198181,0.8935242295265198,[0. 0. 0. 0. 0. 0. 0. 0. 0.],0.1220703125,0.1220703125,0.0,[0. 0. 0. 0. 0. 0. 0. 0. 0.],-0.0419921875,0.01416015625,1.001953125,[0. 0. 0. 0. 0. 0. 0. 0. 0.]
5.753726243972778,0.015400031581521034,0.01429244689643383,-0.4484928548336029,0.893539547920227,[0. 0. 0. 0. 0. 0. 0. 0. 0.],-0.1220703125,-0.732421875,-0.1220703125,[0. 0. 0. 0. 0. 0. 0. 0. 0.],-0.03955078125,0.0146484375,1.00439453125,[0. 0. 0. 0. 0. 0. 0. 0. 0.]
5.769222021102905,0.016070464625954628,0.014650804921984673,-0.448518306016922,0.8935090899467468,[0. 0. 0. 0. 0. 0. 0. 0. 0.],-0.244140625,-1.28173828125,-0.244140625,[0. 0. 0. 0. 0. 0. 0. 0. 0.],-0.04052734375,0.015625,1.00390625,[0. 0. 0. 0. 0. 0. 0. 0. 0.]
5.7938714027404785,0.015485669486224651,0.014077153988182545,-0.44855546951293945,0.8935099840164185,[0. 0. 0. 0. 0. 0. 0. 0. 0.],0.244140625,-0.91552734375,-0.3662109375,[0. 0. 0. 0. 0. 0. 0. 0. 0.],-0.0400390625,0.0146484375,1.00390625,[0. 0. 0. 0. 0. 0. 0. 0. 0.]
5.813642978668213,0.015514921396970749,0.014151452109217644,-0.4485686421394348,0.8935016989707947,[0. 0. 0. 0. 0. 0. 0. 0. 0.],0.0,-0.1220703125,0.06103515625,[0. 0. 0. 0. 0. 0. 0. 0. 0.],-0.03955078125,0.01513671875,1.00439453125,[0. 0. 0. 0. 0. 0. 0. 0. 0.]
5.833913803100586,0.015638567507267,0.014928890392184258,-0.4485992193222046,0.8934715986251831,[0. 0. 0. 0. 0. 0. 0. 0. 0.],-0.3662109375,-0.3662109375,-0.1220703125,[0. 0. 0. 0. 0. 0. 0. 0. 0.],-0.041015625,0.0146484375,1.0029296875,[0. 0. 0. 0. 0. 0. 0. 0. 0.]
5.853935241699219,0.01566362753510475,0.014400336891412735,-0.44862404465675354,0.893467366695404,[0. 0. 0. 0. 0. 0. 0. 0. 0.],0.0,-0.91552734375,0.0,[0. 0. 0. 0. 0. 0. 0. 0. 0.],-0.0400390625,0.01513671875,1.00390625,[0. 0. 0. 0. 0. 0. 0. 0. 0.]
5.874748945236206,0.015411186963319778,0.014258475042879581,-0.44865286350250244,0.8934595584869385,[0. 0. 0. 0. 0. 0. 0. 0. 0.],0.06103515625,-0.9765625,-0.18310546875,[0. 0. 0. 0. 0. 0. 0. 0. 0.],-0.03955078125,0.0146484375,1.00244140625,[0. 0. 0. 0. 0. 0. 0. 0. 0.]
5.894196271896362,0.015030339360237122,0.014579905197024345,-0.4486856460571289,0.8934443593025208,[0. 0. 0. 0. 0. 0. 0. 0. 0.],0.06103515625,-0.6103515625,-0.1220703125,[0. 0. 0. 0. 0. 0. 0. 0. 0.],-0.0400390625,0.01416015625,1.0048828125,[0. 0. 0. 0. 0. 0. 0. 0. 0.]
5.909482717514038,0.015340588986873627,0.013984558172523975,-0.4486994445323944,0.8934416770935059,[0. 0. 0. 0. 0. 0. 0. 0. 0.],-0.3662109375,-0.30517578125,-0.1220703125,[0. 0. 0. 0. 0. 0. 0. 0. 0.],-0.0390625,0.01513671875,1.00390625,[0. 0. 0. 0. 0. 0. 0. 0. 0.]
5.933987379074097,0.015470420941710472,0.015054101124405861,-0.44873443245887756,0.893404483795166,[0. 0. 0. 0. 0. 0. 0. 0. 0.],-0.06103515625,-0.42724609375,0.0,[0. 0. 0. 0. 0. 0. 0. 0. 0.],-0.041015625,0.01416015625,1.0029296875,[0. 0. 0. 0. 0. 0. 0. 0. 0.]
5.953983545303345,0.014352330006659031,0.015510286204516888,-0.4487757682800293,0.8933945298194885,[0. 0. 0. 0. 0. 0. 0. 0. 0.],0.1220703125,-0.732421875,0.0,[0. 0. 0. 0. 0. 0. 0. 0. 0.],-0.041015625,0.01171875,1.00439453125,[0. 0. 0. 0. 0. 0. 0. 0. 0.]
5.974631071090698,0.014829722233116627,0.014991612173616886,-0.4487704932689667,0.8933982849121094,[0. 0. 0. 0. 0. 0. 0. 0. 0.],-0.06103515625,-1.15966796875,-0.244140625,[0. 0. 0. 0. 0. 0. 0. 0. 0.],-0.03955078125,0.01318359375,1.0048828125,[0. 0. 0. 0. 0. 0. 0. 0. 0.]
5.994712829589844,0.014953069388866425,0.014210396446287632,-0.448786199092865,0.8934010863304138,[0. 0. 0. 0. 0. 0. 0. 0. 0.],-0.42724609375,-0.732421875,-0.3662109375,[0. 0. 0. 0. 0. 0. 0. 0. 0.],-0.0390625,0.0146484375,1.0068359375,[0. 0. 0. 0. 0. 0. 0. 0. 0.]
6.013915300369263,0.015523052774369717,0.014294154942035675,-0.44880303740501404,0.893381655216217,[0. 0. 0. 0. 0. 0. 0. 0. 0.],0.0,-0.06103515625,-0.06103515625,[0. 0. 0. 0. 0. 0. 0. 0. 0.],-0.0400390625,0.01513671875,1.0048828125,[0. 0. 0. 0. 0. 0. 0. 0. 0.]
6.03464150428772,0.01512061059474945,0.014459768310189247,-0.44884195923805237,0.8933662176132202,[0. 0. 0. 0. 0. 0. 0. 0. 0.],-0.06103515625,0.06103515625,-0.1220703125,[0. 0. 0. 0. 0. 0. 0. 0. 0.],-0.03955078125,0.01416015625,1.00439453125,[0. 0. 0. 0. 0. 0. 0. 0. 0.]
6.054059028625488,0.01517947856336832,0.014531590975821018,-0.4488586485385895,0.893355667591095,[0. 0. 0. 0. 0. 0. 0. 0. 0.],-0.30517578125,-0.67138671875,-0.06103515625,[0. 0. 0. 0. 0. 0. 0. 0. 0.],-0.03955078125,0.01416015625,1.00439453125,[0. 0. 0. 0. 0. 0. 0. 0. 0.]
6.073697090148926,0.01516982913017273,0.01523406058549881,-0.4489000141620636,0.8933233022689819,[0. 0. 0. 0. 0. 0. 0. 0. 0.],0.0,-1.28173828125,-0.18310546875,[0. 0. 0. 0. 0. 0. 0. 0. 0.],-0.041015625,0.013671875,1.00439453125,[0. 0. 0. 0. 0. 0. 0. 0. 0.]
6.093657493591309,0.01481505949050188,0.014644941315054893,-0.44892603158950806,0.8933260440826416,[0. 0. 0. 0. 0. 0. 0. 0. 0.],0.1220703125,-0.732421875,-0.18310546875,[0. 0. 0. 0. 0. 0. 0. 0. 0.],-0.0400390625,0.013671875,1.00341796875,[0. 0. 0. 0. 0. 0. 0. 0. 0.]
6.113861083984375,0.015208471566438675,0.014919339679181576,-0.4489400386810303,0.8933079242706299,[0. 0. 0. 0. 0. 0. 0. 0. 0.],-0.18310546875,-0.244140625,-0.1220703125,[0. 0. 0. 0. 0. 0. 0. 0. 0.],-0.04052734375,0.013671875,1.0048828125,[0. 0. 0. 0. 0. 0. 0. 0. 0.]
6.133703231811523,0.015712393447756767,0.014146114699542522,-0.4489557147026062,0.8933039307594299,[0. 0. 0. 0. 0. 0. 0. 0. 0.],-0.42724609375,-0.3662109375,0.0,[0. 0. 0. 0. 0. 0. 0. 0. 0.],-0.03955078125,0.015625,1.00439453125,[0. 0. 0. 0. 0. 0. 0. 0. 0.]
6.154510498046875,0.015277450904250145,0.013972561806440353,-0.44898751378059387,0.8932982087135315,[0. 0. 0. 0. 0. 0. 0. 0. 0.],0.06103515625,-0.67138671875,-0.06103515625,[0. 0. 0. 0. 0. 0. 0. 0. 0.],-0.0390625,0.0146484375,1.005859375,[0. 0. 0. 0. 0. 0. 0. 0. 0.]
6.173974514007568,0.01496963296085596,0.014557166956365108,-0.44902515411376953,0.8932751417160034,[0. 0. 0. 0. 0. 0. 0. 0. 0.],0.244140625,-0.91552734375,-0.18310546875,[0. 0. 0. 0. 0. 0. 0. 0. 0.],-0.03955078125,0.013671875,1.00390625,[0. 0. 0. 0. 0. 0. 0. 0. 0.]
6.193872928619385,0.01574464701116085,0.014658565632998943,-0.44903191924095154,0.8932567238807678,[0. 0. 0. 0. 0. 0. 0. 0. 0.],-0.18310546875,-0.8544921875,-0.18310546875,[0. 0. 0. 0. 0. 0. 0. 0. 0.],-0.04052734375,0.01513671875,1.0029296875,[0. 0. 0. 0. 0. 0. 0. 0. 0.]
6.213733434677124,0.015817655250430107,0.013158586807549,-0.4490370452404022,0.8932762145996094,[0. 0. 0. 0. 0. 0. 0. 0. 0.],-0.42724609375,-0.42724609375,-0.06103515625,[0. 0. 0. 0. 0. 0. 0. 0. 0.],-0.0380859375,0.0166015625,1.00439453125,[0. 0. 0. 0. 0. 0. 0. 0. 0.]
6.234229803085327,0.015640169382095337,0.013814818114042282,-0.44907522201538086,0.8932502269744873,[0. 0. 0. 0. 0. 0. 0. 0. 0.],0.0,-0.1220703125,0.06103515625,[0. 0. 0. 0. 0. 0. 0. 0. 0.],-0.0390625,0.01513671875,1.00537109375,[0. 0. 0. 0. 0. 0. 0. 0. 0.]
6.253729581832886,0.015217226929962635,0.01527012325823307,-0.44912073016166687,0.8932109475135803,[0. 0. 0. 0. 0. 0. 0. 0. 0.],0.18310546875,-0.79345703125,-0.1220703125,[0. 0. 0. 0. 0. 0. 0. 0. 0.],-0.041015625,0.013671875,1.0048828125,[0. 0. 0. 0. 0. 0. 0. 0. 0.]
6.270097494125366,0.01596760004758835,0.014756126329302788,-0.44911855459213257,0.8932076096534729,[0. 0. 0. 0. 0. 0. 0. 0. 0.],-0.244140625,-1.3427734375,-0.244140625,[0. 0. 0. 0. 0. 0. 0. 0. 0.],-0.041015625,0.01513671875,1.00439453125,[0. 0. 0. 0. 0. 0. 0. 0. 0.]
6.293723106384277,0.01528086606413126,0.014086584560573101,-0.4491361975669861,0.8932216763496399,[0. 0. 0. 0. 0. 0. 0. 0. 0.],-0.30517578125,-0.8544921875,-0.1220703125,[0. 0. 0. 0. 0. 0. 0. 0. 0.],-0.0390625,0.01513671875,1.00390625,[0. 0. 0. 0. 0. 0. 0. 0. 0.]
6.31483268737793,0.016758203506469727,0.014902452006936073,-0.4491286873817444,0.8931856155395508,[0. 0. 0. 0. 0. 0. 0. 0. 0.],0.0,0.0,0.06103515625,[0. 0. 0. 0. 0. 0. 0. 0. 0.],-0.04150390625,0.0166015625,1.00390625,[0. 0. 0. 0. 0. 0. 0. 0. 0.]
6.333829402923584,0.016921736299991608,0.015119923278689384,-0.4491555988788605,0.8931653499603271,[0. 0. 0. 0. 0. 0. 0. 0. 0.],0.0,-0.18310546875,-0.06103515625,[0. 0. 0. 0. 0. 0. 0. 0. 0.],-0.0419921875,0.01611328125,1.00390625,[0. 0. 0. 0. 0. 0. 0. 0. 0.]
6.354014873504639,0.015017827972769737,0.01495909783989191,-0.4492126405239105,0.8931733965873718,[0. 0. 0. 0. 0. 0. 0. 0. 0.],-0.30517578125,-1.0986328125,-0.18310546875,[0. 0. 0. 0. 0. 0. 0. 0. 0.],-0.04052734375,0.013671875,1.00390625,[0. 0. 0. 0. 0. 0. 0. 0. 0.]
6.373969316482544,0.015498021617531776,0.013956723734736443,-0.44921499490737915,0.8931803107261658,[0. 0. 0. 0. 0. 0. 0. 0. 0.],-0.18310546875,-1.3427734375,-0.18310546875,[0. 0. 0. 0. 0. 0. 0. 0. 0.],-0.0390625,0.01513671875,1.00390625,[0. 0. 0. 0. 0. 0. 0. 0. 0.]
6.394537925720215,0.01543376874178648,0.013906862586736679,-0.4492338001728058,0.8931727409362793,[0. 0. 0. 0. 0. 0. 0. 0. 0.],0.1220703125,-0.3662109375,-0.06103515625,[0. 0. 0. 0. 0. 0. 0. 0. 0.],-0.03857421875,0.01513671875,1.005859375,[0. 0. 0. 0. 0. 0. 0. 0. 0.]
6.409967660903931,0.01608998514711857,0.01422158908098936,-0.44924190640449524,0.893152117729187,[0. 0. 0. 0. 0. 0. 0. 0. 0.],0.0,0.0,-0.06103515625,[0. 0. 0. 0. 0. 0. 0. 0. 0.],-0.04052734375,0.0166015625,1.00390625,[0. 0. 0. 0. 0. 0. 0. 0. 0.]
6.433879137039185,0.015508187003433704,0.014687065966427326,-0.44928404688835144,0.8931336402893066,[0. 0. 0. 0. 0. 0. 0. 0. 0.],-0.3662109375,-0.732421875,-0.06103515625,[0. 0. 0. 0. 0. 0. 0. 0. 0.],-0.04052734375,0.0146484375,1.00537109375,[0. 0. 0. 0. 0. 0. 0. 0. 0.]
6.449616432189941,0.0154105881229043,0.01532740332186222,-0.44931721687316895,0.8931080102920532,[0. 0. 0. 0. 0. 0. 0. 0. 0.],0.0,-1.0986328125,-0.3662109375,[0. 0. 0. 0. 0. 0. 0. 0. 0.],-0.04150390625,0.01416015625,1.005859375,[0. 0. 0. 0. 0. 0. 0. 0. 0.]
6.4737091064453125,0.015360735356807709,0.014556118287146091,-0.44933822751045227,0.8931110501289368,[0. 0. 0. 0. 0. 0. 0. 0. 0.],0.1220703125,-0.8544921875,-0.30517578125,[0. 0. 0. 0. 0. 0. 0. 0. 0.],-0.04052734375,0.0146484375,1.00439453125,[0. 0. 0. 0. 0. 0. 0. 0. 0.]
6.493912220001221,0.016378128901124,0.014707415364682674,-0.4493432343006134,0.8930879831314087,[0. 0. 0. 0. 0. 0. 0. 0. 0.],-0.3662109375,-1.220703125,-0.244140625,[0. 0. 0. 0. 0. 0. 0. 0. 0.],-0.041015625,0.01611328125,1.00537109375,[0. 0. 0. 0. 0. 0. 0. 0. 0.]
6.511133909225464,0.015285249799489975,0.013767652213573456,-0.44938164949417114,0.8931030631065369,[0. 0. 0. 0. 0. 0. 0. 0. 0.],-0.244140625,-1.0986328125,-0.244140625,[0. 0. 0. 0. 0. 0. 0. 0. 0.],-0.03857421875,0.01513671875,1.001953125,[0. 0. 0. 0. 0. 0. 0. 0. 0.]
6.534167766571045,0.015208751894533634,0.014548339881002903,-0.4494040012359619,0.8930807709693909,[0. 0. 0. 0. 0. 0. 0. 0. 0.],0.1220703125,0.1220703125,0.0,[0. 0. 0. 0. 0. 0. 0. 0. 0.],-0.0390625,0.01416015625,1.001953125,[0. 0. 0. 0. 0. 0. 0. 0. 0.]
6.553704500198364,0.014908287674188614,0.015412600710988045,-0.44944092631340027,0.8930526375770569,[0. 0. 0. 0. 0. 0. 0. 0. 0.],0.06103515625,-0.54931640625,-0.06103515625,[0. 0. 0. 0. 0. 0. 0. 0. 0.],-0.04052734375,0.01318359375,1.00390625,[0. 0. 0. 0. 0. 0. 0. 0. 0.]
6.5690696239471436,0.015467589721083641,0.014673401601612568,-0.4494505822658539,0.8930507898330688,[0. 0. 0. 0. 0. 0. 0. 0. 0.],-0.30517578125,-1.3427734375,-0.244140625,[0. 0. 0. 0. 0. 0. 0. 0. 0.],-0.0400390625,0.0146484375,1.0048828125,[0. 0. 0. 0. 0. 0. 0. 0. 0.]
6.593870639801025,0.015361705794930458,0.014048944227397442,-0.44946178793907166,0.8930569887161255,[0. 0. 0. 0. 0. 0. 0. 0. 0.],-0.244140625,-0.8544921875,-0.244140625,[0. 0. 0. 0. 0. 0. 0. 0. 0.],-0.03955078125,0.01513671875,1.001953125,[0. 0. 0. 0. 0. 0. 0. 0. 0.]
6.613846778869629,0.014791160821914673,0.014684866182506084,-0.4494927227497101,0.8930408358573914,[0. 0. 0. 0. 0. 0. 0. 0. 0.],-0.06103515625,0.0,-0.06103515625,[0. 0. 0. 0. 0. 0. 0. 0. 0.],-0.03955078125,0.013671875,1.0029296875,[0. 0. 0. 0. 0. 0. 0. 0. 0.]
6.634111404418945,0.014953713864088058,0.01555594801902771,-0.4495232403278351,0.8930080533027649,[0. 0. 0. 0. 0. 0. 0. 0. 0.],-0.1220703125,-0.18310546875,0.06103515625,[0. 0. 0. 0. 0. 0. 0. 0. 0.],-0.04150390625,0.01318359375,1.00439453125,[0. 0. 0. 0. 0. 0. 0. 0. 0.]
6.65395450592041,0.014994008466601372,0.014235854148864746,-0.44955161213874817,0.8930150866508484,[0. 0. 0. 0. 0. 0. 0. 0. 0.],-0.244140625,-1.03759765625,-0.18310546875,[0. 0. 0. 0. 0. 0. 0. 0. 0.],-0.03955078125,0.013671875,1.00341796875,[0. 0. 0. 0. 0. 0. 0. 0. 0.]
6.674110651016235,0.015432645566761494,0.014400715939700603,-0.4495733678340912,0.8929939866065979,[0. 0. 0. 0. 0. 0. 0. 0. 0.],-0.06103515625,-1.15966796875,-0.30517578125,[0. 0. 0. 0. 0. 0. 0. 0. 0.],-0.0400390625,0.0146484375,1.00390625,[0. 0. 0. 0. 0. 0. 0. 0. 0.]
6.694594383239746,0.01605326682329178,0.014718072488904,-0.44959115982055664,0.892969012260437,[0. 0. 0. 0. 0. 0. 0. 0. 0.],0.06103515625,-0.54931640625,-0.18310546875,[0. 0. 0. 0. 0. 0. 0. 0. 0.],-0.04150390625,0.01611328125,1.00439453125,[0. 0. 0. 0. 0. 0. 0. 0. 0.]
6.713923454284668,0.016268083825707436,0.01541187521070242,-0.44960248470306396,0.8929476141929626,[0. 0. 0. 0. 0. 0. 0. 0. 0.],-0.244140625,-0.18310546875,0.06103515625,[0. 0. 0. 0. 0. 0. 0. 0. 0.],-0.04150390625,0.01513671875,1.00439453125,[0. 0. 0. 0. 0. 0. 0. 0. 0.]
6.734612941741943,0.015891915187239647,0.014452111907303333,-0.44961774349212646,0.8929627537727356,[0. 0. 0. 0. 0. 0. 0. 0. 0.],-0.30517578125,-0.48828125,0.0,[0. 0. 0. 0. 0. 0. 0. 0. 0.],-0.041015625,0.01513671875,1.00439453125,[0. 0. 0. 0. 0. 0. 0. 0. 0.]
6.753858804702759,0.015316259115934372,0.015300454571843147,-0.4496634602546692,0.8929356336593628,[0. 0. 0. 0. 0. 0. 0. 0. 0.],0.244140625,-0.91552734375,-0.18310546875,[0. 0. 0. 0. 0. 0. 0. 0. 0.],-0.041015625,0.01416015625,1.00537109375,[0. 0. 0. 0. 0. 0. 0. 0. 0.]
6.774270057678223,0.014866802841424942,0.014510317705571651,-0.4496896266937256,0.8929433822631836,[0. 0. 0. 0. 0. 0. 0. 0. 0.],-0.06103515625,-1.0986328125,-0.244140625,[0. 0. 0. 0. 0. 0. 0. 0. 0.],-0.03955078125,0.013671875,1.00341796875,[0. 0. 0. 0. 0. 0. 0. 0. 0.]
6.790363788604736,0.015529747121036053,0.01459178701043129,-0.4496893882751465,0.892930805683136,[0. 0. 0. 0. 0. 0. 0. 0. 0.],-0.244140625,-0.67138671875,-0.244140625,[0. 0. 0. 0. 0. 0. 0. 0. 0.],-0.0400390625,0.0146484375,1.0048828125,[0. 0. 0. 0. 0. 0. 0. 0. 0.]
6.8107030391693115,0.015424292534589767,0.015191929414868355,-0.4497242271900177,0.892905056476593,[0. 0. 0. 0. 0. 0. 0. 0. 0.],-0.244140625,-0.30517578125,0.0,[0. 0. 0. 0. 0. 0. 0. 0. 0.],-0.041015625,0.01416015625,1.0029296875,[0. 0. 0. 0. 0. 0. 0. 0. 0.]
6.834118366241455,0.015567610040307045,0.014233066700398922,-0.44974708557128906,0.8929067850112915,[0. 0. 0. 0. 0. 0. 0. 0. 0.],0.1220703125,-0.244140625,0.0,[0. 0. 0. 0. 0. 0. 0. 0. 0.],-0.03955078125,0.0146484375,1.00390625,[0. 0. 0. 0. 0. 0. 0. 0. 0.]
6.849074363708496,0.015337670221924782,0.014774712733924389,-0.44979557394981384,0.8928776383399963,[0. 0. 0. 0. 0. 0. 0. 0. 0.],0.1220703125,-0.91552734375,-0.18310546875,[0. 0. 0. 0. 0. 0. 0. 0. 0.],-0.04052734375,0.01416015625,1.005859375,[0. 0. 0. 0. 0. 0. 0. 0. 0.]
6.86944842338562,0.015520920045673847,0.015118272043764591,-0.4498175382614136,0.8928576111793518,[0. 0. 0. 0. 0. 0. 0. 0. 0.],-0.3662109375,-1.3427734375,-0.30517578125,[0. 0. 0. 0. 0. 0. 0. 0. 0.],-0.041015625,0.01416015625,1.0048828125,[0. 0. 0. 0. 0. 0. 0. 0. 0.]
6.894222736358643,0.015967676416039467,0.014349167235195637,-0.44982460141181946,0.8928588628768921,[0. 0. 0. 0. 0. 0. 0. 0. 0.],-0.30517578125,-0.54931640625,-0.1220703125,[0. 0. 0. 0. 0. 0. 0. 0. 0.],-0.0400390625,0.01513671875,1.00439453125,[0. 0. 0. 0. 0. 0. 0. 0. 0.]
6.9137585163116455,0.015205468982458115,0.014733083546161652,-0.44986262917518616,0.8928467035293579,[0. 0. 0. 0. 0. 0. 0. 0. 0.],0.06103515625,-0.06103515625,0.0,[0. 0. 0. 0. 0. 0. 0. 0. 0.],-0.0400390625,0.013671875,1.00439453125,[0. 0. 0. 0. 0. 0. 0. 0. 0.]
6.936056613922119,0.014121834188699722,0.014747710898518562,-0.44990208745002747,0.8928444981575012,[0. 0. 0. 0. 0. 0. 0. 0. 0.],-0.1220703125,-0.3662109375,0.06103515625,[0. 0. 0. 0. 0. 0. 0. 0. 0.],-0.03955078125,0.0126953125,1.00634765625,[0. 0. 0. 0. 0. 0. 0. 0. 0.]
6.9538938999176025,0.014861652627587318,0.015216218307614326,-0.44990622997283936,0.8928224444389343,[0. 0. 0. 0. 0. 0. 0. 0. 0.],-0.30517578125,-0.732421875,-0.06103515625,[0. 0. 0. 0. 0. 0. 0. 0. 0.],-0.04052734375,0.0126953125,1.0029296875,[0. 0. 0. 0. 0. 0. 0. 0. 0.]
6.976141929626465,0.015259576961398125,0.015195278450846672,-0.4499351382255554,0.8928016424179077,[0. 0. 0. 0. 0. 0. 0. 0. 0.],0.06103515625,-0.48828125,0.0,[0. 0. 0. 0. 0. 0. 0. 0. 0.],-0.041015625,0.01416015625,1.0048828125,[0. 0. 0. 0. 0. 0. 0. 0. 0.]
6.99396276473999,0.015402212738990784,0.014727883972227573,-0.4499463438987732,0.8928014039993286,[0. 0. 0. 0. 0. 0. 0. 0. 0.],0.0,-0.732421875,-0.18310546875,[0. 0. 0. 0. 0. 0. 0. 0. 0.],-0.04052734375,0.01416015625,1.00341796875,[0. 0. 0. 0. 0. 0. 0. 0. 0.]
7.014070510864258,0.01594790257513523,0.015220585279166698,-0.4499581754207611,0.8927775621414185,[0. 0. 0. 0. 0. 0. 0. 0. 0.],-0.30517578125,-0.48828125,-0.06103515625,[0. 0. 0. 0. 0. 0. 0. 0. 0.],-0.04150390625,0.0146484375,1.001953125,[0. 0. 0. 0. 0. 0. 0. 0. 0.]
7.033893346786499,0.015356969088315964,0.013642209582030773,-0.4499898850917816,0.8927973508834839,[0. 0. 0. 0. 0. 0. 0. 0. 0.],-0.18310546875,-0.18310546875,-0.244140625,[0. 0. 0. 0. 0. 0. 0. 0. 0.],-0.03857421875,0.01513671875,1.00390625,[0. 0. 0. 0. 0. 0. 0. 0. 0.]
7.0542120933532715,0.015348616987466812,0.01477764081209898,-0.4500429332256317,0.8927527070045471,[0. 0. 0. 0. 0. 0. 0. 0. 0.],0.1220703125,-0.67138671875,-0.18310546875,[0. 0. 0. 0. 0. 0. 0. 0. 0.],-0.04052734375,0.01416015625,1.0048828125,[0. 0. 0. 0. 0. 0. 0. 0. 0.]
7.076299428939819,0.015059386380016804,0.014085604809224606,-0.45007145404815674,0.8927544355392456,[0. 0. 0. 0. 0. 0. 0. 0. 0.],-0.06103515625,-0.79345703125,-0.18310546875,[0. 0. 0. 0. 0. 0. 0. 0. 0.],-0.03955078125,0.0146484375,1.00439453125,[0. 0. 0. 0. 0. 0. 0. 0. 0.]
7.093790531158447,0.015431590378284454,0.01398523524403572,-0.45006972551345825,0.8927505612373352,[0. 0. 0. 0. 0. 0. 0. 0. 0.],-0.48828125,-0.9765625,-0.18310546875,[0. 0. 0. 0. 0. 0. 0. 0. 0.],-0.0390625,0.01513671875,1.00146484375,[0. 0. 0. 0. 0. 0. 0. 0. 0.]
7.113785982131958,0.015565329231321812,0.013673551380634308,-0.45007967948913574,0.8927479982376099,[0. 0. 0. 0. 0. 0. 0. 0. 0.],-0.1220703125,-0.244140625,-0.06103515625,[0. 0. 0. 0. 0. 0. 0. 0. 0.],-0.0390625,0.015625,1.0048828125,[0. 0. 0. 0. 0. 0. 0. 0. 0.]
7.134066820144653,0.015402550809085369,0.014262988232076168,-0.45009946823120117,0.8927316665649414,[0. 0. 0. 0. 0. 0. 0. 0. 0.],0.244140625,-0.244140625,0.06103515625,[0. 0. 0. 0. 0. 0. 0. 0. 0.],-0.03955078125,0.01513671875,1.00390625,[0. 0. 0. 0. 0. 0. 0. 0. 0.]
7.153732061386108,0.01510778907686472,0.014136343263089657,-0.45013153553009033,0.892722487449646,[0. 0. 0. 0. 0. 0. 0. 0. 0.],-0.18310546875,-0.91552734375,-0.244140625,[0. 0. 0. 0. 0. 0. 0. 0. 0.],-0.03955078125,0.01416015625,1.00390625,[0. 0. 0. 0. 0. 0. 0. 0. 0.]
7.177847385406494,0.015176085755228996,0.014755615033209324,-0.45017027854919434,0.8926918506622314,[0. 0. 0. 0. 0. 0. 0. 0. 0.],-0.18310546875,-1.15966796875,-0.18310546875,[0. 0. 0. 0. 0. 0. 0. 0. 0.],-0.04052734375,0.0146484375,1.00341796875,[0. 0. 0. 0. 0. 0. 0. 0. 0.]
7.193840503692627,0.015081244520843029,0.013663461431860924,-0.4501786231994629,0.8927066922187805,[0. 0. 0. 0. 0. 0. 0. 0. 0.],0.0,-0.6103515625,-0.18310546875,[0. 0. 0. 0. 0. 0. 0. 0. 0.],-0.0380859375,0.0146484375,1.00390625,[0. 0. 0. 0. 0. 0. 0. 0. 0.]
7.2138566970825195,0.01505593303591013,0.013615649193525314,-0.45019009709358215,0.8927019834518433,[0. 0. 0. 0. 0. 0. 0. 0. 0.],0.1220703125,0.1220703125,-0.1220703125,[0. 0. 0. 0. 0. 0. 0. 0. 0.],-0.03857421875,0.01513671875,1.00732421875,[0. 0. 0. 0. 0. 0. 0. 0. 0.]
7.234085321426392,0.015906229615211487,0.014920739457011223,-0.4502103328704834,0.8926562070846558,[0. 0. 0. 0. 0. 0. 0. 0. 0.],-0.244140625,-0.48828125,-0.06103515625,[0. 0. 0. 0. 0. 0. 0. 0. 0.],-0.04150390625,0.01513671875,1.00439453125,[0. 0. 0. 0. 0. 0. 0. 0. 0.]
7.254023313522339,0.015868600457906723,0.014511710032820702,-0.450246125459671,0.8926455974578857,[0. 0. 0. 0. 0. 0. 0. 0. 0.],-0.30517578125,-1.3427734375,-0.244140625,[0. 0. 0. 0. 0. 0. 0. 0. 0.],-0.04052734375,0.015625,1.0048828125,[0. 0. 0. 0. 0. 0. 0. 0. 0.]
7.2740983963012695,0.0157904252409935,0.014565668068826199,-0.4502633512020111,0.8926374316215515,[0. 0. 0. 0. 0. 0. 0. 0. 0.],0.0,-0.8544921875,-0.244140625,[0. 0. 0. 0. 0. 0. 0. 0. 0.],-0.04052734375,0.01513671875,1.0048828125,[0. 0. 0. 0. 0. 0. 0. 0. 0.]
7.293726444244385,0.015251945704221725,0.014788505621254444,-0.45028918981552124,0.8926300406455994,[0. 0. 0. 0. 0. 0. 0. 0. 0.],-0.06103515625,-0.30517578125,-0.18310546875,[0. 0. 0. 0. 0. 0. 0. 0. 0.],-0.04052734375,0.01416015625,1.00390625,[0. 0. 0. 0. 0. 0. 0. 0. 0.]
7.313743591308594,0.01517393533140421,0.014676302671432495,-0.45030009746551514,0.8926276564598083,[0. 0. 0. 0. 0. 0. 0. 0. 0.],-0.3662109375,-0.30517578125,0.0,[0. 0. 0. 0. 0. 0. 0. 0. 0.],-0.03955078125,0.0146484375,1.00244140625,[0. 0. 0. 0. 0. 0. 0. 0. 0.]
7.334918975830078,0.015375956892967224,0.01470088679343462,-0.4503299593925476,0.8926088213920593,[0. 0. 0. 0. 0. 0. 0. 0. 0.],-0.244140625,-0.732421875,-0.06103515625,[0. 0. 0. 0. 0. 0. 0. 0. 0.],-0.0400390625,0.0146484375,1.0048828125,[0. 0. 0. 0. 0. 0. 0. 0. 0.]
7.353716850280762,0.015210982412099838,0.01460416242480278,-0.4503576159477234,0.8925992250442505,[0. 0. 0. 0. 0. 0. 0. 0. 0.],0.244140625,-0.9765625,-0.244140625,[0. 0. 0. 0. 0. 0. 0. 0. 0.],-0.03955078125,0.013671875,1.00439453125,[0. 0. 0. 0. 0. 0. 0. 0. 0.]
7.369539260864258,0.015383714810013771,0.014459311030805111,-0.4503689408302307,0.8925929665565491,[0. 0. 0. 0. 0. 0. 0. 0. 0.],-0.06103515625,-0.8544921875,-0.18310546875,[0. 0. 0. 0. 0. 0. 0. 0. 0.],-0.04052734375,0.0146484375,1.0029296875,[0. 0. 0. 0. 0. 0. 0. 0. 0.]
7.3941662311553955,0.015994258224964142,0.014480559155344963,-0.4503776431083679,0.8925774097442627,[0. 0. 0. 0. 0. 0. 0. 0. 0.],-0.6103515625,-0.54931640625,0.0,[0. 0. 0. 0. 0. 0. 0. 0. 0.],-0.04052734375,0.015625,1.00341796875,[0. 0. 0. 0. 0. 0. 0. 0. 0.]
7.414490461349487,0.015995554625988007,0.014479451812803745,-0.4503999352455139,0.8925662040710449,[0. 0. 0. 0. 0. 0. 0. 0. 0.],-0.1220703125,-0.30517578125,-0.1220703125,[0. 0. 0. 0. 0. 0. 0. 0. 0.],-0.0400390625,0.01611328125,1.00439453125,[0. 0. 0. 0. 0. 0. 0. 0. 0.]
7.434072971343994,0.01646243780851364,0.014565138146281242,-0.4504151940345764,0.8925486207008362,[0. 0. 0. 0. 0. 0. 0. 0. 0.],0.30517578125,-0.1220703125,0.0,[0. 0. 0. 0. 0. 0. 0. 0. 0.],-0.041015625,0.01611328125,1.00244140625,[0. 0. 0. 0. 0. 0. 0. 0. 0.]
7.4503560066223145,0.01585758663713932,0.014635005034506321,-0.45044997334480286,0.8925409317016602,[0. 0. 0. 0. 0. 0. 0. 0. 0.],-0.30517578125,-0.79345703125,-0.06103515625,[0. 0. 0. 0. 0. 0. 0. 0. 0.],-0.04052734375,0.01513671875,1.0048828125,[0. 0. 0. 0. 0. 0. 0. 0. 0.]
7.473864793777466,0.015491067431867123,0.014382035471498966,-0.45047903060913086,0.8925368189811707,[0. 0. 0. 0. 0. 0. 0. 0. 0.],-0.1220703125,-1.3427734375,-0.18310546875,[0. 0. 0. 0. 0. 0. 0. 0. 0.],-0.0400390625,0.0146484375,1.00537109375,[0. 0. 0. 0. 0. 0. 0. 0. 0.]
7.493702411651611,0.015849744901061058,0.015598776750266552,-0.4505050480365753,0.8924968838691711,[0. 0. 0. 0. 0. 0. 0. 0. 0.],0.18310546875,-0.54931640625,-0.1220703125,[0. 0. 0. 0. 0. 0. 0. 0. 0.],-0.0419921875,0.0146484375,1.00439453125,[0. 0. 0. 0. 0. 0. 0. 0. 0.]
7.513715744018555,0.016143159940838814,0.014654473401606083,-0.45050036907196045,0.8925100564956665,[0. 0. 0. 0. 0. 0. 0. 0. 0.],-0.06103515625,0.06103515625,0.06103515625,[0. 0. 0. 0. 0. 0. 0. 0. 0.],-0.04052734375,0.01611328125,1.00439453125,[0. 0. 0. 0. 0. 0. 0. 0. 0.]
7.533833026885986,0.014839333482086658,0.014813275076448917,-0.4505469799041748,0.89250648021698,[0. 0. 0. 0. 0. 0. 0. 0. 0.],-0.42724609375,-0.48828125,0.0,[0. 0. 0. 0. 0. 0. 0. 0. 0.],-0.0400390625,0.01318359375,1.005859375,[0. 0. 0. 0. 0. 0. 0. 0. 0.]
7.553700923919678,0.015975162386894226,0.014035050757229328,-0.4505667984485626,0.8924894332885742,[0. 0. 0. 0. 0. 0. 0. 0. 0.],-0.244140625,-1.0986328125,-0.244140625,[0. 0. 0. 0. 0. 0. 0. 0. 0.],-0.0400390625,0.01611328125,1.005859375,[0. 0. 0. 0. 0. 0. 0. 0. 0.]
7.57376503944397,0.015339851379394531,0.014136211946606636,-0.45059818029403687,0.892483115196228,[0. 0. 0. 0. 0. 0. 0. 0. 0.],0.244140625,-0.9765625,-0.18310546875,[0. 0. 0. 0. 0. 0. 0. 0. 0.],-0.0390625,0.01513671875,1.00390625,[0. 0. 0. 0. 0. 0. 0. 0. 0.]
7.594937086105347,0.014559762552380562,0.01435509417206049,-0.45062562823295593,0.892478883266449,[0. 0. 0. 0. 0. 0. 0. 0. 0.],-0.1220703125,-0.48828125,0.0,[0. 0. 0. 0. 0. 0. 0. 0. 0.],-0.0390625,0.013671875,1.00390625,[0. 0. 0. 0. 0. 0. 0. 0. 0.]
7.6137611865997314,0.015324077568948269,0.014074788428843021,-0.45063185691833496,0.8924674391746521,[0. 0. 0. 0. 0. 0. 0. 0. 0.],-0.42724609375,-0.30517578125,0.0,[0. 0. 0. 0. 0. 0. 0. 0. 0.],-0.03955078125,0.0146484375,1.00439453125,[0. 0. 0. 0. 0. 0. 0. 0. 0.]
7.633914947509766,0.015799669548869133,0.014112205244600773,-0.45064815878868103,0.8924503326416016,[0. 0. 0. 0. 0. 0. 0. 0. 0.],0.06103515625,-0.54931640625,0.0,[0. 0. 0. 0. 0. 0. 0. 0. 0.],-0.0390625,0.015625,1.00537109375,[0. 0. 0. 0. 0. 0. 0. 0. 0.]
7.654068231582642,0.015606283210217953,0.013801785185933113,-0.45066142082214355,0.8924518823623657,[0. 0. 0. 0. 0. 0. 0. 0. 0.],0.244140625,-0.8544921875,-0.18310546875,[0. 0. 0. 0. 0. 0. 0. 0. 0.],-0.0390625,0.015625,1.00634765625,[0. 0. 0. 0. 0. 0. 0. 0. 0.]
7.670520067214966,0.015710296109318733,0.013929701410233974,-0.4506893754005432,0.8924339413642883,[0. 0. 0. 0. 0. 0. 0. 0. 0.],-0.18310546875,-1.15966796875,-0.3662109375,[0. 0. 0. 0. 0. 0. 0. 0. 0.],-0.03955078125,0.015625,1.005859375,[0. 0. 0. 0. 0. 0. 0. 0. 0.]
7.694180011749268,0.015367013402283192,0.015322202816605568,-0.4507257640361786,0.8923986554145813,[0. 0. 0. 0. 0. 0. 0. 0. 0.],-0.18310546875,-0.48828125,-0.06103515625,[0. 0. 0. 0. 0. 0. 0. 0. 0.],-0.04150390625,0.01416015625,1.00390625,[0. 0. 0. 0. 0. 0. 0. 0. 0.]
7.7139763832092285,0.015866262838244438,0.015392545610666275,-0.4507555365562439,0.8923737406730652,[0. 0. 0. 0. 0. 0. 0. 0. 0.],0.1220703125,-0.1220703125,-0.18310546875,[0. 0. 0. 0. 0. 0. 0. 0. 0.],-0.04150390625,0.01416015625,1.00244140625,[0. 0. 0. 0. 0. 0. 0. 0. 0.]
7.734033584594727,0.015413792803883553,0.014511079527437687,-0.4507938325405121,0.8923770189285278,[0. 0. 0. 0. 0. 0. 0. 0. 0.],0.18310546875,-0.6103515625,-0.1220703125,[0. 0. 0. 0. 0. 0. 0. 0. 0.],-0.03955078125,0.0146484375,1.00390625,[0. 0. 0. 0. 0. 0. 0. 0. 0.]
7.754082441329956,0.016096081584692,0.01399377454072237,-0.45079612731933594,0.8923721313476562,[0. 0. 0. 0. 0. 0. 0. 0. 0.],-0.42724609375,-1.3427734375,-0.244140625,[0. 0. 0. 0. 0. 0. 0. 0. 0.],-0.0400390625,0.01611328125,1.00634765625,[0. 0. 0. 0. 0. 0. 0. 0. 0.]
7.77385401725769,0.015255246311426163,0.01437834370881319,-0.4508395493030548,0.8923587799072266,[0. 0. 0. 0. 0. 0. 0. 0. 0.],-0.1220703125,-1.15966796875,-0.244140625,[0. 0. 0. 0. 0. 0. 0. 0. 0.],-0.03955078125,0.013671875,1.00537109375,[0. 0. 0. 0. 0. 0. 0. 0. 0.]
7.794989347457886,0.015100724063813686,0.014036071486771107,-0.45086073875427246,0.8923562169075012,[0. 0. 0. 0. 0. 0. 0. 0. 0.],0.1220703125,-0.1220703125,0.0,[0. 0. 0. 0. 0. 0. 0. 0. 0.],-0.0390625,0.01416015625,1.00439453125,[0. 0. 0. 0. 0. 0. 0. 0. 0.]
7.814318418502808,0.01606839708983898,0.014345522038638592,-0.4508766829967499,0.8923264145851135,[0. 0. 0. 0. 0. 0. 0. 0. 0.],0.06103515625,0.0,-0.1220703125,[0. 0. 0. 0. 0. 0. 0. 0. 0.],-0.04052734375,0.015625,1.00439453125,[0. 0. 0. 0. 0. 0. 0. 0. 0.]
7.835343360900879,0.015603555366396904,0.015088479965925217,-0.450920969247818,0.8922999501228333,[0. 0. 0. 0. 0. 0. 0. 0. 0.],-0.30517578125,-1.0986328125,-0.18310546875,[0. 0. 0. 0. 0. 0. 0. 0. 0.],-0.041015625,0.0146484375,1.00537109375,[0. 0. 0. 0. 0. 0. 0. 0. 0.]
7.85447359085083,0.015214630402624607,0.014846052043139935,-0.45095980167388916,0.8922911286354065,[0. 0. 0. 0. 0. 0. 0. 0. 0.],-0.244140625,-1.40380859375,-0.30517578125,[0. 0. 0. 0. 0. 0. 0. 0. 0.],-0.04052734375,0.01416015625,1.005859375,[0. 0. 0. 0. 0. 0. 0. 0. 0.]
7.874212741851807,0.014932936057448387,0.014962825924158096,-0.45100146532058716,0.8922728300094604,[0. 0. 0. 0. 0. 0. 0. 0. 0.],0.18310546875,-1.03759765625,-0.30517578125,[0. 0. 0. 0. 0. 0. 0. 0. 0.],-0.0400390625,0.01318359375,1.0029296875,[0. 0. 0. 0. 0. 0. 0. 0. 0.]
7.894251108169556,0.015355385839939117,0.013776573352515697,-0.45100393891334534,0.89228355884552,[0. 0. 0. 0. 0. 0. 0. 0. 0.],-0.1220703125,-0.732421875,-0.18310546875,[0. 0. 0. 0. 0. 0. 0. 0. 0.],-0.0390625,0.01513671875,1.00341796875,[0. 0. 0. 0. 0. 0. 0. 0. 0.]
7.914081811904907,0.015202471055090427,0.014162559062242508,-0.4510357975959778,0.8922639489173889,[0. 0. 0. 0. 0. 0. 0. 0. 0.],-0.42724609375,-0.18310546875,-0.06103515625,[0. 0. 0. 0. 0. 0. 0. 0. 0.],-0.03955078125,0.0146484375,1.00146484375,[0. 0. 0. 0. 0. 0. 0. 0. 0.]
7.9338343143463135,0.015842564404010773,0.014778712764382362,-0.4510526955127716,0.8922344446182251,[0. 0. 0. 0. 0. 0. 0. 0. 0.],0.18310546875,-0.1220703125,-0.06103515625,[0. 0. 0. 0. 0. 0. 0. 0. 0.],-0.041015625,0.0146484375,1.0029296875,[0. 0. 0. 0. 0. 0. 0. 0. 0.]
7.954074382781982,0.01593080721795559,0.01514499168843031,-0.45107439160346985,0.8922156691551208,[0. 0. 0. 0. 0. 0. 0. 0. 0.],0.1220703125,-0.8544921875,-0.18310546875,[0. 0. 0. 0. 0. 0. 0. 0. 0.],-0.04150390625,0.0146484375,1.00390625,[0. 0. 0. 0. 0. 0. 0. 0. 0.]
7.97359299659729,0.015001767314970493,0.014109062030911446,-0.4511094391345978,0.8922310471534729,[0. 0. 0. 0. 0. 0. 0. 0. 0.],-0.30517578125,-1.40380859375,-0.30517578125,[0. 0. 0. 0. 0. 0. 0. 0. 0.],-0.03955078125,0.0146484375,1.0048828125,[0. 0. 0. 0. 0. 0. 0. 0. 0.]
7.997747421264648,0.01607391983270645,0.013648861087858677,-0.45110398530960083,0.8922222256660461,[0. 0. 0. 0. 0. 0. 0. 0. 0.],-0.18310546875,-0.732421875,-0.244140625,[0. 0. 0. 0. 0. 0. 0. 0. 0.],-0.0390625,0.01611328125,1.00439453125,[0. 0. 0. 0. 0. 0. 0. 0. 0.]
8.016687870025635,0.015327843837440014,0.014735061675310135,-0.45115092396736145,0.8921943306922913,[0. 0. 0. 0. 0. 0. 0. 0. 0.],0.1220703125,-0.06103515625,-0.06103515625,[0. 0. 0. 0. 0. 0. 0. 0. 0.],-0.04052734375,0.0146484375,1.0009765625,[0. 0. 0. 0. 0. 0. 0. 0. 0.]
8.033799648284912,0.01484164409339428,0.015115843154489994,-0.45118850469589233,0.8921772241592407,[0. 0. 0. 0. 0. 0. 0. 0. 0.],0.06103515625,-0.30517578125,0.0,[0. 0. 0. 0. 0. 0. 0. 0. 0.],-0.0400390625,0.0126953125,1.00537109375,[0. 0. 0. 0. 0. 0. 0. 0. 0.]
8.054255247116089,0.015774095430970192,0.015123608522117138,-0.4511956572532654,0.8921574950218201,[0. 0. 0. 0. 0. 0. 0. 0. 0.],-0.30517578125,-1.3427734375,-0.3662109375,[0. 0. 0. 0. 0. 0. 0. 0. 0.],-0.041015625,0.01416015625,1.00341796875,[0. 0. 0. 0. 0. 0. 0. 0. 0.]
8.074130296707153,0.01613498665392399,0.01427904237061739,-0.4512081444263458,0.8921586275100708,[0. 0. 0. 0. 0. 0. 0. 0. 0.],-0.1220703125,-1.0986328125,-0.30517578125,[0. 0. 0. 0. 0. 0. 0. 0. 0.],-0.04052734375,0.01513671875,1.00390625,[0. 0. 0. 0. 0. 0. 0. 0. 0.]
8.094321727752686,0.01610938087105751,0.014463194645941257,-0.45122793316841125,0.8921460509300232,[0. 0. 0. 0. 0. 0. 0. 0. 0.],-0.06103515625,-0.18310546875,-0.06103515625,[0. 0. 0. 0. 0. 0. 0. 0. 0.],-0.04052734375,0.015625,1.005859375,[0. 0. 0. 0. 0. 0. 0. 0. 0.]
8.113845825195312,0.016087941825389862,0.014631332829594612,-0.4512619376182556,0.8921265602111816,[0. 0. 0. 0. 0. 0. 0. 0. 0.],-0.1220703125,-0.06103515625,0.0,[0. 0. 0. 0. 0. 0. 0. 0. 0.],-0.04150390625,0.015625,1.00439453125,[0. 0. 0. 0. 0. 0. 0. 0. 0.]
8.13410997390747,0.015046961605548859,0.014910570345818996,-0.45131468772888184,0.892113447189331,[0. 0. 0. 0. 0. 0. 0. 0. 0.],-0.244140625,-0.91552734375,-0.1220703125,[0. 0. 0. 0. 0. 0. 0. 0. 0.],-0.04052734375,0.013671875,1.001953125,[0. 0. 0. 0. 0. 0. 0. 0. 0.]
8.154350996017456,0.015748877078294754,0.013816582038998604,-0.4513131082057953,0.8921197652816772,[0. 0. 0. 0. 0. 0. 0. 0. 0.],0.0,-1.220703125,-0.18310546875,[0. 0. 0. 0. 0. 0. 0. 0. 0.],-0.03857421875,0.01513671875,1.00341796875,[0. 0. 0. 0. 0. 0. 0. 0. 0.]
8.173941850662231,0.015590878203511238,0.014080467633903027,-0.45132678747177124,0.8921115398406982,[0. 0. 0. 0. 0. 0. 0. 0. 0.],0.0,-0.732421875,-0.18310546875,[0. 0. 0. 0. 0. 0. 0. 0. 0.],-0.03955078125,0.0146484375,1.00439453125,[0. 0. 0. 0. 0. 0. 0. 0. 0.]
8.18903660774231,0.014973573386669159,0.014737880788743496,-0.45135560631752014,0.8920968770980835,[0. 0. 0. 0. 0. 0. 0. 0. 0.],-0.244140625,-0.244140625,0.0,[0. 0. 0. 0. 0. 0. 0. 0. 0.],-0.03955078125,0.01318359375,1.00439453125,[0. 0. 0. 0. 0. 0. 0. 0. 0.]
8.21489691734314,0.015027573332190514,0.014514190144836903,-0.45138418674468994,0.8920851349830627,[0. 0. 0. 0. 0. 0. 0. 0. 0.],-0.244140625,-0.42724609375,-0.06103515625,[0. 0. 0. 0. 0. 0. 0. 0. 0.],-0.03955078125,0.013671875,1.0029296875,[0. 0. 0. 0. 0. 0. 0. 0. 0.]
8.23358702659607,0.015573276206851006,0.014621101319789886,-0.45139968395233154,0.892066240310669,[0. 0. 0. 0. 0. 0. 0. 0. 0.],0.18310546875,-0.79345703125,-0.06103515625,[0. 0. 0. 0. 0. 0. 0. 0. 0.],-0.041015625,0.01416015625,1.00341796875,[0. 0. 0. 0. 0. 0. 0. 0. 0.]
8.255454301834106,0.015279038809239864,0.014489390887320042,-0.45142751932144165,0.8920593857765198,[0. 0. 0. 0. 0. 0. 0. 0. 0.],0.1220703125,-1.0986328125,-0.30517578125,[0. 0. 0. 0. 0. 0. 0. 0. 0.],-0.0400390625,0.01416015625,1.00341796875,[0. 0. 0. 0. 0. 0. 0. 0. 0.]
8.274380445480347,0.016041288152337074,0.014474550262093544,-0.4514336884021759,0.8920430541038513,[0. 0. 0. 0. 0. 0. 0. 0. 0.],-0.30517578125,-0.9765625,-0.30517578125,[0. 0. 0. 0. 0. 0. 0. 0. 0.],-0.04052734375,0.01513671875,1.0029296875,[0. 0. 0. 0. 0. 0. 0. 0. 0.]
8.293997049331665,0.01575259491801262,0.01424788124859333,-0.4514642357826233,0.8920363783836365,[0. 0. 0. 0. 0. 0. 0. 0. 0.],-0.244140625,-0.3662109375,-0.1220703125,[0. 0. 0. 0. 0. 0. 0. 0. 0.],-0.0400390625,0.01513671875,1.00390625,[0. 0. 0. 0. 0. 0. 0. 0. 0.]
8.31390905380249,0.01579812914133072,0.014973626472055912,-0.45149219036102295,0.8920095562934875,[0. 0. 0. 0. 0. 0. 0. 0. 0.],0.30517578125,0.1220703125,0.0,[0. 0. 0. 0. 0. 0. 0. 0. 0.],-0.041015625,0.0146484375,1.0048828125,[0. 0. 0. 0. 0. 0. 0. 0. 0.]
8.3290536403656,0.015375327318906784,0.014167403802275658,-0.45152002573013306,0.8920159935951233,[0. 0. 0. 0. 0. 0. 0. 0. 0.],-0.06103515625,-0.30517578125,-0.06103515625,[0. 0. 0. 0. 0. 0. 0. 0. 0.],-0.03955078125,0.0146484375,1.00439453125,[0. 0. 0. 0. 0. 0. 0. 0. 0.]
8.353792905807495,0.014805663377046585,0.015020501799881458,-0.4515582025051117,0.891992449760437,[0. 0. 0. 0. 0. 0. 0. 0. 0.],-0.18310546875,-1.0986328125,-0.1220703125,[0. 0. 0. 0. 0. 0. 0. 0. 0.],-0.0400390625,0.01318359375,1.0048828125,[0. 0. 0. 0. 0. 0. 0. 0. 0.]
8.373849391937256,0.014967727474868298,0.013825065456330776,-0.45158514380455017,0.891995370388031,[0. 0. 0. 0. 0. 0. 0. 0. 0.],0.06103515625,-1.15966796875,-0.244140625,[0. 0. 0. 0. 0. 0. 0. 0. 0.],-0.0390625,0.0146484375,1.005859375,[0. 0. 0. 0. 0. 0. 0. 0. 0.]
8.393689393997192,0.015719177201390266,0.014283042401075363,-0.4515944719314575,0.8919704556465149,[0. 0. 0. 0. 0. 0. 0. 0. 0.],0.0,-0.42724609375,-0.18310546875,[0. 0. 0. 0. 0. 0. 0. 0. 0.],-0.03955078125,0.01513671875,1.00439453125,[0. 0. 0. 0. 0. 0. 0. 0. 0.]
8.409206867218018,0.015772266313433647,0.014931639656424522,-0.4516223967075348,0.8919448256492615,[0. 0. 0. 0. 0. 0. 0. 0. 0.],-0.30517578125,-0.18310546875,0.0,[0. 0. 0. 0. 0. 0. 0. 0. 0.],-0.04052734375,0.01513671875,1.001953125,[0. 0. 0. 0. 0. 0. 0. 0. 0.]
8.433866024017334,0.015429086051881313,0.014753634110093117,-0.4516617953777313,0.891933798789978,[0. 0. 0. 0. 0. 0. 0. 0. 0.],-0.18310546875,-0.732421875,0.0,[0. 0. 0. 0. 0. 0. 0. 0. 0.],-0.04052734375,0.01416015625,1.0029296875,[0. 0. 0. 0. 0. 0. 0. 0. 0.]
8.45478892326355,0.015098155476152897,0.014618056826293468,-0.4516991078853607,0.8919227719306946,[0. 0. 0. 0. 0. 0. 0. 0. 0.],0.244140625,-0.91552734375,-0.1220703125,[0. 0. 0. 0. 0. 0. 0. 0. 0.],-0.03955078125,0.013671875,1.00390625,[0. 0. 0. 0. 0. 0. 0. 0. 0.]
8.473767757415771,0.015566850081086159,0.01402491144835949,-0.45169633626937866,0.8919256925582886,[0. 0. 0. 0. 0. 0. 0. 0. 0.],0.1220703125,-0.9765625,-0.18310546875,[0. 0. 0. 0. 0. 0. 0. 0. 0.],-0.03955078125,0.01513671875,1.00537109375,[0. 0. 0. 0. 0. 0. 0. 0. 0.]
8.49389100074768,0.014748035930097103,0.014279866591095924,-0.45172369480133057,0.8919216990470886,[0. 0. 0. 0. 0. 0. 0. 0. 0.],-0.42724609375,-0.54931640625,-0.18310546875,[0. 0. 0. 0. 0. 0. 0. 0. 0.],-0.0390625,0.01318359375,1.0029296875,[0. 0. 0. 0. 0. 0. 0. 0. 0.]
8.513831615447998,0.015609617345035076,0.014244393445551395,-0.45172280073165894,0.8919079899787903,[0. 0. 0. 0. 0. 0. 0. 0. 0.],-0.18310546875,-0.244140625,0.06103515625,[0. 0. 0. 0. 0. 0. 0. 0. 0.],-0.03955078125,0.015625,1.00439453125,[0. 0. 0. 0. 0. 0. 0. 0. 0.]
8.534272909164429,0.015392115339636803,0.013615941628813744,-0.451752245426178,0.89190673828125,[0. 0. 0. 0. 0. 0. 0. 0. 0.],0.06103515625,-0.48828125,0.0,[0. 0. 0. 0. 0. 0. 0. 0. 0.],-0.03857421875,0.01513671875,1.00390625,[0. 0. 0. 0. 0. 0. 0. 0. 0.]
8.553897142410278,0.015048360452055931,0.01453104242682457,-0.4517912268638611,0.8918784856796265,[0. 0. 0. 0. 0. 0. 0. 0. 0.],0.0,-0.9765625,-0.30517578125,[0. 0. 0. 0. 0. 0. 0. 0. 0.],-0.0400390625,0.01416015625,1.00341796875,[0. 0. 0. 0. 0. 0. 0. 0. 0.]
8.573863744735718,0.014928098767995834,0.014405879192054272,-0.45181894302368164,0.8918684720993042,[0. 0. 0. 0. 0. 0. 0. 0. 0.],-0.3662109375,-1.15966796875,-0.18310546875,[0. 0. 0. 0. 0. 0. 0. 0. 0.],-0.03955078125,0.01416015625,1.00537109375,[0. 0. 0. 0. 0. 0. 0. 0. 0.]
8.595054149627686,0.014391578733921051,0.01461738534271717,-0.4518548548221588,0.8918555378913879,[0. 0. 0. 0. 0. 0. 0. 0. 0.],0.0,-0.18310546875,-0.1220703125,[0. 0. 0. 0. 0. 0. 0. 0. 0.],-0.03955078125,0.0126953125,1.00439453125,[0. 0. 0. 0. 0. 0. 0. 0. 0.]
8.613729000091553,0.01611313410103321,0.015041395090520382,-0.4518468677997589,0.8918231725692749,[0. 0. 0. 0. 0. 0. 0. 0. 0.],0.18310546875,0.06103515625,0.0,[0. 0. 0. 0. 0. 0. 0. 0. 0.],-0.04150390625,0.01513671875,1.00390625,[0. 0. 0. 0. 0. 0. 0. 0. 0.]
8.634755373001099,0.015518062748014927,0.01438054721802473,-0.45186465978622437,0.891835629940033,[0. 0. 0. 0. 0. 0. 0. 0. 0.],-0.06103515625,-0.8544921875,0.0,[0. 0. 0. 0. 0. 0. 0. 0. 0.],-0.0400390625,0.0146484375,1.0048828125,[0. 0. 0. 0. 0. 0. 0. 0. 0.]
8.651301383972168,0.015111636370420456,0.01416979730129242,-0.4518970251083374,0.8918296098709106,[0. 0. 0. 0. 0. 0. 0. 0. 0.],-0.18310546875,-1.40380859375,-0.3662109375,[0. 0. 0. 0. 0. 0. 0. 0. 0.],-0.03955078125,0.0146484375,1.00439453125,[0. 0. 0. 0. 0. 0. 0. 0. 0.]
8.674438953399658,0.015271065756678581,0.013478566892445087,-0.45191752910614014,0.8918271660804749,[0. 0. 0. 0. 0. 0. 0. 0. 0.],0.0,-0.8544921875,-0.3662109375,[0. 0. 0. 0. 0. 0. 0. 0. 0.],-0.03857421875,0.01513671875,1.0048828125,[0. 0. 0. 0. 0. 0. 0. 0. 0.]
8.695118188858032,0.01487740222364664,0.014780066907405853,-0.45196768641471863,0.8917877674102783,[0. 0. 0. 0. 0. 0. 0. 0. 0.],0.06103515625,0.1220703125,-0.18310546875,[0. 0. 0. 0. 0. 0. 0. 0. 0.],-0.0400390625,0.01318359375,1.00390625,[0. 0. 0. 0. 0. 0. 0. 0. 0.]
8.713783740997314,0.01585966907441616,0.015338065102696419,-0.45197761058807373,0.8917564153671265,[0. 0. 0. 0. 0. 0. 0. 0. 0.],-0.18310546875,-0.42724609375,0.0,[0. 0. 0. 0. 0. 0. 0. 0. 0.],-0.0419921875,0.0146484375,1.0048828125,[0. 0. 0. 0. 0. 0. 0. 0. 0.]
8.733880996704102,0.01518583856523037,0.014328760094940662,-0.45201432704925537,0.891766369342804,[0. 0. 0. 0. 0. 0. 0. 0. 0.],-0.06103515625,-1.03759765625,-0.18310546875,[0. 0. 0. 0. 0. 0. 0. 0. 0.],-0.03955078125,0.01416015625,1.0048828125,[0. 0. 0. 0. 0. 0. 0. 0. 0.]
8.75383710861206,0.01420989353209734,0.014716535806655884,-0.4520586133003235,0.8917536735534668,[0. 0. 0. 0. 0. 0. 0. 0. 0.],0.18310546875,-1.0986328125,-0.18310546875,[0. 0. 0. 0. 0. 0. 0. 0. 0.],-0.03955078125,0.0126953125,1.005859375,[0. 0. 0. 0. 0. 0. 0. 0. 0.]
8.774173021316528,0.015458248555660248,0.013952037319540977,-0.4520402252674103,0.8917545080184937,[0. 0. 0. 0. 0. 0. 0. 0. 0.],0.0,-0.48828125,-0.1220703125,[0. 0. 0. 0. 0. 0. 0. 0. 0.],-0.0390625,0.0146484375,1.00439453125,[0. 0. 0. 0. 0. 0. 0. 0. 0.]
8.794406414031982,0.015299181453883648,0.014775123447179794,-0.4520642161369324,0.8917317986488342,[0. 0. 0. 0. 0. 0. 0. 0. 0.],-0.42724609375,-0.6103515625,-0.06103515625,[0. 0. 0. 0. 0. 0. 0. 0. 0.],-0.03955078125,0.013671875,1.0048828125,[0. 0. 0. 0. 0. 0. 0. 0. 0.]
8.816322088241577,0.015399293974041939,0.014250761829316616,-0.45208755135536194,0.8917268514633179,[0. 0. 0. 0. 0. 0. 0. 0. 0.],-0.06103515625,-0.06103515625,-0.06103515625,[0. 0. 0. 0. 0. 0. 0. 0. 0.],-0.03955078125,0.0146484375,1.00439453125,[0. 0. 0. 0. 0. 0. 0. 0. 0.]
8.833417177200317,0.015688709914684296,0.014426185749471188,-0.4521092176437378,0.8917079567909241,[0. 0. 0. 0. 0. 0. 0. 0. 0.],0.18310546875,-0.18310546875,0.0,[0. 0. 0. 0. 0. 0. 0. 0. 0.],-0.0400390625,0.01513671875,1.00341796875,[0. 0. 0. 0. 0. 0. 0. 0. 0.]
8.854149580001831,0.01571015454828739,0.014348752796649933,-0.4521401822566986,0.891693115234375,[0. 0. 0. 0. 0. 0. 0. 0. 0.],-0.06103515625,-1.03759765625,-0.30517578125,[0. 0. 0. 0. 0. 0. 0. 0. 0.],-0.0400390625,0.01513671875,1.0048828125,[0. 0. 0. 0. 0. 0. 0. 0. 0.]
8.874427556991577,0.015511090867221355,0.014974328689277172,-0.45217254757881165,0.8916699290275574,[0. 0. 0. 0. 0. 0. 0. 0. 0.],-0.244140625,-1.220703125,-0.18310546875,[0. 0. 0. 0. 0. 0. 0. 0. 0.],-0.041015625,0.0146484375,1.0048828125,[0. 0. 0. 0. 0. 0. 0. 0. 0.]
8.89372706413269,0.01613522693514824,0.01490060705691576,-0.4521861672401428,0.8916531205177307,[0. 0. 0. 0. 0. 0. 0. 0. 0.],0.06103515625,-0.48828125,-0.244140625,[0. 0. 0. 0. 0. 0. 0. 0. 0.],-0.04150390625,0.01513671875,1.005859375,[0. 0. 0. 0. 0. 0. 0. 0. 0.]
8.910365343093872,0.0153430150821805,0.014548850245773792,-0.45221856236457825,0.8916565775871277,[0. 0. 0. 0. 0. 0. 0. 0. 0.],0.18310546875,0.0,0.0,[0. 0. 0. 0. 0. 0. 0. 0. 0.],-0.04052734375,0.0146484375,1.00390625,[0. 0. 0. 0. 0. 0. 0. 0. 0.]
8.933867454528809,0.014365078881382942,0.015800990164279938,-0.45226937532424927,0.891625702381134,[0. 0. 0. 0. 0. 0. 0. 0. 0.],-0.18310546875,-0.8544921875,-0.06103515625,[0. 0. 0. 0. 0. 0. 0. 0. 0.],-0.04150390625,0.01123046875,1.0048828125,[0. 0. 0. 0. 0. 0. 0. 0. 0.]
8.949000835418701,0.014650417491793633,0.014932667836546898,-0.4522976279258728,0.8916217088699341,[0. 0. 0. 0. 0. 0. 0. 0. 0.],-0.18310546875,-1.220703125,-0.30517578125,[0. 0. 0. 0. 0. 0. 0. 0. 0.],-0.0400390625,0.0126953125,1.00537109375,[0. 0. 0. 0. 0. 0. 0. 0. 0.]
8.974669456481934,0.01531386561691761,0.014271008782088757,-0.4522998332977295,0.8916203379631042,[0. 0. 0. 0. 0. 0. 0. 0. 0.],0.0,-0.732421875,-0.18310546875,[0. 0. 0. 0. 0. 0. 0. 0. 0.],-0.03955078125,0.0146484375,1.00537109375,[0. 0. 0. 0. 0. 0. 0. 0. 0.]
8.994092226028442,0.015309690497815609,0.014541583135724068,-0.45232468843460083,0.891603410243988,[0. 0. 0. 0. 0. 0. 0. 0. 0.],0.06103515625,0.0,-0.1220703125,[0. 0. 0. 0. 0. 0. 0. 0. 0.],-0.04052734375,0.01416015625,1.00390625,[0. 0. 0. 0. 0. 0. 0. 0. 0.]
9.013937711715698,0.014758098870515823,0.014633807353675365,-0.4523656368255615,0.8915904760360718,[0. 0. 0. 0. 0. 0. 0. 0. 0.],-0.30517578125,-0.42724609375,-0.06103515625,[0. 0. 0. 0. 0. 0. 0. 0. 0.],-0.0400390625,0.01318359375,1.00341796875,[0. 0. 0. 0. 0. 0. 0. 0. 0.]
9.034189462661743,0.014777950942516327,0.014246147125959396,-0.4523865282535553,0.8915858268737793,[0. 0. 0. 0. 0. 0. 0. 0. 0.],-0.18310546875,-0.8544921875,-0.06103515625,[0. 0. 0. 0. 0. 0. 0. 0. 0.],-0.0390625,0.013671875,1.00244140625,[0. 0. 0. 0. 0. 0. 0. 0. 0.]
9.049501657485962,0.015074580907821655,0.014387713745236397,-0.4524005651473999,0.8915713429450989,[0. 0. 0. 0. 0. 0. 0. 0. 0.],0.244140625,-0.9765625,-0.18310546875,[0. 0. 0. 0. 0. 0. 0. 0. 0.],-0.03955078125,0.01416015625,1.00390625,[0. 0. 0. 0. 0. 0. 0. 0. 0.]
9.07571816444397,0.015203148126602173,0.014869604259729385,-0.4524214565753937,0.8915507793426514,[0. 0. 0. 0. 0. 0. 0. 0. 0.],-0.1220703125,-0.48828125,-0.244140625,[0. 0. 0. 0. 0. 0. 0. 0. 0.],-0.04052734375,0.013671875,1.0009765625,[0. 0. 0. 0. 0. 0. 0. 0. 0.]
9.09417724609375,0.015173948369920254,0.014426649548113346,-0.4524478018283844,0.8915451765060425,[0. 0. 0. 0. 0. 0. 0. 0. 0.],-0.244140625,-0.42724609375,-0.1220703125,[0. 0. 0. 0. 0. 0. 0. 0. 0.],-0.03955078125,0.01416015625,1.00390625,[0. 0. 0. 0. 0. 0. 0. 0. 0.]
9.109471082687378,0.015586994588375092,0.014023290015757084,-0.45247527956962585,0.8915305137634277,[0. 0. 0. 0. 0. 0. 0. 0. 0.],-0.06103515625,-0.30517578125,-0.18310546875,[0. 0. 0. 0. 0. 0. 0. 0. 0.],-0.03955078125,0.0146484375,1.0048828125,[0. 0. 0. 0. 0. 0. 0. 0. 0.]
9.134256839752197,0.015616768971085548,0.01487158052623272,-0.4524969458580017,0.891505241394043,[0. 0. 0. 0. 0. 0. 0. 0. 0.],0.18310546875,-0.8544921875,-0.1220703125,[0. 0. 0. 0. 0. 0. 0. 0. 0.],-0.04052734375,0.0146484375,1.00537109375,[0. 0. 0. 0. 0. 0. 0. 0. 0.]
9.153820753097534,0.01508195698261261,0.01435034815222025,-0.4525255262851715,0.8915085196495056,[0. 0. 0. 0. 0. 0. 0. 0. 0.],-0.244140625,-1.15966796875,-0.244140625,[0. 0. 0. 0. 0. 0. 0. 0. 0.],-0.03955078125,0.01416015625,1.00390625,[0. 0. 0. 0. 0. 0. 0. 0. 0.]
9.174431324005127,0.014568392187356949,0.01480882428586483,-0.4525579512119293,0.8914930820465088,[0. 0. 0. 0. 0. 0. 0. 0. 0.],-0.42724609375,-0.732421875,-0.18310546875,[0. 0. 0. 0. 0. 0. 0. 0. 0.],-0.0400390625,0.0126953125,1.00341796875,[0. 0. 0. 0. 0. 0. 0. 0. 0.]
9.194132089614868,0.014786996878683567,0.014370614662766457,-0.4525805413722992,0.8914850950241089,[0. 0. 0. 0. 0. 0. 0. 0. 0.],0.1220703125,0.0,-0.06103515625,[0. 0. 0. 0. 0. 0. 0. 0. 0.],-0.03955078125,0.01318359375,1.00341796875,[0. 0. 0. 0. 0. 0. 0. 0. 0.]
9.213852167129517,0.014357486739754677,0.014592614024877548,-0.4526137113571167,0.891471803188324,[0. 0. 0. 0. 0. 0. 0. 0. 0.],0.1220703125,-0.3662109375,-0.1220703125,[0. 0. 0. 0. 0. 0. 0. 0. 0.],-0.03955078125,0.0126953125,1.00341796875,[0. 0. 0. 0. 0. 0. 0. 0. 0.]
9.234336853027344,0.0160609632730484,0.01441487018018961,-0.4526076316833496,0.8914485573768616,[0. 0. 0. 0. 0. 0. 0. 0. 0.],-0.244140625,-1.220703125,-0.30517578125,[0. 0. 0. 0. 0. 0. 0. 0. 0.],-0.04052734375,0.015625,1.00439453125,[0. 0. 0. 0. 0. 0. 0. 0. 0.]
9.253763437271118,0.015996601432561874,0.014277376234531403,-0.4526292383670807,0.8914411067962646,[0. 0. 0. 0. 0. 0. 0. 0. 0.],-0.18310546875,-1.220703125,-0.244140625,[0. 0. 0. 0. 0. 0. 0. 0. 0.],-0.03955078125,0.015625,1.0048828125,[0. 0. 0. 0. 0. 0. 0. 0. 0.]
9.269495487213135,0.015469236299395561,0.01442464254796505,-0.4526657462120056,0.8914294242858887,[0. 0. 0. 0. 0. 0. 0. 0. 0.],0.06103515625,-0.732421875,-0.244140625,[0. 0. 0. 0. 0. 0. 0. 0. 0.],-0.0400390625,0.0146484375,1.00537109375,[0. 0. 0. 0. 0. 0. 0. 0. 0.]
9.293867349624634,0.015269339084625244,0.013686626218259335,-0.45268261432647705,0.8914359211921692,[0. 0. 0. 0. 0. 0. 0. 0. 0.],-0.244140625,-0.244140625,0.0,[0. 0. 0. 0. 0. 0. 0. 0. 0.],-0.03857421875,0.0146484375,1.00537109375,[0. 0. 0. 0. 0. 0. 0. 0. 0.]
9.313931941986084,0.015328660607337952,0.014498948119580746,-0.4527038633823395,0.8914112448692322,[0. 0. 0. 0. 0. 0. 0. 0. 0.],-0.3662109375,-0.18310546875,0.06103515625,[0. 0. 0. 0. 0. 0. 0. 0. 0.],-0.0400390625,0.0146484375,1.00390625,[0. 0. 0. 0. 0. 0. 0. 0. 0.]
9.33422589302063,0.014508642256259918,0.015246824361383915,-0.4527539908885956,0.8913870453834534,[0. 0. 0. 0. 0. 0. 0. 0. 0.],-0.06103515625,-0.8544921875,-0.06103515625,[0. 0. 0. 0. 0. 0. 0. 0. 0.],-0.04052734375,0.01220703125,1.00439453125,[0. 0. 0. 0. 0. 0. 0. 0. 0.]
9.3578782081604,0.015553726814687252,0.014588330872356892,-0.4527592658996582,0.8913778066635132,[0. 0. 0. 0. 0. 0. 0. 0. 0.],0.18310546875,-1.03759765625,-0.18310546875,[0. 0. 0. 0. 0. 0. 0. 0. 0.],-0.0400390625,0.0146484375,1.0048828125,[0. 0. 0. 0. 0. 0. 0. 0. 0.]
9.374693393707275,0.015481816604733467,0.014556393027305603,-0.4527706801891327,0.8913737535476685,[0. 0. 0. 0. 0. 0. 0. 0. 0.],-0.18310546875,-0.91552734375,-0.1220703125,[0. 0. 0. 0. 0. 0. 0. 0. 0.],-0.0400390625,0.01416015625,1.0048828125,[0. 0. 0. 0. 0. 0. 0. 0. 0.]
9.393917083740234,0.015588967129588127,0.014187655411660671,-0.4527801275253296,0.8913729786872864,[0. 0. 0. 0. 0. 0. 0. 0. 0.],-0.30517578125,-0.3662109375,0.0,[0. 0. 0. 0. 0. 0. 0. 0. 0.],-0.03955078125,0.01513671875,1.0029296875,[0. 0. 0. 0. 0. 0. 0. 0. 0.]
9.413738012313843,0.0157760102301836,0.013877136632800102,-0.4528087079524994,0.8913601636886597,[0. 0. 0. 0. 0. 0. 0. 0. 0.],-0.06103515625,-0.06103515625,-0.1220703125,[0. 0. 0. 0. 0. 0. 0. 0. 0.],-0.0390625,0.015625,1.00537109375,[0. 0. 0. 0. 0. 0. 0. 0. 0.]
9.435363054275513,0.015528971329331398,0.01456329133361578,-0.4528442621231079,0.8913354873657227,[0. 0. 0. 0. 0. 0. 0. 0. 0.],0.06103515625,-0.732421875,-0.1220703125,[0. 0. 0. 0. 0. 0. 0. 0. 0.],-0.0400390625,0.0146484375,1.005859375,[0. 0. 0. 0. 0. 0. 0. 0. 0.]
9.453914403915405,0.016047051176428795,0.01448359340429306,-0.4528478980064392,0.8913257122039795,[0. 0. 0. 0. 0. 0. 0. 0. 0.],-0.244140625,-1.3427734375,-0.244140625,[0. 0. 0. 0. 0. 0. 0. 0. 0.],-0.04150390625,0.015625,1.00439453125,[0. 0. 0. 0. 0. 0. 0. 0. 0.]
9.475499629974365,0.01569739542901516,0.01362927071750164,-0.45287108421325684,0.8913336396217346,[0. 0. 0. 0. 0. 0. 0. 0. 0.],-0.244140625,-0.79345703125,-0.244140625,[0. 0. 0. 0. 0. 0. 0. 0. 0.],-0.03857421875,0.015625,1.0048828125,[0. 0. 0. 0. 0. 0. 0. 0. 0.]
9.493839025497437,0.015197091735899448,0.01423001941293478,-0.45292043685913086,0.8913078904151917,[0. 0. 0. 0. 0. 0. 0. 0. 0.],0.1220703125,0.0,-0.1220703125,[0. 0. 0. 0. 0. 0. 0. 0. 0.],-0.03955078125,0.0146484375,1.00634765625,[0. 0. 0. 0. 0. 0. 0. 0. 0.]
9.514663219451904,0.015617883764207363,0.015318336896598339,-0.45294472575187683,0.8912702202796936,[0. 0. 0. 0. 0. 0. 0. 0. 0.],-0.06103515625,-0.30517578125,0.0,[0. 0. 0. 0. 0. 0. 0. 0. 0.],-0.04150390625,0.013671875,1.00390625,[0. 0. 0. 0. 0. 0. 0. 0. 0.]
9.534198999404907,0.015426840633153915,0.014736192300915718,-0.4529755413532257,0.891267716884613,[0. 0. 0. 0. 0. 0. 0. 0. 0.],-0.30517578125,-1.220703125,-0.18310546875,[0. 0. 0. 0. 0. 0. 0. 0. 0.],-0.0400390625,0.0146484375,1.00390625,[0. 0. 0. 0. 0. 0. 0. 0. 0.]
9.554448127746582,0.015723129734396935,0.01429358683526516,-0.452992707490921,0.8912610411643982,[0. 0. 0. 0. 0. 0. 0. 0. 0.],-0.06103515625,-1.28173828125,-0.30517578125,[0. 0. 0. 0. 0. 0. 0. 0. 0.],-0.0400390625,0.01513671875,1.00390625,[0. 0. 0. 0. 0. 0. 0. 0. 0.]
9.573757410049438,0.015213081613183022,0.014349931851029396,-0.45302632451057434,0.8912519216537476,[0. 0. 0. 0. 0. 0. 0. 0. 0.],0.06103515625,-0.3662109375,-0.18310546875,[0. 0. 0. 0. 0. 0. 0. 0. 0.],-0.03955078125,0.01416015625,1.00537109375,[0. 0. 0. 0. 0. 0. 0. 0. 0.]
9.593761920928955,0.015745874494314194,0.013714474625885487,-0.45301946997642517,0.8912560939788818,[0. 0. 0. 0. 0. 0. 0. 0. 0.],-0.30517578125,0.06103515625,0.0,[0. 0. 0. 0. 0. 0. 0. 0. 0.],-0.0390625,0.015625,1.0048828125,[0. 0. 0. 0. 0. 0. 0. 0. 0.]
9.613702058792114,0.015558449551463127,0.014548620209097862,-0.45306500792503357,0.8912230134010315,[0. 0. 0. 0. 0. 0. 0. 0. 0.],-0.244140625,-0.54931640625,-0.1220703125,[0. 0. 0. 0. 0. 0. 0. 0. 0.],-0.0400390625,0.0146484375,1.005859375,[0. 0. 0. 0. 0. 0. 0. 0. 0.]
9.634123086929321,0.015564636327326298,0.0145985446870327,-0.45310813188552856,0.8912001848220825,[0. 0. 0. 0. 0. 0. 0. 0. 0.],-0.06103515625,-1.03759765625,-0.244140625,[0. 0. 0. 0. 0. 0. 0. 0. 0.],-0.04052734375,0.0146484375,1.00537109375,[0. 0. 0. 0. 0. 0. 0. 0. 0.]
9.653738260269165,0.015383720397949219,0.014502654783427715,-0.45313140749931335,0.8911930918693542,[0. 0. 0. 0. 0. 0. 0. 0. 0.],0.1220703125,-0.8544921875,-0.30517578125,[0. 0. 0. 0. 0. 0. 0. 0. 0.],-0.0400390625,0.01416015625,1.0029296875,[0. 0. 0. 0. 0. 0. 0. 0. 0.]
9.677128553390503,0.01569555699825287,0.014384177513420582,-0.4531390070915222,0.8911855816841125,[0. 0. 0. 0. 0. 0. 0. 0. 0.],-0.30517578125,-0.3662109375,-0.06103515625,[0. 0. 0. 0. 0. 0. 0. 0. 0.],-0.0400390625,0.01513671875,1.00341796875,[0. 0. 0. 0. 0. 0. 0. 0. 0.]
9.688970565795898,0.016115184873342514,0.014186058193445206,-0.45314881205558777,0.8911763429641724,[0. 0. 0. 0. 0. 0. 0. 0. 0.],-0.3662109375,-0.30517578125,0.1220703125,[0. 0. 0. 0. 0. 0. 0. 0. 0.],-0.0400390625,0.0166015625,1.005859375,[0. 0. 0. 0. 0. 0. 0. 0. 0.]
9.714365482330322,0.015676844865083694,0.014916044659912586,-0.4531908631324768,0.8911508321762085,[0. 0. 0. 0. 0. 0. 0. 0. 0.],0.244140625,0.1220703125,0.0,[0. 0. 0. 0. 0. 0. 0. 0. 0.],-0.04150390625,0.013671875,1.00390625,[0. 0. 0. 0. 0. 0. 0. 0. 0.]
9.734124660491943,0.015855180099606514,0.01394830085337162,-0.4532102346420288,0.8911535739898682,[0. 0. 0. 0. 0. 0. 0. 0. 0.],0.1220703125,-0.67138671875,-0.18310546875,[0. 0. 0. 0. 0. 0. 0. 0. 0.],-0.0400390625,0.015625,1.00341796875,[0. 0. 0. 0. 0. 0. 0. 0. 0.]
9.753822088241577,0.015260039828717709,0.014032077975571156,-0.45324140787124634,0.8911468386650085,[0. 0. 0. 0. 0. 0. 0. 0. 0.],-0.30517578125,-1.46484375,-0.244140625,[0. 0. 0. 0. 0. 0. 0. 0. 0.],-0.0390625,0.0146484375,1.00244140625,[0. 0. 0. 0. 0. 0. 0. 0. 0.]
9.775072574615479,0.015165031887590885,0.013960144482553005,-0.4532739520072937,0.8911328911781311,[0. 0. 0. 0. 0. 0. 0. 0. 0.],-0.1220703125,-0.9765625,-0.30517578125,[0. 0. 0. 0. 0. 0. 0. 0. 0.],-0.03955078125,0.0146484375,1.005859375,[0. 0. 0. 0. 0. 0. 0. 0. 0.]
9.793815612792969,0.016048787161707878,0.014497158117592335,-0.45327523350715637,0.8911082148551941,[0. 0. 0. 0. 0. 0. 0. 0. 0.],0.0,-0.06103515625,0.06103515625,[0. 0. 0. 0. 0. 0. 0. 0. 0.],-0.04052734375,0.015625,1.00390625,[0. 0. 0. 0. 0. 0. 0. 0. 0.]
9.813800811767578,0.015850219875574112,0.01390375941991806,-0.45330435037612915,0.8911064267158508,[0. 0. 0. 0. 0. 0. 0. 0. 0.],-0.06103515625,0.0,-0.1220703125,[0. 0. 0. 0. 0. 0. 0. 0. 0.],-0.03955078125,0.015625,1.0048828125,[0. 0. 0. 0. 0. 0. 0. 0. 0.]
9.833915948867798,0.015404807403683662,0.014712183736264706,-0.453350305557251,0.8910778760910034,[0. 0. 0. 0. 0. 0. 0. 0. 0.],-0.244140625,-1.03759765625,-0.18310546875,[0. 0. 0. 0. 0. 0. 0. 0. 0.],-0.04052734375,0.013671875,1.0048828125,[0. 0. 0. 0. 0. 0. 0. 0. 0.]
9.853782176971436,0.016236137598752975,0.014534436166286469,-0.4533586800098419,0.8910617828369141,[0. 0. 0. 0. 0. 0. 0. 0. 0.],0.0,-1.220703125,-0.30517578125,[0. 0. 0. 0. 0. 0. 0. 0. 0.],-0.041015625,0.01611328125,1.00244140625,[0. 0. 0. 0. 0. 0. 0. 0. 0.]
9.873847723007202,0.015747932717204094,0.014850215055048466,-0.45338889956474304,0.8910499811172485,[0. 0. 0. 0. 0. 0. 0. 0. 0.],0.06103515625,-0.48828125,-0.18310546875,[0. 0. 0. 0. 0. 0. 0. 0. 0.],-0.04052734375,0.01513671875,1.005859375,[0. 0. 0. 0. 0. 0. 0. 0. 0.]
9.893726587295532,0.015250190161168575,0.013769064098596573,-0.45340368151664734,0.8910683989524841,[0. 0. 0. 0. 0. 0. 0. 0. 0.],-0.3662109375,-0.244140625,0.06103515625,[0. 0. 0. 0. 0. 0. 0. 0. 0.],-0.0390625,0.0146484375,1.00537109375,[0. 0. 0. 0. 0. 0. 0. 0. 0.]
9.913748502731323,0.015780841931700706,0.014277576468884945,-0.45342129468917847,0.8910422325134277,[0. 0. 0. 0. 0. 0. 0. 0. 0.],-0.3662109375,-0.48828125,0.06103515625,[0. 0. 0. 0. 0. 0. 0. 0. 0.],-0.03955078125,0.01513671875,1.0048828125,[0. 0. 0. 0. 0. 0. 0. 0. 0.]
9.934021472930908,0.014887040480971336,0.013879401609301567,-0.4534599184989929,0.8910442590713501,[0. 0. 0. 0. 0. 0. 0. 0. 0.],0.18310546875,-0.79345703125,-0.244140625,[0. 0. 0. 0. 0. 0. 0. 0. 0.],-0.03857421875,0.0146484375,1.00439453125,[0. 0. 0. 0. 0. 0. 0. 0. 0.]
9.954170942306519,0.014743401668965816,0.01396882813423872,-0.4534739851951599,0.891038179397583,[0. 0. 0. 0. 0. 0. 0. 0. 0.],0.06103515625,-1.220703125,-0.1220703125,[0. 0. 0. 0. 0. 0. 0. 0. 0.],-0.03857421875,0.013671875,1.00439453125,[0. 0. 0. 0. 0. 0. 0. 0. 0.]
9.9713716506958,0.01467115432024002,0.014568749815225601,-0.4534890055656433,0.8910220861434937,[0. 0. 0. 0. 0. 0. 0. 0. 0.],-0.3662109375,-0.79345703125,-0.244140625,[0. 0. 0. 0. 0. 0. 0. 0. 0.],-0.03955078125,0.01318359375,1.005859375,[0. 0. 0. 0. 0. 0. 0. 0. 0.]
9.994032144546509,0.014627848751842976,0.015235942788422108,-0.4535207152366638,0.8909955024719238,[0. 0. 0. 0. 0. 0. 0. 0. 0.],-0.244140625,-0.244140625,-0.06103515625,[0. 0. 0. 0. 0. 0. 0. 0. 0.],-0.041015625,0.0126953125,1.00439453125,[0. 0. 0. 0. 0. 0. 0. 0. 0.]
10.013909578323364,0.015786830335855484,0.015448284335434437,-0.45353570580482483,0.8909643888473511,[0. 0. 0. 0. 0. 0. 0. 0. 0.],0.18310546875,-0.30517578125,-0.18310546875,[0. 0. 0. 0. 0. 0. 0. 0. 0.],-0.0419921875,0.01416015625,1.0048828125,[0. 0. 0. 0. 0. 0. 0. 0. 0.]
10.034189939498901,0.015645110979676247,0.01506507396697998,-0.45357075333595276,0.8909556269645691,[0. 0. 0. 0. 0. 0. 0. 0. 0.],0.06103515625,-0.9765625,-0.244140625,[0. 0. 0. 0. 0. 0. 0. 0. 0.],-0.04052734375,0.01416015625,1.00537109375,[0. 0. 0. 0. 0. 0. 0. 0. 0.]
10.05383038520813,0.015481659211218357,0.014872407540678978,-0.45359134674072266,0.8909512162208557,[0. 0. 0. 0. 0. 0. 0. 0. 0.],-0.30517578125,-1.220703125,-0.3662109375,[0. 0. 0. 0. 0. 0. 0. 0. 0.],-0.041015625,0.01416015625,1.00537109375,[0. 0. 0. 0. 0. 0. 0. 0. 0.]
10.07701587677002,0.01595456339418888,0.014184397645294666,-0.45359790325164795,0.8909507989883423,[0. 0. 0. 0. 0. 0. 0. 0. 0.],-0.244140625,-0.48828125,-0.18310546875,[0. 0. 0. 0. 0. 0. 0. 0. 0.],-0.0400390625,0.015625,1.00537109375,[0. 0. 0. 0. 0. 0. 0. 0. 0.]
10.093883275985718,0.01493396982550621,0.015097850002348423,-0.45364826917648315,0.890927791595459,[0. 0. 0. 0. 0. 0. 0. 0. 0.],0.1220703125,0.18310546875,0.06103515625,[0. 0. 0. 0. 0. 0. 0. 0. 0.],-0.041015625,0.013671875,1.00244140625,[0. 0. 0. 0. 0. 0. 0. 0. 0.]
10.11381196975708,0.015741201117634773,0.014978081919252872,-0.4536561369895935,0.8909119367599487,[0. 0. 0. 0. 0. 0. 0. 0. 0.],-0.06103515625,-0.42724609375,-0.1220703125,[0. 0. 0. 0. 0. 0. 0. 0. 0.],-0.04052734375,0.01416015625,1.00439453125,[0. 0. 0. 0. 0. 0. 0. 0. 0.]
10.13364577293396,0.01529823150485754,0.014870456419885159,-0.45369017124176025,0.8909041285514832,[0. 0. 0. 0. 0. 0. 0. 0. 0.],-0.18310546875,-1.3427734375,-0.18310546875,[0. 0. 0. 0. 0. 0. 0. 0. 0.],-0.041015625,0.013671875,1.00341796875,[0. 0. 0. 0. 0. 0. 0. 0. 0.]
10.154944896697998,0.015983901917934418,0.015291613526642323,-0.453707754611969,0.8908759355545044,[0. 0. 0. 0. 0. 0. 0. 0. 0.],0.1220703125,-1.03759765625,-0.244140625,[0. 0. 0. 0. 0. 0. 0. 0. 0.],-0.0419921875,0.0146484375,1.0029296875,[0. 0. 0. 0. 0. 0. 0. 0. 0.]
10.178545236587524,0.015278159640729427,0.014014852233231068,-0.4537317454814911,0.8908971548080444,[0. 0. 0. 0. 0. 0. 0. 0. 0.],0.06103515625,-0.1220703125,-0.06103515625,[0. 0. 0. 0. 0. 0. 0. 0. 0.],-0.0390625,0.0146484375,1.0068359375,[0. 0. 0. 0. 0. 0. 0. 0. 0.]
10.195744752883911,0.01566362753510475,0.014966721646487713,-0.4537603259086609,0.8908604383468628,[0. 0. 0. 0. 0. 0. 0. 0. 0.],-0.244140625,-0.30517578125,-0.18310546875,[0. 0. 0. 0. 0. 0. 0. 0. 0.],-0.041015625,0.0146484375,1.00634765625,[0. 0. 0. 0. 0. 0. 0. 0. 0.]
10.214834451675415,0.015285277739167213,0.014500117860734463,-0.4537961483001709,0.8908563852310181,[0. 0. 0. 0. 0. 0. 0. 0. 0.],-0.244140625,-0.30517578125,-0.1220703125,[0. 0. 0. 0. 0. 0. 0. 0. 0.],-0.0400390625,0.01416015625,1.00537109375,[0. 0. 0. 0. 0. 0. 0. 0. 0.]
10.229004144668579,0.014791734516620636,0.01464811060577631,-0.45383989810943604,0.8908401727676392,[0. 0. 0. 0. 0. 0. 0. 0. 0.],0.3662109375,-0.67138671875,-0.1220703125,[0. 0. 0. 0. 0. 0. 0. 0. 0.],-0.0400390625,0.0126953125,1.0029296875,[0. 0. 0. 0. 0. 0. 0. 0. 0.]
10.254067420959473,0.015654511749744415,0.01463211327791214,-0.45383790135383606,0.8908266425132751,[0. 0. 0. 0. 0. 0. 0. 0. 0.],-0.1220703125,-1.28173828125,-0.18310546875,[0. 0. 0. 0. 0. 0. 0. 0. 0.],-0.04052734375,0.0146484375,1.0029296875,[0. 0. 0. 0. 0. 0. 0. 0. 0.]
10.273875951766968,0.015572254545986652,0.014409337192773819,-0.45385876297950745,0.890821099281311,[0. 0. 0. 0. 0. 0. 0. 0. 0.],-0.42724609375,-0.91552734375,-0.244140625,[0. 0. 0. 0. 0. 0. 0. 0. 0.],-0.0400390625,0.01513671875,1.00537109375,[0. 0. 0. 0. 0. 0. 0. 0. 0.]
10.293642044067383,0.01517164334654808,0.014913591556251049,-0.45389243960380554,0.8908024430274963,[0. 0. 0. 0. 0. 0. 0. 0. 0.],-0.18310546875,-0.18310546875,-0.06103515625,[0. 0. 0. 0. 0. 0. 0. 0. 0.],-0.04052734375,0.01318359375,1.00439453125,[0. 0. 0. 0. 0. 0. 0. 0. 0.]
10.309751033782959,0.015316316857933998,0.014107489958405495,-0.4539080858230591,0.8908052444458008,[0. 0. 0. 0. 0. 0. 0. 0. 0.],0.18310546875,-0.18310546875,-0.06103515625,[0. 0. 0. 0. 0. 0. 0. 0. 0.],-0.03955078125,0.0146484375,1.0048828125,[0. 0. 0. 0. 0. 0. 0. 0. 0.]
10.334051370620728,0.016536487266421318,0.01449098251760006,-0.45391157269477844,0.8907755017280579,[0. 0. 0. 0. 0. 0. 0. 0. 0.],-0.1220703125,-1.03759765625,-0.244140625,[0. 0. 0. 0. 0. 0. 0. 0. 0.],-0.041015625,0.01611328125,1.005859375,[0. 0. 0. 0. 0. 0. 0. 0. 0.]
10.353975534439087,0.015558178536593914,0.013524621725082397,-0.45393630862236023,0.8907957077026367,[0. 0. 0. 0. 0. 0. 0. 0. 0.],-0.42724609375,-1.28173828125,-0.244140625,[0. 0. 0. 0. 0. 0. 0. 0. 0.],-0.03857421875,0.015625,1.0029296875,[0. 0. 0. 0. 0. 0. 0. 0. 0.]
10.369110584259033,0.014435887336730957,0.014641845598816872,-0.4539888799190521,0.8907701373100281,[0. 0. 0. 0. 0. 0. 0. 0. 0.],0.06103515625,-0.42724609375,-0.18310546875,[0. 0. 0. 0. 0. 0. 0. 0. 0.],-0.03955078125,0.0126953125,1.00390625,[0. 0. 0. 0. 0. 0. 0. 0. 0.]
10.394249677658081,0.014578371308743954,0.014322121627628803,-0.45400676131248474,0.8907638192176819,[0. 0. 0. 0. 0. 0. 0. 0. 0.],0.1220703125,0.1220703125,0.06103515625,[0. 0. 0. 0. 0. 0. 0. 0. 0.],-0.03955078125,0.013671875,1.00439453125,[0. 0. 0. 0. 0. 0. 0. 0. 0.]
10.413773536682129,0.01613607443869114,0.01459525991231203,-0.4540117084980011,0.890730082988739,[0. 0. 0. 0. 0. 0. 0. 0. 0.],-0.18310546875,-0.732421875,-0.18310546875,[0. 0. 0. 0. 0. 0. 0. 0. 0.],-0.041015625,0.015625,1.00634765625,[0. 0. 0. 0. 0. 0. 0. 0. 0.]
10.435127973556519,0.015834849327802658,0.014246183447539806,-0.45403653383255005,0.8907284736633301,[0. 0. 0. 0. 0. 0. 0. 0. 0.],-0.18310546875,-1.0986328125,-0.18310546875,[0. 0. 0. 0. 0. 0. 0. 0. 0.],-0.0400390625,0.01513671875,1.00439453125,[0. 0. 0. 0. 0. 0. 0. 0. 0.]
10.453789710998535,0.015750760212540627,0.014979079365730286,-0.4540689289569855,0.890701413154602,[0. 0. 0. 0. 0. 0. 0. 0. 0.],0.1220703125,-0.8544921875,-0.244140625,[0. 0. 0. 0. 0. 0. 0. 0. 0.],-0.041015625,0.0146484375,1.00244140625,[0. 0. 0. 0. 0. 0. 0. 0. 0.]
10.474153995513916,0.016055181622505188,0.014669838361442089,-0.45408037304878235,0.8906952738761902,[0. 0. 0. 0. 0. 0. 0. 0. 0.],-0.1220703125,-0.30517578125,-0.06103515625,[0. 0. 0. 0. 0. 0. 0. 0. 0.],-0.04150390625,0.01513671875,1.00244140625,[0. 0. 0. 0. 0. 0. 0. 0. 0.]
10.489272117614746,0.016294362023472786,0.013416440226137638,-0.4540993273258209,0.8907009959220886,[0. 0. 0. 0. 0. 0. 0. 0. 0.],-0.3662109375,-0.3662109375,-0.1220703125,[0. 0. 0. 0. 0. 0. 0. 0. 0.],-0.0390625,0.0166015625,1.00390625,[0. 0. 0. 0. 0. 0. 0. 0. 0.]
10.509057521820068,0.016656789928674698,0.014510978013277054,-0.45413002371788025,0.8906614780426025,[0. 0. 0. 0. 0. 0. 0. 0. 0.],-0.30517578125,-0.79345703125,-0.06103515625,[0. 0. 0. 0. 0. 0. 0. 0. 0.],-0.04052734375,0.0166015625,1.00390625,[0. 0. 0. 0. 0. 0. 0. 0. 0.]
10.533798933029175,0.01627042517066002,0.014030111953616142,-0.454166054725647,0.8906579613685608,[0. 0. 0. 0. 0. 0. 0. 0. 0.],0.18310546875,-0.91552734375,-0.30517578125,[0. 0. 0. 0. 0. 0. 0. 0. 0.],-0.03955078125,0.0166015625,1.00341796875,[0. 0. 0. 0. 0. 0. 0. 0. 0.]
10.553664922714233,0.015346734784543514,0.013893868774175644,-0.45420047640800476,0.890658974647522,[0. 0. 0. 0. 0. 0. 0. 0. 0.],-0.18310546875,-0.8544921875,-0.244140625,[0. 0. 0. 0. 0. 0. 0. 0. 0.],-0.0390625,0.01513671875,1.0048828125,[0. 0. 0. 0. 0. 0. 0. 0. 0.]
10.573947429656982,0.016160786151885986,0.013581116683781147,-0.4542055130004883,0.8906468152999878,[0. 0. 0. 0. 0. 0. 0. 0. 0.],-0.42724609375,-0.48828125,-0.1220703125,[0. 0. 0. 0. 0. 0. 0. 0. 0.],-0.0390625,0.0166015625,1.00341796875,[0. 0. 0. 0. 0. 0. 0. 0. 0.]
10.593826293945312,0.015207840129733086,0.013309640809893608,-0.45425108075141907,0.8906444311141968,[0. 0. 0. 0. 0. 0. 0. 0. 0.],-0.06103515625,-0.1220703125,0.0,[0. 0. 0. 0. 0. 0. 0. 0. 0.],-0.0380859375,0.01513671875,1.00537109375,[0. 0. 0. 0. 0. 0. 0. 0. 0.]
10.61673355102539,0.015434040687978268,0.015289420261979103,-0.4542886018753052,0.8905896544456482,[0. 0. 0. 0. 0. 0. 0. 0. 0.],0.1220703125,0.0,0.0,[0. 0. 0. 0. 0. 0. 0. 0. 0.],-0.04150390625,0.013671875,1.00439453125,[0. 0. 0. 0. 0. 0. 0. 0. 0.]
