time,imu.ypr.x,imu.ypr.y,imu.ypr.z,imu.linear_acceleration.x,imu.linear_acceleration.y,imu.linear_acceleration.z,imu.angular_velocity.x,imu.angular_velocity.y,imu.angular_velocity.z,imu.compass.x,imu.compass.y,imu.compass.z,imu.orientation.x,imu.orientation.y,imu.orientation.z,imu.orientation.w
1.65403413772583,-0.864337814463488,2.3125978925814747,52.65035612269238,-0.04052734375,0.01513671875,1.0029296875,-0.06103515625,-0.18310546875,-0.1220703125,0.0,0.0,0.0,0.01570788398385048,0.014742275699973106,-0.4434985816478729,0.8960162401199341
1.6744496822357178,-0.9287282489250196,2.2258608934246595,52.652678387010184,-0.0390625,0.0166015625,1.001953125,-0.06103515625,0.06103515625,-0.06103515625,0.0,0.0,0.0,0.0158761627972126,0.01381442230194807,-0.44352611899375916,0.896014392375946
1.6916027069091797,-0.8325864528070672,2.3353945027100385,52.659669085625694,-0.041015625,0.0146484375,1.00537109375,-0.1220703125,-1.15966796875,-0.244140625,0.0,0.0,0.0,0.015549013391137123,0.015042177401483059,-0.44356682896614075,0.895980179309845
1.7145366668701172,-0.8143557174169511,2.2856295309739143,52.66190597257887,-0.0400390625,0.01416015625,1.00390625,-0.42724609375,-1.15966796875,-0.18310546875,0.0,0.0,0.0,0.015214236453175545,0.014723282307386398,-0.44358304142951965,0.8959831595420837
1.733900547027588,-0.7792710633630054,2.2382756160148043,52.667086671064325,-0.03955078125,0.013671875,1.0029296875,0.06103515625,-0.3662109375,-0.30517578125,0.0,0.0,0.0,0.01475735753774643,0.014488116838037968,-0.44362008571624756,0.8959764242172241
1.749528169631958,-0.7582608145066645,2.2467614857283102,52.67086718076993,-0.0390625,0.013671875,1.001953125,0.0,0.0,0.0,0.0,0.0,0.0,0.014626401476562023,0.014635330997407436,-0.4436468183994293,0.8959628343582153
1.7693674564361572,-0.9020257310865605,2.3102892886420103,52.66919719951786,-0.04052734375,0.015625,1.00439453125,-0.30517578125,-0.67138671875,-0.18310546875,0.0,0.0,0.0,0.015996042639017105,0.01457572914659977,-0.4436507821083069,0.8959384560585022
1.7953805923461914,-0.8571414097600861,2.32952630299594,52.67534436977087,-0.041015625,0.0146484375,1.0068359375,-0.1220703125,-1.40380859375,-0.3662109375,0.0,0.0,0.0,0.015720341354608536,0.014899087138473988,-0.44369271397590637,0.8959172964096069
1.8142971992492676,-0.8751877834034648,2.245285524537353,52.67754369068361,-0.03955078125,0.0146484375,1.0029296875,0.18310546875,-0.79345703125,-0.18310546875,0.0,0.0,0.0,0.015535731799900532,0.014170188456773758,-0.4437137246131897,0.8959218263626099
1.8369441032409668,-0.8373860480811763,2.3453941130983487,52.68258778538567,-0.041015625,0.01416015625,1.00341796875,-0.1220703125,-0.8544921875,-0.3662109375,0.0,0.0,0.0,0.01562824472784996,0.01509866863489151,-0.4437464475631714,0.8958888649940491
1.8539416790008545,-0.8751244974319364,2.3525602621981614,52.68323323826224,-0.04150390625,0.01513671875,1.00390625,-0.244140625,-0.48828125,-0.06103515625,0.0,0.0,0.0,0.01595110446214676,0.0150084737688303,-0.4437562823295593,0.895879864692688
1.8688724040985107,-0.8905867650523759,2.21028528735268,52.68517301198652,-0.03857421875,0.01513671875,1.0048828125,-0.06103515625,-0.1220703125,0.0,0.0,0.0,0.0,0.015521601773798466,0.013835840858519077,-0.4437757730484009,0.8958966732025146
1.8940234184265137,-0.9033852588965104,2.222772580702756,52.68805193672168,-0.0390625,0.015625,1.00390625,0.18310546875,-0.67138671875,-0.18310546875,0.0,0.0,0.0,0.01567034050822258,0.013883523643016815,-0.4437996447086334,0.8958815336227417
1.9147775173187256,-1.000963048926605,2.195975827598092,52.68713327627832,-0.03857421875,0.01708984375,1.00439453125,-0.244140625,-1.28173828125,-0.30517578125,0.0,0.0,0.0,0.016329383477568626,0.013296212069690228,-0.4438043236732483,0.8958762884140015
1.9337396621704102,-0.89488583552637,2.2195724236331937,52.69304480500496,-0.0390625,0.015625,1.00439453125,-0.42724609375,-0.8544921875,-0.1220703125,0.0,0.0,0.0,0.015592113137245178,0.013890739530324936,-0.4438377320766449,0.8958638310432434
1.9537534713745117,-0.822226976826862,2.287026304659182,52.699403711122244,-0.0400390625,0.0146484375,1.0048828125,0.18310546875,-0.1220703125,0.0,0.0,0.0,0.0,0.015285992994904518,0.014698733575642109,-0.4438771605491638,0.8958367705345154
1.9699430465698242,-0.8358430656589881,2.275416050287218,52.70245680568124,-0.0400390625,0.0146484375,1.00439453125,0.06103515625,-0.18310546875,-0.06103515625,0.0,0.0,0.0,0.01534788217395544,0.014554804190993309,-0.44390302896499634,0.8958251476287842
1.994994878768921,-0.7917553685053195,2.33756885074363,52.70797559853061,-0.04052734375,0.01416015625,1.00439453125,-0.18310546875,-1.220703125,-0.18310546875,0.0,0.0,0.0,0.015244582667946815,0.015210804529488087,-0.4439390301704407,0.8957982063293457
2.01377010345459,-0.7600920522561684,2.2852203599539482,52.71249035357199,-0.0400390625,0.01416015625,1.0029296875,-0.30517578125,-1.15966796875,-0.30517578125,0.0,0.0,0.0,0.01479495782405138,0.014923606999218464,-0.44397151470184326,0.8957944512367249
2.0339162349700928,-0.8648975164494588,2.2565199050615545,52.71240839130195,-0.03955078125,0.01513671875,1.0029296875,0.06103515625,-0.30517578125,-0.30517578125,0.0,0.0,0.0,0.01550310105085373,0.01429316308349371,-0.44398486614227295,0.8957861661911011
2.054412841796875,-0.8082887485258344,2.332962955365514,52.71671141047906,-0.041015625,0.01416015625,1.00341796875,-0.06103515625,0.0,0.06103515625,0.0,0.0,0.0,0.015357148833572865,0.015109572559595108,-0.4440096318721771,0.8957629799842834
2.074010133743286,-0.7944854164609146,2.2159867877623487,52.72163939196522,-0.0390625,0.013671875,1.00244140625,-0.244140625,-0.67138671875,-0.06103515625,0.0,0.0,0.0,0.014796862378716469,0.014247878454625607,-0.44404900074005127,0.895767092704773
2.0938303470611572,-0.7880807800927054,2.272857290669402,52.72409484497184,-0.0400390625,0.013671875,1.00341796875,0.0,-1.0986328125,-0.244140625,0.0,0.0,0.0,0.014967369846999645,0.014716992154717445,-0.4440661370754242,0.8957480788230896
2.11385178565979,-0.8161317266837131,2.2993695237064524,52.72648199608676,-0.0400390625,0.0146484375,1.00439453125,0.0,-0.8544921875,-0.244140625,0.0,0.0,0.0,0.01528963167220354,0.014815242029726505,-0.44408780336380005,0.8957302570343018
2.134474039077759,-0.809747100635338,2.307376212961,52.72930969440314,-0.04052734375,0.01416015625,1.0048828125,-0.244140625,-0.30517578125,-0.244140625,0.0,0.0,0.0,0.015271103009581566,0.014902201481163502,-0.4441089332103729,0.8957186937332153
2.1537089347839355,-0.747147509757672,2.445914860887073,52.734831902347096,-0.04296875,0.01318359375,1.00341796875,-0.30517578125,-0.30517578125,-0.18310546875,0.0,0.0,0.0,0.015319177880883217,0.0162271149456501,-0.4441397786140442,0.8956795930862427
2.1737818717956543,-0.8079736526895147,2.3798157051942743,52.73763911009598,-0.04150390625,0.01416015625,1.00439453125,0.06103515625,-0.6103515625,-0.1220703125,0.0,0.0,0.0,0.015538946725428104,0.01547425426542759,-0.4441720247268677,0.8956730961799622
2.193737745285034,-0.8173094007070114,2.2630023949141314,52.74083905372213,-0.0400390625,0.01416015625,1.00341796875,0.18310546875,-0.9765625,-0.3662109375,0.0,0.0,0.0,0.015159799717366695,0.01452446635812521,-0.44420096278190613,0.8956812024116516
2.214261770248413,-0.8532301659649019,2.209546132818438,52.74189773304348,-0.0390625,0.01513671875,1.00439453125,-0.18310546875,-1.03759765625,-0.244140625,0.0,0.0,0.0,0.015233594924211502,0.013967189937829971,-0.44421467185020447,0.8956820368766785
2.2338240146636963,-0.8144275944857949,2.287586807057946,52.745299167250145,-0.0400390625,0.01513671875,1.005859375,-0.30517578125,-0.42724609375,0.0,0.0,0.0,0.0,0.015233092941343784,0.014727229252457619,-0.4442349374294281,0.8956597447395325
2.253941774368286,-0.8707125687540784,2.247396906764533,52.74631345034189,-0.0400390625,0.01513671875,1.005859375,0.1220703125,0.18310546875,0.1220703125,0.0,0.0,0.0,0.015517433173954487,0.014194716699421406,-0.4442507028579712,0.8956556916236877
2.269299268722534,-0.7426293396217085,2.2818722866001724,52.75408620561736,-0.0400390625,0.01318359375,1.00634765625,0.244140625,-0.732421875,0.0,0.0,0.0,0.0,0.014650910161435604,0.014959769323468208,-0.44429442286491394,0.8956361413002014
2.3021979331970215,-0.866498075231916,2.282673766610591,52.752559658337866,-0.0400390625,0.01513671875,1.00439453125,-0.30517578125,-1.03759765625,-0.244140625,0.0,0.0,0.0,0.01562196109443903,0.014485969208180904,-0.4442984163761139,0.8956255316734314
2.315852403640747,-0.7866738678453886,2.2727964592971066,52.75900394181977,-0.03955078125,0.01416015625,1.0048828125,-0.1220703125,-1.28173828125,-0.30517578125,0.0,0.0,0.0,0.014960619620978832,0.014717412181198597,-0.4443388283252716,0.8956130146980286
2.334200620651245,-0.8370485406866425,2.2784443854104723,52.75860779084791,-0.0400390625,0.0146484375,1.00439453125,0.0,-0.54931640625,-0.06103515625,0.0,0.0,0.0,0.015376168303191662,0.014566279947757721,-0.4443420171737671,0.8956068754196167
2.3540596961975098,-0.8702038797434711,2.281166002351311,52.761083734422044,-0.0400390625,0.01513671875,1.001953125,-0.244140625,-0.1220703125,-0.1220703125,0.0,0.0,0.0,0.015646157786250114,0.014458651654422283,-0.444365531206131,0.8955922722816467
2.369675636291504,-0.8091477515356693,2.269129501486456,52.7669474518245,-0.03955078125,0.01416015625,1.00439453125,-0.244140625,-0.42724609375,-0.06103515625,0.0,0.0,0.0,0.015123068355023861,0.01460055448114872,-0.44440385699272156,0.895579993724823
2.3937857151031494,-0.7798781497863433,2.2894999003557843,52.77285215036198,-0.0400390625,0.013671875,1.005859375,0.06103515625,-0.8544921875,-0.30517578125,0.0,0.0,0.0,0.014974037185311317,0.014872520230710506,-0.44444575905799866,0.895557165145874
2.4097800254821777,-0.7398560693752717,2.3804714033545955,52.77768450919976,-0.04150390625,0.01318359375,1.00537109375,0.1220703125,-1.0986328125,-0.42724609375,0.0,0.0,0.0,0.01501456368714571,0.015738165006041527,-0.4444757401943207,0.8955267667770386
2.434178352355957,-0.8551214346739078,2.331313891567779,52.77547152790867,-0.0400390625,0.01513671875,1.001953125,-0.30517578125,-0.67138671875,-0.18310546875,0.0,0.0,0.0,0.01572449877858162,0.014907153323292732,-0.44447508454322815,0.8955291509628296
2.4561219215393066,-0.79633255574458,2.448361135826995,52.782441735956674,-0.04248046875,0.01416015625,1.00537109375,-0.1220703125,-0.732421875,-0.18310546875,0.0,0.0,0.0,0.015719763934612274,0.01604907214641571,-0.44451871514320374,0.895487904548645
2.468780755996704,-0.8057737981682417,2.36432547648692,52.78443615119431,-0.04150390625,0.01416015625,1.0068359375,0.18310546875,-0.244140625,0.06103515625,0.0,0.0,0.0,0.01546801719814539,0.015355372801423073,-0.444537878036499,0.8954948782920837
2.4951887130737305,-0.8149739562585431,2.1820014739996574,52.787878566536,-0.03857421875,0.0146484375,1.00439453125,0.06103515625,-1.03759765625,-0.244140625,0.0,0.0,0.0,0.01483343355357647,0.013894210569560528,-0.4445698857307434,0.8955135345458984
2.5138051509857178,-0.811342910301888,2.258326916983846,52.79017692519171,-0.0400390625,0.01416015625,1.001953125,-0.42724609375,-1.220703125,-0.244140625,0.0,0.0,0.0,0.015101294964551926,0.014504542574286461,-0.4445858895778656,0.8954915404319763
2.539703369140625,-0.8115078486981732,2.2333497689627557,52.792912415954305,-0.03955078125,0.01416015625,1.00390625,-0.244140625,-0.6103515625,-0.1220703125,0.0,0.0,0.0,0.015006075613200665,0.014308330602943897,-0.44460779428482056,0.8954854011535645
2.5537612438201904,-0.727274967645814,2.2767257390605677,52.80071249198646,-0.0400390625,0.0126953125,1.00537109375,0.06103515625,0.0,-0.18310546875,0.0,0.0,0.0,0.014517050236463547,0.014973165467381477,-0.44465693831443787,0.8954582810401917
2.5743813514709473,-0.8272313176935128,2.243157920610894,52.80124183164713,-0.03955078125,0.01416015625,1.00390625,-0.06103515625,-0.54931640625,-0.1220703125,0.0,0.0,0.0,0.015168022364377975,0.014322876930236816,-0.44467467069625854,0.8954492211341858
2.5939278602600098,-0.8661956792785843,2.2295760894463235,52.802201473225516,-0.0390625,0.01513671875,1.00146484375,-0.30517578125,-1.40380859375,-0.30517578125,0.0,0.0,0.0,0.015419942326843739,0.014065397903323174,-0.44468724727630615,0.89544278383255
2.613600969314575,-0.8716471307316065,2.203298644161992,52.80594783198527,-0.03857421875,0.01513671875,1.00244140625,-0.1220703125,-0.9765625,-0.244140625,0.0,0.0,0.0,0.015361083671450615,0.013838374055922031,-0.4447176158428192,0.89543217420578
2.634554147720337,-0.8631135030547632,2.2254978261815914,52.808543303869875,-0.0390625,0.01513671875,1.0048828125,0.0,-0.1220703125,-0.06103515625,0.0,0.0,0.0,0.015380818396806717,0.014044634066522121,-0.444736510515213,0.8954192996025085
2.6570589542388916,-0.8481805217341468,2.321650667996092,52.811651039942234,-0.04052734375,0.01416015625,1.0029296875,-0.3662109375,-0.42724609375,-0.06103515625,0.0,0.0,0.0,0.015637489035725594,0.01485360972583294,-0.4447571337223053,0.8953914642333984
2.6762824058532715,-0.7547034598878515,2.296081854838149,52.8179211536003,-0.0400390625,0.01318359375,1.00537109375,-0.244140625,-0.30517578125,0.0,0.0,0.0,0.0,0.014808712527155876,0.015015782788395882,-0.44479450583457947,0.8953843712806702
2.6945338249206543,-0.7786811057734456,2.2423664724408185,52.82044832359321,-0.03955078125,0.01416015625,1.00732421875,0.18310546875,-1.0986328125,-0.3662109375,0.0,0.0,0.0,0.014787997119128704,0.014502611942589283,-0.4448186457157135,0.8953812122344971
2.7136476039886475,-0.8377277176222356,2.3163297371892404,52.81976188958162,-0.04052734375,0.0146484375,1.00439453125,-0.1220703125,-0.54931640625,-0.1220703125,0.0,0.0,0.0,0.015536223538219929,0.014851497486233711,-0.44481924176216125,0.8953624963760376
2.7338569164276123,-0.8717606292657051,2.2609068074994068,52.82194413502144,-0.03955078125,0.0146484375,1.00341796875,-0.30517578125,-0.30517578125,-0.18310546875,0.0,0.0,0.0,0.0155873978510499,0.014285978861153126,-0.4448416233062744,0.8953597545623779
2.7513668537139893,-0.8890378595755168,2.3086805656490608,52.823754135151496,-0.04052734375,0.015625,1.0029296875,-0.06103515625,-0.42724609375,-0.06103515625,0.0,0.0,0.0,0.01590796746313572,0.01459199097007513,-0.4448571503162384,0.8953413963317871
2.7741165161132812,-0.8778376299971653,2.300187652302973,52.82782151280224,-0.04052734375,0.01513671875,1.00439453125,0.244140625,-0.79345703125,-0.06103515625,0.0,0.0,0.0,0.01578802429139614,0.014568542130291462,-0.4448876678943634,0.89532870054245
2.7943649291992188,-0.7318562103098943,2.207010425089071,52.836021154900834,-0.03857421875,0.0126953125,1.00390625,0.0,-0.9765625,-0.06103515625,0.0,0.0,0.0,0.014286905527114868,0.01440613716840744,-0.44493526220321655,0.895332932472229
2.8136165142059326,-0.8073835350173961,2.2653359717327484,52.83708324931678,-0.0400390625,0.01416015625,1.0029296875,-0.18310546875,-1.3427734375,-0.30517578125,0.0,0.0,0.0,0.015103498473763466,0.014568503946065903,-0.44495177268981934,0.8953086733818054
2.8319883346557617,-0.8049231194514578,2.3600267261780434,52.837472570099465,-0.04150390625,0.01416015625,1.00634765625,-0.30517578125,-0.67138671875,-0.18310546875,0.0,0.0,0.0,0.015451792627573013,0.015317924320697784,-0.4449522793292999,0.8952900171279907
2.8538663387298584,-0.8611287461314927,2.3027447043734965,52.83939868344541,-0.0400390625,0.01513671875,1.00390625,0.1220703125,0.244140625,-0.06103515625,0.0,0.0,0.0,0.015668876469135284,0.014651811681687832,-0.44497594237327576,0.8952855467796326
2.869906425476074,-0.8334371315238511,2.3614474055254058,52.84348996675825,-0.041015625,0.01513671875,1.00341796875,-0.1220703125,-0.54931640625,-0.06103515625,0.0,0.0,0.0,0.015680883079767227,0.015217483974993229,-0.44500306248664856,0.8952624201774597
2.893712282180786,-0.8073910055368009,2.3370352422147227,52.848247193515164,-0.041015625,0.0146484375,1.0048828125,-0.244140625,-1.15966796875,-0.18310546875,0.0,0.0,0.0,0.015383274294435978,0.015127239748835564,-0.4450373351573944,0.8952521085739136
2.9140758514404297,-0.8258117589240608,2.279974347784555,52.851819382451076,-0.0400390625,0.0146484375,1.001953125,0.1220703125,-0.91552734375,-0.30517578125,0.0,0.0,0.0,0.015306162647902966,0.014609365724027157,-0.445068895816803,0.8952463865280151
2.93418288230896,-0.9126911781972412,2.245065677823443,52.849473212471175,-0.0400390625,0.015625,1.00341796875,-0.1220703125,-0.30517578125,-0.1220703125,0.0,0.0,0.0,0.015849117189645767,0.013999485410749912,-0.4450620710849762,0.8952500224113464
2.9538254737854004,-0.8342742565840008,2.2574793331965295,52.855070552496,-0.0390625,0.01416015625,1.00146484375,-0.30517578125,-0.30517578125,0.06103515625,0.0,0.0,0.0,0.015285366214811802,0.014400297775864601,-0.44509583711624146,0.8952367305755615
2.9739115238189697,-0.806955847781477,2.3507822785798425,52.860428835899874,-0.04052734375,0.01416015625,1.0029296875,-0.18310546875,-0.67138671875,-0.18310546875,0.0,0.0,0.0,0.015434851869940758,0.015234704129397869,-0.4451321065425873,0.8952023386955261
2.992870569229126,-0.7989946753344453,2.334196017954113,52.86611155328933,-0.04052734375,0.0146484375,1.0048828125,0.1220703125,-0.91552734375,-0.30517578125,0.0,0.0,0.0,0.015309016220271587,0.01513527613133192,-0.4451758861541748,0.8951843976974487
3.009310722351074,-0.8900369881850427,2.2652294634703787,52.864192270132556,-0.0400390625,0.01513671875,1.00244140625,0.06103515625,-0.91552734375,-0.06103515625,0.0,0.0,0.0,0.015752224251627922,0.01424300204962492,-0.4451739490032196,0.8951923251152039
3.0343775749206543,-0.7908366547010999,2.2408986220995004,52.87206064805641,-0.03955078125,0.01416015625,1.00537109375,-0.42724609375,-0.48828125,-0.244140625,0.0,0.0,0.0,0.01488378643989563,0.014437255449593067,-0.44522345066070557,0.8951794505119324
3.0539309978485107,-0.8527071228848669,2.3119964090476905,52.87301345944562,-0.0400390625,0.01513671875,1.005859375,0.0,-0.244140625,-0.1220703125,0.0,0.0,0.0,0.01564330980181694,0.014752219431102276,-0.44523727893829346,0.8951545357704163
3.076476812362671,-0.9157998747649491,2.248078431577653,52.87509666714248,-0.03955078125,0.01611328125,1.00390625,0.06103515625,-0.1220703125,-0.1220703125,0.0,0.0,0.0,0.01588822901248932,0.01400740072131157,-0.4452625513076782,0.8951495885848999
3.0937979221343994,-0.8605723525184011,2.3173653646221437,52.88104576190956,-0.041015625,0.0146484375,1.00341796875,-0.1220703125,-1.0986328125,-0.244140625,0.0,0.0,0.0,0.015726635232567787,0.014762504026293755,-0.4453009366989136,0.895121157169342
3.1106717586517334,-0.8249133756047926,2.307418047869666,52.88523608296536,-0.041015625,0.01416015625,1.00341796875,-0.30517578125,-1.0986328125,-0.18310546875,0.0,0.0,0.0,0.01540999673306942,0.014822795987129211,-0.4453292787075043,0.8951115608215332
3.1347272396087646,-0.8034509468810556,2.2705817704587297,52.8886443473612,-0.03955078125,0.01416015625,1.0048828125,0.0,-0.18310546875,-0.06103515625,0.0,0.0,0.0,0.015099707990884781,0.014617972075939178,-0.4453539550304413,0.8951079845428467
3.154177665710449,-0.8318556225658759,2.319228725605088,52.89143447963715,-0.04052734375,0.01416015625,1.00390625,0.18310546875,-0.1220703125,-0.1220703125,0.0,0.0,0.0,0.015510901808738708,0.014887248165905476,-0.44537830352783203,0.8950843811035156
3.1737730503082275,-0.7373775644802034,2.3237447613069357,52.89841834806349,-0.04052734375,0.013671875,1.005859375,-0.244140625,-0.91552734375,-0.1220703125,0.0,0.0,0.0,0.0147913983091712,0.015288826078176498,-0.44542035460472107,0.8950687646865845
3.195518970489502,-0.8177614738527016,2.2784964656028937,52.89847298957685,-0.0400390625,0.013671875,1.00244140625,-0.3662109375,-1.3427734375,-0.244140625,0.0,0.0,0.0,0.015243489295244217,0.014622881077229977,-0.4454323947429657,0.8950664401054382
3.21457839012146,-0.7866802711477355,2.2409803709261293,52.90169000867593,-0.03955078125,0.013671875,1.00341796875,0.0,-0.6103515625,-0.1220703125,0.0,0.0,0.0,0.014855371788144112,0.014450200833380222,-0.4454543888568878,0.8950647711753845
3.2344810962677,-0.8603154200117322,2.283196276082097,52.90232180117415,-0.0400390625,0.0146484375,1.0048828125,-0.06103515625,0.06103515625,-0.06103515625,0.0,0.0,0.0,0.015594620257616043,0.01449365820735693,-0.4454677700996399,0.8950448036193848
3.254197597503662,-0.8046991105910225,2.211075241418875,52.90696291471517,-0.0390625,0.01416015625,1.005859375,-0.42724609375,-0.30517578125,0.0,0.0,0.0,0.0,0.014880577102303505,0.014145852997899055,-0.44549843668937683,0.8950473666191101
3.274592161178589,-0.8862628817817876,2.2736291020456134,52.90732491474119,-0.0400390625,0.015625,1.00537109375,0.0,-0.48828125,-0.1220703125,0.0,0.0,0.0,0.015760743990540504,0.014317362569272518,-0.44551026821136475,0.8950235843658447
3.2892239093780518,-0.8211846792873474,2.359619476148781,52.912720764185494,-0.04150390625,0.01416015625,1.0048828125,0.244140625,-0.79345703125,-0.1220703125,0.0,0.0,0.0,0.015587272122502327,0.015241366811096668,-0.44554221630096436,0.8949955701828003
3.3138976097106934,-0.7354179938794972,2.3112333488513532,52.919031858978585,-0.04052734375,0.0126953125,1.005859375,-0.06103515625,-1.0986328125,-0.3662109375,0.0,0.0,0.0,0.014730215072631836,0.015196054242551327,-0.4455814063549042,0.8949913382530212
3.334312677383423,-0.8218351480840853,2.262524922002465,52.917341387159006,-0.03955078125,0.01416015625,1.0029296875,-0.30517578125,-0.67138671875,-0.1220703125,0.0,0.0,0.0,0.015215643681585789,0.01447976939380169,-0.4455806016921997,0.8949954509735107
3.3492565155029297,-0.7636571975595035,2.2815294964812023,52.92307191587265,-0.0400390625,0.01318359375,1.0009765625,0.06103515625,0.06103515625,-0.06103515625,0.0,0.0,0.0,0.014835855923593044,0.014853698201477528,-0.4456174969673157,0.8949772715568542
3.376274585723877,-0.8134093626909341,2.2797367852674855,52.924697500895114,-0.03955078125,0.013671875,1.00244140625,0.18310546875,-0.42724609375,-0.06103515625,0.0,0.0,0.0,0.015217667445540428,0.014646004885435104,-0.4456366300582886,0.8949646949768066
3.3957433700561523,-0.8996040021389679,2.240590196369792,52.9229250668055,-0.03955078125,0.015625,1.00341796875,-0.18310546875,-1.220703125,-0.18310546875,0.0,0.0,0.0,0.015738481655716896,0.014005259610712528,-0.44563427567481995,0.894967257976532
3.416135549545288,-0.7431475802249832,2.3005970367663506,52.933382086424785,-0.04052734375,0.01318359375,1.00341796875,-0.18310546875,-1.220703125,-0.30517578125,0.0,0.0,0.0,0.014751137234270573,0.015081067569553852,-0.44569480419158936,0.8949364423751831
3.4290177822113037,-0.7813756154010156,2.2302763972796615,52.93376116192372,-0.0390625,0.013671875,1.00244140625,0.0,-0.1220703125,-0.06103515625,0.0,0.0,0.0,0.014776376076042652,0.014383068308234215,-0.44570446014404297,0.8949427008628845
3.4538638591766357,-0.75191829017122,2.3690805688097183,52.93853887924814,-0.041015625,0.01318359375,1.0029296875,0.06103515625,-0.1220703125,-0.06103515625,0.0,0.0,0.0,0.015086554922163486,0.015581184066832066,-0.44573432207107544,0.8949025869369507
3.474208116531372,-0.7441590351915269,2.3388597564967624,52.941691011550105,-0.041015625,0.01318359375,1.00341796875,-0.18310546875,-0.91552734375,-0.06103515625,0.0,0.0,0.0,0.014908893965184689,0.01537491474300623,-0.44575875997543335,0.894896924495697
3.494489908218384,-0.7641253856827667,2.282736732417002,52.9441976909755,-0.04052734375,0.013671875,1.00439453125,-0.244140625,-1.28173828125,-0.244140625,0.0,0.0,0.0,0.014846944250166416,0.014858570881187916,-0.44578251242637634,0.8948948383331299
3.5176305770874023,-0.7588760117796416,2.2887086656291205,52.94730884214244,-0.04052734375,0.013671875,1.00244140625,0.1220703125,-0.67138671875,-0.18310546875,0.0,0.0,0.0,0.014829575084149837,0.014925234019756317,-0.44580596685409546,0.894882321357727
3.540916919708252,-0.7979888232574552,2.3418046352460955,52.94734299308829,-0.041015625,0.013671875,1.00390625,-0.244140625,-0.06103515625,0.0,0.0,0.0,0.0,0.015341471880674362,0.015187760815024376,-0.4458100199699402,0.8948673009872437
3.5538041591644287,-0.8017677854983234,2.240756682230811,52.94961403098732,-0.0400390625,0.01416015625,1.00439453125,-0.42724609375,-0.42724609375,-0.06103515625,0.0,0.0,0.0,0.01497836783528328,0.01438354142010212,-0.4458305835723877,0.8948764204978943
3.573762893676758,-0.791865451944833,2.3005317230824125,52.95343210673336,-0.04052734375,0.013671875,1.0048828125,0.06103515625,-0.79345703125,-0.18310546875,0.0,0.0,0.0,0.015133966691792011,0.01488842349499464,-0.44585779309272766,0.8948519825935364
3.588862657546997,-0.79195381751722,2.2920603675208926,52.95693257868299,-0.0400390625,0.0146484375,1.00390625,0.1220703125,-0.91552734375,-0.3662109375,0.0,0.0,0.0,0.015102164819836617,0.014821456745266914,-0.4458853006362915,0.8948400020599365
3.6091930866241455,-0.9101150229413828,2.2116071424004895,52.95504061628289,-0.0390625,0.01611328125,1.00390625,-0.3662109375,-0.8544921875,-0.1220703125,0.0,0.0,0.0,0.015711776912212372,0.013733585365116596,-0.4458867013454437,0.8948462605476379
3.6352357864379883,-0.7714190672209883,2.340861642253811,52.962338673411054,-0.04052734375,0.013671875,1.00244140625,-0.30517578125,-0.30517578125,0.06103515625,0.0,0.0,0.0,0.015132317319512367,0.015281781554222107,-0.4459236264228821,0.8948125839233398
3.6538338661193848,-0.7552919767343832,2.2322080601543055,52.96776525870663,-0.03955078125,0.01318359375,1.00341796875,0.1220703125,-0.18310546875,-0.18310546875,0.0,0.0,0.0,0.014584478922188282,0.01449528243392706,-0.4459666609764099,0.8948133587837219
3.673893690109253,-0.7625761600407902,2.1823976249715185,52.97099935327863,-0.03857421875,0.013671875,1.00537109375,0.0,-0.8544921875,-0.244140625,0.0,0.0,0.0,0.01444800291210413,0.014077519066631794,-0.44599398970603943,0.8948086500167847
3.6939566135406494,-0.9295515001634177,2.2927354890316662,52.96669974919611,-0.0400390625,0.01611328125,1.0048828125,-0.244140625,-1.28173828125,-0.244140625,0.0,0.0,0.0,0.0161804910749197,0.014289936982095242,-0.4459790587425232,0.894783079624176
3.7143449783325195,-0.8134923388171792,2.3002113445216565,52.97451007051202,-0.04052734375,0.013671875,1.0048828125,-0.1220703125,-1.28173828125,-0.18310546875,0.0,0.0,0.0,0.015304326079785824,0.014798958785831928,-0.44602516293525696,0.8947672247886658
3.7341651916503906,-0.8369445937452114,2.2236161090652526,52.97685282539733,-0.0390625,0.0146484375,1.0048828125,0.1220703125,-0.244140625,-0.18310546875,0.0,0.0,0.0,0.01518977526575327,0.01410919614136219,-0.4460480213165283,0.8947689533233643
3.74890398979187,-0.8100089423404727,2.3104211966703563,52.98177397669433,-0.04052734375,0.01416015625,1.0068359375,-0.18310546875,-0.18310546875,0.0,0.0,0.0,0.0,0.015317786484956741,0.01489128079265356,-0.44608116149902344,0.8947376012802124
3.7691802978515625,-0.8192225473657025,2.251491818615367,52.986319467586966,-0.03955078125,0.013671875,1.00390625,-0.30517578125,-0.67138671875,-0.18310546875,0.0,0.0,0.0,0.015161028131842613,0.01439461950212717,-0.44611915946006775,0.8947294354438782
3.7913150787353516,-0.798399595103008,2.2217873259149816,52.98998386407668,-0.0390625,0.01318359375,1.0048828125,0.06103515625,-1.0986328125,-0.244140625,0.0,0.0,0.0,0.014883321709930897,0.014243245124816895,-0.44614580273628235,0.894723117351532
3.8143794536590576,-0.8743435079890277,2.2761882885502525,52.98810897714951,-0.03955078125,0.01513671875,1.001953125,0.06103515625,-0.8544921875,-0.1220703125,0.0,0.0,0.0,0.0156877264380455,0.014372637495398521,-0.4461396038532257,0.8947104811668396
3.8341152667999268,-0.9134160320229088,2.35873710108538,52.98755573182674,-0.041015625,0.01611328125,1.00537109375,-0.244140625,-0.3662109375,-0.1220703125,0.0,0.0,0.0,0.016313906759023666,0.014865215867757797,-0.44613873958587646,0.8946916460990906
3.854423761367798,-0.7758859575773237,2.3289956826747944,52.99632569472104,-0.041015625,0.013671875,1.00732421875,-0.3662109375,-0.30517578125,0.0,0.0,0.0,0.0,0.015125546604394913,0.015167243778705597,-0.44618988037109375,0.8946819305419922
3.8741719722747803,-0.8342756973270289,2.379955510628848,52.99902361944319,-0.0419921875,0.0146484375,1.00634765625,0.244140625,-0.54931640625,-0.18310546875,0.0,0.0,0.0,0.015780095010995865,0.015337442047894001,-0.44621741771698,0.8946540355682373
3.8933792114257812,-0.8862170448091544,2.3547480571666815,53.001981091353805,-0.041015625,0.015625,1.00390625,0.0,-0.732421875,-0.1220703125,0.0,0.0,0.0,0.016087908297777176,0.014937933534383774,-0.44624796509742737,0.8946400284767151
3.909205675125122,-0.8091677084946505,2.357720470116106,53.006939808691236,-0.041015625,0.0146484375,1.00341796875,-0.244140625,-1.03759765625,-0.18310546875,0.0,0.0,0.0,0.015498589724302292,0.015260518528521061,-0.4462764263153076,0.8946309089660645
3.9306862354278564,-0.7817952451481484,2.3169649447820517,53.01104475238241,-0.04052734375,0.013671875,1.0029296875,-0.244140625,-0.42724609375,-0.06103515625,0.0,0.0,0.0,0.015126796439290047,0.015048348344862461,-0.44630587100982666,0.8946261405944824
3.9493517875671387,-0.7850189877146886,2.3109501094442093,53.01362656388868,-0.04052734375,0.013671875,1.00390625,0.18310546875,-0.1220703125,0.06103515625,0.0,0.0,0.0,0.015128889121115208,0.014988486655056477,-0.4463266134262085,0.8946167826652527
3.9749133586883545,-0.7295640415131204,2.3301997169594206,53.02030990399154,-0.04052734375,0.0126953125,1.00341796875,0.1220703125,-0.79345703125,-0.1220703125,0.0,0.0,0.0,0.014771784655749798,0.015353919006884098,-0.4463709592819214,0.8945943117141724
3.9940850734710693,-0.8066633235859301,2.3431911636476084,53.020511394572054,-0.04052734375,0.013671875,1.00439453125,-0.30517578125,-1.46484375,-0.3662109375,0.0,0.0,0.0,0.015424280427396297,0.015154995024204254,-0.44638240337371826,0.894581139087677
4.014077186584473,-0.8063704792252657,2.3478574635111964,53.02397088538666,-0.041015625,0.013671875,1.0048828125,-0.06103515625,-0.732421875,-0.30517578125,0.0,0.0,0.0,0.0154406214132905,0.015192104503512383,-0.4464092552661896,0.8945667743682861
4.034127235412598,-0.7947362124695011,2.2728370135453035,53.028393432874246,-0.0400390625,0.013671875,1.00341796875,0.1220703125,0.1220703125,0.0,0.0,0.0,0.0,0.015058275312185287,0.014651107601821423,-0.4464440941810608,0.8945648670196533
4.0557520389556885,-0.8167658670594665,2.3285971838254067,53.03135773497403,-0.0400390625,0.0146484375,1.00390625,-0.06103515625,-0.30517578125,-0.06103515625,0.0,0.0,0.0,0.015447755344212055,0.015000233426690102,-0.4464687705039978,0.8945400714874268
4.074355602264404,-0.8741805439442994,2.350519316296797,53.03178462179716,-0.04052734375,0.01513671875,1.00390625,-0.18310546875,-1.220703125,-0.1220703125,0.0,0.0,0.0,0.015981366857886314,0.014947629533708096,-0.4464791417121887,0.8945264220237732
4.094288110733032,-0.7560252082139547,2.3723906492362357,53.039755452558566,-0.04150390625,0.0126953125,1.0048828125,0.0,-1.15966796875,-0.244140625,0.0,0.0,0.0,0.015145261771976948,0.015577691607177258,-0.44652506709098816,0.8945073485374451
4.113867521286011,-0.8069541935950374,2.277316336980362,53.03880264116935,-0.0400390625,0.01416015625,1.005859375,0.06103515625,-0.3662109375,-0.18310546875,0.0,0.0,0.0,0.015172425657510757,0.014637100510299206,-0.44652679562568665,0.8945218920707703
4.133758783340454,-0.7997025070480408,2.3144204858728106,53.041903547052534,-0.04052734375,0.01416015625,1.00341796875,-0.30517578125,-0.244140625,0.0,0.0,0.0,0.0,0.015260724350810051,0.014954625628888607,-0.4465492367744446,0.8945039510726929
4.153665542602539,-0.7677744676076989,2.279038825311675,53.04686909457913,-0.0400390625,0.01318359375,1.00390625,-0.18310546875,-0.67138671875,0.0,0.0,0.0,0.0,0.014874331653118134,0.014802171848714352,-0.44658470153808594,0.8944952487945557
4.174433469772339,-0.8260990537560244,2.270085087640023,53.047504302171944,-0.0400390625,0.01416015625,1.00390625,0.30517578125,-0.30517578125,-0.1220703125,0.0,0.0,0.0,0.015294811688363552,0.014504881575703621,-0.44659727811813354,0.8944868445396423
4.194434642791748,-0.7811973367915077,2.2397470948941187,53.05274647235993,-0.03955078125,0.013671875,1.00634765625,0.06103515625,-1.03759765625,-0.18310546875,0.0,0.0,0.0,0.014826805330812931,0.014442349784076214,-0.4466332197189331,0.8944777250289917
4.213854789733887,-0.7569796737896111,2.285794095844229,53.056093265053235,-0.04052734375,0.01318359375,1.00537109375,-0.244140625,-1.28173828125,-0.244140625,0.0,0.0,0.0,0.014817580580711365,0.014895785599946976,-0.44665512442588806,0.8944594264030457
4.234066963195801,-0.9056229996233358,2.248581090811884,53.051715113795254,-0.03955078125,0.0166015625,1.00634765625,-0.06103515625,-0.42724609375,-0.1220703125,0.0,0.0,0.0,0.01583232171833515,0.01402648538351059,-0.4466404616832733,0.8944634795188904
4.254055976867676,-0.9031512181957316,2.248418873819096,53.05549220840627,-0.03955078125,0.015625,1.00244140625,0.06103515625,0.0,0.0,0.0,0.0,0.0,0.015812857076525688,0.0140343327075243,-0.44666963815689087,0.8944492340087891
4.274133920669556,-0.8186192495629201,2.1979431355224675,53.06201162396905,-0.03857421875,0.0146484375,1.00390625,0.0,-0.732421875,-0.06103515625,0.0,0.0,0.0,0.014957193285226822,0.013968925923109055,-0.4467110335826874,0.8944442272186279
4.293854713439941,-0.8462187633384722,2.2369966630927194,53.064586605286145,-0.0400390625,0.0146484375,1.00537109375,-0.244140625,-1.40380859375,-0.244140625,0.0,0.0,0.0,0.015325093641877174,0.014165863394737244,-0.4467338025569916,0.8944236040115356
4.313674211502075,-0.8446232204761867,2.3142364976520433,53.06690203941478,-0.041015625,0.0146484375,1.00341796875,0.06103515625,-0.79345703125,-0.244140625,0.0,0.0,0.0,0.015613880939781666,0.014774731360375881,-0.4467501640319824,0.8944005370140076
4.335249662399292,-0.8492730318362315,2.3036433011361765,53.0688110772878,-0.04052734375,0.0146484375,1.00244140625,0.18310546875,0.06103515625,-0.06103515625,0.0,0.0,0.0,0.015609142370522022,0.014673651196062565,-0.44676584005355835,0.8943945169448853
4.353740930557251,-0.8307309892303509,2.2029424071080936,53.0723866813183,-0.03857421875,0.0146484375,1.005859375,-0.3662109375,-0.30517578125,0.0,0.0,0.0,0.0,0.015072472393512726,0.013959373347461224,-0.4467933773994446,0.8944013714790344
4.369034767150879,-0.8141619641601049,2.2273643888157086,53.07671702125209,-0.0390625,0.01416015625,1.0048828125,-0.06103515625,-0.9765625,-0.244140625,0.0,0.0,0.0,0.01503885816782713,0.014214050024747849,-0.44682472944259644,0.894382119178772
4.395852565765381,-0.8491701521118582,2.2660411887645524,53.07789181378933,-0.04052734375,0.0146484375,1.0048828125,0.1220703125,-1.03759765625,-0.244140625,0.0,0.0,0.0,0.015462963841855526,0.014379294589161873,-0.44683748483657837,0.8943660259246826
4.4153218269348145,-0.863435429080253,2.19854440561284,53.08026871962049,-0.0390625,0.0146484375,1.0029296875,-0.06103515625,-0.54931640625,-0.1220703125,0.0,0.0,0.0,0.015311543829739094,0.013796471990644932,-0.4468589425086975,0.8943670988082886
4.434131860733032,-0.7946949645302166,2.270084447309788,53.08635783326556,-0.03955078125,0.01416015625,1.0048828125,-0.244140625,-0.3662109375,-0.1220703125,0.0,0.0,0.0,0.015054632909595966,0.014622163958847523,-0.44689658284187317,0.8943394422531128
4.453894376754761,-0.8616708390360096,2.3612751566922747,53.08888841835305,-0.04150390625,0.01513671875,1.00537109375,-0.18310546875,-0.48828125,-0.1220703125,0.0,0.0,0.0,0.01593310758471489,0.015072408132255077,-0.44692298769950867,0.894303560256958
4.474955081939697,-0.813242876829915,2.2783927321048743,53.094711154620484,-0.0400390625,0.01416015625,1.0048828125,0.244140625,-0.8544921875,-0.244140625,0.0,0.0,0.0,0.015232840552926064,0.014613569714128971,-0.44696393609046936,0.8943029046058655
4.497012615203857,-0.8427102339000542,2.22717335696236,53.09558883392883,-0.0390625,0.0146484375,1.00390625,0.06103515625,-1.0986328125,-0.244140625,0.0,0.0,0.0,0.015263251960277557,0.014098726212978363,-0.4469755291938782,0.8943048119544983
4.514751672744751,-0.8456428396532226,2.2191346511960783,53.09659628683141,-0.0390625,0.01513671875,1.00439453125,-0.30517578125,-0.67138671875,0.0,0.0,0.0,0.0,0.015254924073815346,0.014024408534169197,-0.4469839036464691,0.8943019509315491
4.529606342315674,-0.7907972210308136,2.2829860343217074,53.101893098532756,-0.04052734375,0.01318359375,1.00341796875,0.06103515625,-0.06103515625,0.0,0.0,0.0,0.0,0.015076497569680214,0.014736025594174862,-0.44701701402664185,0.894277036190033
4.553860902786255,-0.7298736411815924,2.360555852395308,53.10916383490423,-0.04150390625,0.0126953125,1.0048828125,0.06103515625,-0.3662109375,0.0,0.0,0.0,0.0,0.014904468320310116,0.015578174963593483,-0.4470635950565338,0.8942423462867737
4.576132774353027,-0.8338509449380187,2.279936354857297,53.110256665171434,-0.0400390625,0.0146484375,1.00439453125,-0.244140625,-0.79345703125,-0.244140625,0.0,0.0,0.0,0.015401660464704037,0.014543145895004272,-0.4470878541469574,0.8942392468452454
4.5963921546936035,-0.7990988890801409,2.257991383940869,53.11336440124379,-0.0400390625,0.01416015625,1.00537109375,-0.3662109375,-1.220703125,-0.244140625,0.0,0.0,0.0,0.01504528522491455,0.014507047832012177,-0.4471081793308258,0.8942357897758484
4.621342182159424,-0.8247761314911576,2.269495556937286,53.1154578542244,-0.0400390625,0.01416015625,1.00537109375,0.1220703125,-0.1220703125,-0.1220703125,0.0,0.0,0.0,0.015290789306163788,0.014496369287371635,-0.4471275210380554,0.89422208070755
4.630316495895386,-0.7836203463995698,2.283664997813889,53.12160160938283,-0.03955078125,0.013671875,1.00390625,0.0,-0.244140625,-0.30517578125,0.0,0.0,0.0,0.015025678090751171,0.014766737818717957,-0.4471698999404907,0.89420086145401
4.6546080112457275,-0.7953066933477558,2.3432018358181863,53.12590121346535,-0.041015625,0.013671875,1.00244140625,-0.3662109375,-0.54931640625,-0.1220703125,0.0,0.0,0.0,0.015349638648331165,0.01518520899116993,-0.44720345735549927,0.8941716551780701
4.674280643463135,-0.8407650707296286,2.366157674731776,53.12688476070583,-0.04150390625,0.0146484375,1.00439453125,-0.06103515625,-0.79345703125,-0.244140625,0.0,0.0,0.0,0.015794020146131516,0.015186818316578865,-0.44721660017967224,0.8941572904586792
4.689165830612183,-0.7899642047563364,2.3290161732423047,53.13277921395955,-0.041015625,0.013671875,1.00390625,0.1220703125,-1.0986328125,-0.30517578125,0.0,0.0,0.0,0.015253526158630848,0.015094432048499584,-0.44725680351257324,0.8941481709480286
4.713931560516357,-0.8843956788174353,2.3212485406087073,53.13186396861077,-0.04052734375,0.01513671875,1.00390625,-0.18310546875,-0.67138671875,-0.244140625,0.0,0.0,0.0,0.01595994457602501,0.014665365219116211,-0.44726207852363586,0.894140362739563
4.7344889640808105,-0.8999410292858256,2.2243038237373085,53.13404621405059,-0.03955078125,0.01513671875,1.00244140625,-0.244140625,-0.30517578125,-0.18310546875,0.0,0.0,0.0,0.0157033558934927,0.01384782511740923,-0.4472826421260834,0.8941476345062256
4.754009485244751,-0.8052807972483843,2.258045598567406,53.140394874884116,-0.03955078125,0.0146484375,1.00244140625,0.0,-0.244140625,-0.06103515625,0.0,0.0,0.0,0.01509715523570776,0.014479790814220905,-0.4473198652267456,0.8941294550895691
4.769026517868042,-0.8260540171961847,2.2632689857351735,53.142857158079906,-0.04052734375,0.01416015625,1.00390625,0.1220703125,-0.67138671875,-0.06103515625,0.0,0.0,0.0,0.015279932878911495,0.014439135789871216,-0.44734159111976624,0.8941161036491394
4.793746709823608,-0.8222883951685391,2.3206389462252837,53.14512478088435,-0.04052734375,0.01416015625,1.00537109375,-0.3662109375,-1.28173828125,-0.30517578125,0.0,0.0,0.0,0.015474677085876465,0.014901228249073029,-0.44735753536224365,0.8940972089767456
4.814399242401123,-0.8496672618173882,2.2434925998802244,53.1476417055935,-0.03955078125,0.0146484375,1.00537109375,-0.42724609375,-0.8544921875,-0.1220703125,0.0,0.0,0.0,0.015387611463665962,0.014191979542374611,-0.44738227128982544,0.8940978646278381
4.833586931228638,-0.8858004032697837,2.258358720052169,53.149687347249916,-0.03955078125,0.015625,1.00634765625,0.06103515625,0.06103515625,-0.244140625,0.0,0.0,0.0,0.015727797523140907,0.014166640117764473,-0.4474024474620819,0.894082248210907
4.854230642318726,-0.8187070281659253,2.2520045096899413,53.15566376277368,-0.03955078125,0.01416015625,1.00390625,0.06103515625,-0.30517578125,-0.06103515625,0.0,0.0,0.0,0.01518026553094387,0.014378214254975319,-0.44744083285331726,0.8940690755844116
4.8737406730651855,-0.821718607981372,2.2997737855279525,53.15864514034639,-0.041015625,0.01416015625,1.00341796875,-0.30517578125,-1.28173828125,-0.244140625,0.0,0.0,0.0,0.01539056096225977,0.014738811179995537,-0.4474634528160095,0.8940483331680298
4.894578695297241,-0.7301995159101959,2.3466835247476,53.16407172564197,-0.041015625,0.01318359375,1.0029296875,-0.30517578125,-1.3427734375,-0.244140625,0.0,0.0,0.0,0.014860331080853939,0.015461514703929424,-0.4474925100803375,0.8940304517745972
4.914705038070679,-0.8639922495801676,2.254371383680762,53.16176653679709,-0.03955078125,0.01513671875,1.00341796875,0.0,-0.244140625,-0.244140625,0.0,0.0,0.0,0.015543581917881966,0.014219030737876892,-0.4474940598011017,0.8940387964248657
4.936142683029175,-0.9292991033292446,2.2173075755930998,53.16406148035821,-0.0390625,0.015625,1.00341796875,-0.18310546875,-0.42724609375,-0.18310546875,0.0,0.0,0.0,0.015908723697066307,0.013674463145434856,-0.4475204646587372,0.8940277099609375
4.953843593597412,-0.836583447492847,2.3241432601563234,53.171134141243755,-0.041015625,0.0146484375,1.00439453125,-0.30517578125,-0.79345703125,-0.1220703125,0.0,0.0,0.0,0.0156032619997859,0.014869224280118942,-0.4475622773170471,0.8939929604530334
4.980125665664673,-0.7626587092802122,2.298566976478976,53.17728472659135,-0.0400390625,0.013671875,1.00341796875,0.06103515625,-1.28173828125,-0.30517578125,0.0,0.0,0.0,0.014927494339644909,0.014957585372030735,-0.4476012587547302,0.8939836025238037
4.993771553039551,-0.8640907537146039,2.331759347967711,53.17616457556747,-0.041015625,0.01513671875,1.0048828125,0.06103515625,-0.9765625,-0.244140625,0.0,0.0,0.0,0.01584824174642563,0.014820518903434277,-0.4476049244403839,0.8939681053161621
5.014332056045532,-0.7791148227857414,2.367057125268102,53.18017048151569,-0.04150390625,0.01416015625,1.00341796875,-0.06103515625,-0.244140625,0.0,0.0,0.0,0.0,0.015323643572628498,0.01542731374502182,-0.4476240873336792,0.8939574956893921
5.035688638687134,-0.7423605610056979,2.2862280262999364,53.18551851963581,-0.0400390625,0.013671875,1.0029296875,-0.30517578125,-0.18310546875,-0.06103515625,0.0,0.0,0.0,0.014722038991749287,0.014939537271857262,-0.44766315817832947,0.8939563632011414
5.054993152618408,-0.8089438597167738,2.316912437702807,53.1857029347434,-0.04052734375,0.01416015625,1.0029296875,0.06103515625,-0.6103515625,-0.06103515625,0.0,0.0,0.0,0.0153613006696105,0.014918805100023746,-0.4476724863052368,0.8939412236213684
5.069180250167847,-0.8062935328753974,2.332025298458518,53.18910095385548,-0.041015625,0.01416015625,1.00537109375,0.18310546875,-0.9765625,-0.30517578125,0.0,0.0,0.0,0.015400080010294914,0.015046615153551102,-0.44769829511642456,0.8939254283905029
5.094622373580933,-0.8220875982791114,2.3048953601884046,53.18968493502951,-0.0400390625,0.01416015625,1.0048828125,-0.42724609375,-0.8544921875,-0.18310546875,0.0,0.0,0.0,0.01541743054986,0.01477316115051508,-0.44770553708076477,0.8939260840415955
5.113993883132935,-0.9047707200809652,2.3641352984072177,53.18898825573417,-0.04150390625,0.015625,1.00537109375,-0.3662109375,-0.8544921875,-0.244140625,0.0,0.0,0.0,0.01629364863038063,0.014912407845258713,-0.4477095901966095,0.8939062356948853
5.134422302246094,-0.8134378573863777,2.4008181100052406,53.19666538836127,-0.0419921875,0.0146484375,1.00341796875,0.0,0.06103515625,-0.06103515625,0.0,0.0,0.0,0.015725448727607727,0.015554389916360378,-0.44775649905204773,0.8938819169998169
5.153731346130371,-0.7578401709033269,2.3337680639139293,53.202163690643125,-0.041015625,0.013671875,1.005859375,-0.18310546875,-0.18310546875,-0.06103515625,0.0,0.0,0.0,0.015030637383460999,0.015247799456119537,-0.44779375195503235,0.8938805460929871
5.174809694290161,-0.9101370076127738,2.237225260986503,53.20036052070224,-0.0400390625,0.015625,1.005859375,-0.18310546875,-1.03759765625,-0.244140625,0.0,0.0,0.0,0.015841364860534668,0.013899700716137886,-0.4478010833263397,0.8938848972320557
5.195359945297241,-0.8090386285915078,2.2889782446579243,53.20946516286587,-0.0400390625,0.0146484375,1.0029296875,0.06103515625,-1.03759765625,-0.244140625,0.0,0.0,0.0,0.015256019309163094,0.014697321690618992,-0.4478585124015808,0.8938535451889038
5.214111328125,-0.8750421082750731,2.22679919066189,53.20933538927164,-0.0390625,0.01513671875,1.001953125,0.0,-0.42724609375,-0.18310546875,0.0,0.0,0.0,0.015527977608144283,0.013954286463558674,-0.44786694645881653,0.8938565254211426
5.229635000228882,-0.9028604015474773,2.1893057209867517,53.20885386093515,-0.03857421875,0.015625,1.00390625,-0.1220703125,-0.1220703125,0.0,0.0,0.0,0.0,0.015598460100591183,0.013553119264543056,-0.44786709547042847,0.8938614130020142
5.253993511199951,-0.8602641935929571,2.2706502857938413,53.2145604839867,-0.04052734375,0.01513671875,1.00439453125,-0.244140625,-0.6103515625,-0.06103515625,0.0,0.0,0.0,0.015584643930196762,0.014353437349200249,-0.44790512323379517,0.8938300609588623
5.273800373077393,-0.8664658986376229,2.349747291477174,53.219003522041795,-0.041015625,0.01513671875,1.00537109375,0.1220703125,-1.03759765625,-0.18310546875,0.0,0.0,0.0,0.01594257541000843,0.014945633709430695,-0.44793900847435,0.8937970995903015
5.294372320175171,-0.796912161328679,2.32210103359449,53.222934295909134,-0.04052734375,0.01416015625,1.001953125,0.1220703125,-0.9765625,-0.30517578125,0.0,0.0,0.0,0.015292572788894176,0.015001323074102402,-0.4479612112045288,0.8937963843345642
5.313952445983887,-0.8911833393876942,2.279077245125756,53.22098086180651,-0.0400390625,0.01513671875,1.0048828125,-0.42724609375,-0.54931640625,-0.1220703125,0.0,0.0,0.0,0.015859536826610565,0.014297434128820896,-0.44795894622802734,0.8937991261482239
5.3338305950164795,-0.770719453078738,2.421372923982159,53.228138900056685,-0.0419921875,0.013671875,1.0048828125,-0.18310546875,-0.18310546875,0.06103515625,0.0,0.0,0.0,0.015476847998797894,0.015877418220043182,-0.44799554347991943,0.8937608599662781
5.354093313217163,-0.7981565364180907,2.364136579067687,53.23086073044094,-0.04150390625,0.013671875,1.00341796875,0.18310546875,-0.48828125,-0.1220703125,0.0,0.0,0.0,0.015467571094632149,0.015323302708566189,-0.44802212715148926,0.8937573432922363
5.369098901748657,-0.8807387528471282,2.3137197511526493,53.23049190022575,-0.04052734375,0.0146484375,1.001953125,0.1220703125,-0.9765625,-0.244140625,0.0,0.0,0.0,0.01591462455689907,0.014607192948460579,-0.4480311870574951,0.8937568664550781
5.393828392028809,-0.7708788419463226,2.4094369549641503,53.236454655371176,-0.0419921875,0.01318359375,1.00341796875,-0.42724609375,-1.220703125,-0.30517578125,0.0,0.0,0.0,0.015432599000632763,0.015782568603754044,-0.4480607807636261,0.893730640411377
5.413980007171631,-0.7896872085689807,2.3026315793653684,53.23865397628392,-0.041015625,0.01416015625,1.005859375,-0.244140625,-0.42724609375,-0.06103515625,0.0,0.0,0.0,0.015162191353738308,0.014875606633722782,-0.4480833411216736,0.8937395215034485
5.433798551559448,-0.8343530172028676,2.2237695748781663,53.23944627822764,-0.03955078125,0.0146484375,1.00341796875,0.06103515625,0.06103515625,0.0,0.0,0.0,0.0,0.015202454291284084,0.014085683040320873,-0.44809690117836,0.8937447667121887
5.454261302947998,-0.7409623465774022,2.2969889893372915,53.246358429667694,-0.0400390625,0.01318359375,1.00390625,0.0,-0.6103515625,-0.06103515625,0.0,0.0,0.0,0.014761129394173622,0.01502112578600645,-0.4481372535228729,0.8937166333198547
5.473885536193848,-0.7797183873927884,2.3260409855285293,53.24690484480129,-0.041015625,0.013671875,1.00439453125,-0.3662109375,-1.40380859375,-0.18310546875,0.0,0.0,0.0,0.015177016146481037,0.015096097253262997,-0.4481458067893982,0.8937041759490967
5.493740558624268,-0.8131655035932235,2.450594607685589,53.247738127880034,-0.04248046875,0.01416015625,1.00341796875,0.0,-0.8544921875,-0.244140625,0.0,0.0,0.0,0.015924807637929916,0.015936700627207756,-0.44815343618392944,0.8936727643013
5.513771057128906,-0.7952938333822092,2.359776997386515,53.25030627900796,-0.04150390625,0.013671875,1.001953125,-0.06103515625,0.06103515625,-0.06103515625,0.0,0.0,0.0,0.015430804342031479,0.015297871083021164,-0.44817352294921875,0.8936825394630432
5.53373908996582,-0.7946008359857173,2.246089779312122,53.253564279242056,-0.0390625,0.01416015625,1.00537109375,-0.244140625,-0.18310546875,-0.06103515625,0.0,0.0,0.0,0.014981419779360294,0.01441339123994112,-0.44820162653923035,0.8936907649040222
5.555912971496582,-0.7793934197986839,2.321521748175508,53.25713988327256,-0.041015625,0.013671875,1.00244140625,-0.18310546875,-0.18310546875,-0.1220703125,0.0,0.0,0.0,0.01515816431492567,0.01506076380610466,-0.4482257068157196,0.8936649560928345
5.569573402404785,-0.7253568050669512,2.3334594247408096,53.262218128920466,-0.041015625,0.0126953125,1.00341796875,-0.06103515625,-0.79345703125,-0.1220703125,0.0,0.0,0.0,0.014784096740186214,0.015364582650363445,-0.44825780391693115,0.8936499953269958
5.593832969665527,-0.7382769082948236,2.2580513615395184,53.26428084604981,-0.03955078125,0.01318359375,1.00537109375,0.06103515625,-1.0986328125,-0.244140625,0.0,0.0,0.0,0.014590291306376457,0.01472562551498413,-0.4482777416706085,0.893653929233551
5.6150195598602295,-0.7347002370472642,2.2264499972405734,53.26687290283983,-0.0390625,0.01318359375,1.00390625,-0.30517578125,-0.732421875,-0.244140625,0.0,0.0,0.0,0.01443916279822588,0.014492811635136604,-0.4482983350753784,0.8936499357223511
5.633748292922974,-0.8299537884079975,2.2514256511577826,53.267443223635524,-0.03955078125,0.01513671875,1.00439453125,-0.1220703125,-0.244140625,0.0,0.0,0.0,0.0,0.01527972612529993,0.014314885251224041,-0.4483141601085663,0.893630862236023
5.6559765338897705,-0.8365005780883077,2.3211772505092454,53.272429261729634,-0.0400390625,0.01513671875,1.0048828125,0.06103515625,0.1220703125,-0.06103515625,0.0,0.0,0.0,0.015604156069457531,0.014832619577646255,-0.4483523964881897,0.8935976028442383
5.674032688140869,-0.7762387261757843,2.3676127184684,53.27813246968659,-0.04150390625,0.013671875,1.00439453125,0.0,-1.03759765625,-0.30517578125,0.0,0.0,0.0,0.015316572971642017,0.015429794788360596,-0.4483877718448639,0.8935747146606445
5.69382381439209,-0.8011120873380022,2.318342935447102,53.2806596396795,-0.04052734375,0.01416015625,1.0048828125,-0.30517578125,-1.28173828125,-0.42724609375,0.0,0.0,0.0,0.015318181365728378,0.014947871677577496,-0.44841206073760986,0.8935706615447998
5.7138190269470215,-0.8731828560778016,2.439222342717518,53.281042130273015,-0.04248046875,0.01513671875,1.00390625,-0.18310546875,-0.48828125,-0.1220703125,0.0,0.0,0.0,0.016352955251932144,0.015608522109687328,-0.4484216868877411,0.8935362696647644
5.733904600143433,-0.8128388818126794,2.4020095511285846,53.28811479115856,-0.0419921875,0.01416015625,1.001953125,0.1220703125,0.1220703125,0.0,0.0,0.0,0.0,0.01573784463107586,0.015553471632301807,-0.4484695792198181,0.8935242295265198
5.753725528717041,-0.8429860561486463,2.2554774474394814,53.290157017720404,-0.03955078125,0.0146484375,1.00439453125,-0.1220703125,-0.732421875,-0.1220703125,0.0,0.0,0.0,0.015400031581521034,0.01429244689643383,-0.4484928548336029,0.893539547920227
5.769221305847168,-0.8932060892382229,2.3266791813291023,53.29278664055086,-0.04052734375,0.015625,1.00390625,-0.244140625,-1.28173828125,-0.244140625,0.0,0.0,0.0,0.016070464625954628,0.014650804921984673,-0.448518306016922,0.8935090899467468
5.793870449066162,-0.8626729558532974,2.237884374241409,53.2978341503475,-0.0400390625,0.0146484375,1.00390625,0.244140625,-0.91552734375,-0.3662109375,0.0,0.0,0.0,0.015485669486224651,0.014077153988182545,-0.44855546951293945,0.8935099840164185
5.813642263412476,-0.861817634742312,2.2470120682934853,53.29955877311292,-0.03955078125,0.01513671875,1.00439453125,0.0,-0.1220703125,0.06103515625,0.0,0.0,0.0,0.015514921396970749,0.014151452109217644,-0.4485686421394348,0.8935016989707947
5.8339128494262695,-0.8344351929163193,2.3330400084370884,53.30415207532975,-0.041015625,0.0146484375,1.0029296875,-0.3662109375,-0.3662109375,-0.1220703125,0.0,0.0,0.0,0.015638567507267,0.014928890392184258,-0.4485992193222046,0.8934715986251831
5.8539345264434814,-0.8641188215232244,2.280207427989982,53.306709981173924,-0.0400390625,0.01513671875,1.00390625,0.0,-0.91552734375,0.0,0.0,0.0,0.0,0.01566362753510475,0.014400336891412735,-0.44862404465675354,0.893467366695404
5.874747037887573,-0.8454721382848251,2.2527221064396157,53.31063733994668,-0.03955078125,0.0146484375,1.00244140625,0.06103515625,-0.9765625,-0.18310546875,0.0,0.0,0.0,0.015411186963319778,0.014258475042879581,-0.44865286350250244,0.8934595584869385
5.89419412612915,-0.789832136645432,2.2660924151833273,53.31577364220253,-0.0400390625,0.01416015625,1.0048828125,0.06103515625,-0.6103515625,-0.1220703125,0.0,0.0,0.0,0.015030339360237122,0.014579905197024345,-0.4486856460571289,0.8934443593025208
5.909481525421143,-0.8522081455494858,2.221077199684712,53.31642592526827,-0.0390625,0.01513671875,1.00390625,-0.3662109375,-0.30517578125,-0.1220703125,0.0,0.0,0.0,0.015340588986873627,0.013984558172523975,-0.4486994445323944,0.8934416770935059
5.93398642539978,-0.8104109096452985,2.337343454501019,53.32191056717179,-0.041015625,0.01416015625,1.0029296875,-0.06103515625,-0.42724609375,0.0,0.0,0.0,0.0,0.015470420941710472,0.015054101124405861,-0.44873443245887756,0.893404483795166
5.953981399536133,-0.6722654778441776,2.326593803964477,53.32953305828553,-0.041015625,0.01171875,1.00439453125,0.1220703125,-0.732421875,0.0,0.0,0.0,0.0,0.014352330006659031,0.015510286204516888,-0.4487757682800293,0.8933945298194885
5.974629163742065,-0.7478805811546847,2.298018853798083,53.32745326568325,-0.03955078125,0.01318359375,1.0048828125,-0.06103515625,-1.15966796875,-0.244140625,0.0,0.0,0.0,0.014829722233116627,0.014991612173616886,-0.4487704932689667,0.8933982849121094
5.9947121143341064,-0.8006684452070687,2.22435867869408,53.328375341221204,-0.0390625,0.0146484375,1.0068359375,-0.42724609375,-0.732421875,-0.3662109375,0.0,0.0,0.0,0.014953069388866425,0.014210396446287632,-0.448786199092865,0.8934010863304138
6.013914585113525,-0.8547201610601696,2.2622732722202326,53.32977553000106,-0.0400390625,0.01513671875,1.0048828125,0.0,-0.06103515625,-0.06103515625,0.0,0.0,0.0,0.015523052774369717,0.014294154942035675,-0.44880303740501404,0.893381655216217
6.034640550613403,-0.8048657565346002,2.2585693886993816,53.335557285133476,-0.03955078125,0.01416015625,1.00439453125,-0.06103515625,0.06103515625,-0.1220703125,0.0,0.0,0.0,0.01512061059474945,0.014459768310189247,-0.44884195923805237,0.8933662176132202
6.0540571212768555,-0.8071597929612254,2.268969418927784,53.33768830415452,-0.03955078125,0.01416015625,1.00439453125,-0.30517578125,-0.67138671875,-0.06103515625,0.0,0.0,0.0,0.01517947856336832,0.014531590975821018,-0.4488586485385895,0.893355667591095
6.0736963748931885,-0.7699175995423491,2.3404588745361914,53.34384571969129,-0.041015625,0.013671875,1.00439453125,0.0,-1.28173828125,-0.18310546875,0.0,0.0,0.0,0.01516982913017273,0.01523406058549881,-0.4489000141620636,0.8933233022689819
6.093656539916992,-0.7638185074177921,2.261888220305773,53.34701834256076,-0.0400390625,0.013671875,1.00341796875,0.1220703125,-0.732421875,-0.18310546875,0.0,0.0,0.0,0.01481505949050188,0.014644941315054893,-0.44892603158950806,0.8933260440826416
6.113860368728638,-0.7899691139548024,2.3102483075069906,53.348541474745666,-0.04052734375,0.013671875,1.0048828125,-0.18310546875,-0.244140625,-0.1220703125,0.0,0.0,0.0,0.015208471566438675,0.014919339679181576,-0.4489400386810303,0.8933079242706299
6.133702278137207,-0.8813504283038146,2.2570003661809825,53.34892396533919,-0.03955078125,0.015625,1.00439453125,-0.42724609375,-0.3662109375,0.0,0.0,0.0,0.0,0.015712393447756767,0.014146114699542522,-0.4489557147026062,0.8933039307594299
6.1545093059539795,-0.8456404384148425,2.2168740720242153,53.353469456231835,-0.0390625,0.0146484375,1.005859375,0.06103515625,-0.67138671875,-0.06103515625,0.0,0.0,0.0,0.015277450904250145,0.013972561806440353,-0.44898751378059387,0.8932982087135315
6.1739723682403564,-0.783921515053285,2.260939250897964,53.359404890620574,-0.03955078125,0.013671875,1.00390625,0.244140625,-0.91552734375,-0.18310546875,0.0,0.0,0.0,0.01496963296085596,0.014557166956365108,-0.44902515411376953,0.8932751417160034
6.193871974945068,-0.8580867506298983,2.311217767482309,53.35919998494548,-0.04052734375,0.01513671875,1.0029296875,-0.18310546875,-0.8544921875,-0.18310546875,0.0,0.0,0.0,0.01574464701116085,0.014658565632998943,-0.44903191924095154,0.8932567238807678
6.213732719421387,-0.9427523348383483,2.161361709544937,53.358243758461676,-0.0380859375,0.0166015625,1.00439453125,-0.42724609375,-0.42724609375,-0.06103515625,0.0,0.0,0.0,0.015817655250430107,0.013158586807549,-0.4490370452404022,0.8932762145996094
6.23422908782959,-0.890701437525238,2.219471678342936,53.364025513594086,-0.0390625,0.01513671875,1.00537109375,0.0,-0.1220703125,0.06103515625,0.0,0.0,0.0,0.015640169382095337,0.013814818114042282,-0.44907522201538086,0.8932502269744873
6.253728866577148,-0.7723381011903252,2.346782349047154,53.37214319342265,-0.041015625,0.013671875,1.0048828125,0.18310546875,-0.79345703125,-0.1220703125,0.0,0.0,0.0,0.015217226929962635,0.01527012325823307,-0.44912073016166687,0.8932109475135803
6.270096778869629,-0.8756814246535569,2.3327693621912267,53.3700804762933,-0.041015625,0.01513671875,1.00439453125,-0.244140625,-1.3427734375,-0.244140625,0.0,0.0,0.0,0.01596760004758835,0.014756126329302788,-0.44911855459213257,0.8932076096534729
6.29372239112854,-0.8397512678855577,2.2288676707633464,53.37266570289415,-0.0390625,0.01513671875,1.00390625,-0.30517578125,-0.8544921875,-0.1220703125,0.0,0.0,0.0,0.01528086606413126,0.014086584560573101,-0.4491361975669861,0.8932216763496399
6.314831972122192,-0.9491207391874447,2.3884642187873912,53.37029562725216,-0.04150390625,0.0166015625,1.00390625,0.0,0.0,0.06103515625,0.0,0.0,0.0,0.016758203506469727,0.014902452006936073,-0.4491286873817444,0.8931856155395508
6.333828687667847,-0.9546071953599632,2.419183208022935,53.37372779731009,-0.0419921875,0.01611328125,1.00390625,0.0,-0.18310546875,-0.06103515625,0.0,0.0,0.0,0.016921736299991608,0.015119923278689384,-0.4491555988788605,0.8931653499603271
6.354013204574585,-0.7676864222004292,2.304744669139841,53.38386038294381,-0.04052734375,0.013671875,1.00390625,-0.30517578125,-1.0986328125,-0.18310546875,0.0,0.0,0.0,0.015017827972769737,0.01495909783989191,-0.4492126405239105,0.8931733965873718
6.373967170715332,-0.8684861405280658,2.226824163541043,53.38232017528597,-0.0390625,0.01513671875,1.00390625,-0.18310546875,-1.3427734375,-0.18310546875,0.0,0.0,0.0,0.015498021617531776,0.013956723734736443,-0.44921499490737915,0.8931803107261658
6.394536018371582,-0.8644246325711412,2.218428153503805,53.38477562829259,-0.03857421875,0.01513671875,1.005859375,0.1220703125,-0.3662109375,-0.06103515625,0.0,0.0,0.0,0.01543376874178648,0.013906862586736679,-0.4492338001728058,0.8931727409362793
6.409966945648193,-0.915421439596248,2.2844538846630256,53.38515128869694,-0.04052734375,0.0166015625,1.00390625,0.0,0.0,-0.06103515625,0.0,0.0,0.0,0.01608998514711857,0.01422158908098936,-0.44924190640449524,0.893152117729187
6.433878183364868,-0.8317436181356582,2.3022017043344807,53.39195415711027,-0.04052734375,0.0146484375,1.00537109375,-0.3662109375,-0.732421875,-0.06103515625,0.0,0.0,0.0,0.015508187003433704,0.014687065966427326,-0.44928404688835144,0.8931336402893066
6.449615240097046,-0.7886789018927576,2.362776090762385,53.39713144050114,-0.04150390625,0.01416015625,1.005859375,0.0,-1.0986328125,-0.3662109375,0.0,0.0,0.0,0.0154105881229043,0.01532740332186222,-0.44931721687316895,0.8931080102920532
6.473708391189575,-0.8232444082089294,2.2812492452818205,53.398985836860795,-0.04052734375,0.0146484375,1.00439453125,0.1220703125,-0.8544921875,-0.30517578125,0.0,0.0,0.0,0.015360735356807709,0.014556118287146091,-0.44933822751045227,0.8931110501289368
6.49390983581543,-0.9196570106553021,2.349145381056567,53.398224270768345,-0.041015625,0.01611328125,1.00537109375,-0.3662109375,-1.220703125,-0.244140625,0.0,0.0,0.0,0.016378128901124,0.014707415364682674,-0.4493432343006134,0.8930879831314087
6.5111329555511475,-0.8560150155164159,2.196667384251556,53.40382844098234,-0.03857421875,0.01513671875,1.001953125,-0.244140625,-1.0986328125,-0.244140625,0.0,0.0,0.0,0.015285249799489975,0.013767652213573456,-0.44938164949417114,0.8931030631065369
6.534165143966675,-0.8079095129443401,2.2726850418362705,53.40765334691754,-0.0390625,0.01416015625,1.001953125,0.1220703125,0.1220703125,0.0,0.0,0.0,0.0,0.015208751894533634,0.014548339881002903,-0.4494040012359619,0.8930807709693909
6.553703546524048,-0.7325108412531577,2.345732420905676,53.41389955491352,-0.04052734375,0.01318359375,1.00390625,0.06103515625,-0.54931640625,-0.06103515625,0.0,0.0,0.0,0.014908287674188614,0.015412600710988045,-0.44944092631340027,0.8930526375770569
6.569068908691406,-0.8278598018188598,2.298866437585399,53.4133804605366,-0.0400390625,0.0146484375,1.0048828125,-0.30517578125,-1.3427734375,-0.244140625,0.0,0.0,0.0,0.015467589721083641,0.014673401601612568,-0.4494505822658539,0.8930507898330688
6.59386944770813,-0.8491573455071644,2.2294838818925284,53.4142922907908,-0.03955078125,0.01513671875,1.001953125,-0.244140625,-0.8544921875,-0.244140625,0.0,0.0,0.0,0.015361705794930458,0.014048944227397442,-0.44946178793907166,0.8930569887161255
6.6138458251953125,-0.7578777903046149,2.265229250026967,53.41983157420768,-0.03955078125,0.013671875,1.0029296875,-0.06103515625,0.0,-0.06103515625,0.0,0.0,0.0,0.014791160821914673,0.014684866182506084,-0.4494927227497101,0.8930408358573914
6.634109735488892,-0.7295599327274478,2.3628174987842283,53.42458538587,-0.04150390625,0.01318359375,1.00439453125,-0.1220703125,-0.18310546875,0.06103515625,0.0,0.0,0.0,0.014953713864088058,0.01555594801902771,-0.4495232403278351,0.8930080533027649
6.653952121734619,-0.8016423874940303,2.2297598642236793,53.426569555823896,-0.03955078125,0.013671875,1.00341796875,-0.244140625,-1.03759765625,-0.18310546875,0.0,0.0,0.0,0.014994008466601372,0.014235854148864746,-0.44955161213874817,0.8930150866508484
6.6741087436676025,-0.8380168800840505,2.269260769184567,53.42888840504711,-0.0400390625,0.0146484375,1.00390625,-0.06103515625,-1.15966796875,-0.30517578125,0.0,0.0,0.0,0.015432645566761494,0.014400715939700603,-0.4495733678340912,0.8929939866065979
6.694593191146851,-0.8851817909022215,2.3337509884410044,53.430568631582936,-0.04150390625,0.01611328125,1.00439453125,0.06103515625,-0.54931640625,-0.18310546875,0.0,0.0,0.0,0.01605326682329178,0.014718072488904,-0.44959115982055664,0.892969012260437
6.713922739028931,-0.8713978288269011,2.4158669377374826,53.43248108455054,-0.04150390625,0.01513671875,1.00439453125,-0.244140625,-0.18310546875,0.06103515625,0.0,0.0,0.0,0.016268083825707436,0.01541187521070242,-0.44960248470306396,0.8929476141929626
6.734610557556152,-0.8822931011309821,2.2982325106530572,53.43393932993834,-0.041015625,0.01513671875,1.00439453125,-0.30517578125,-0.48828125,0.0,0.0,0.0,0.0,0.015891915187239647,0.014452111907303333,-0.44961774349212646,0.8929627537727356
6.753857612609863,-0.7794902163858277,2.35546074471789,53.44168817955172,-0.041015625,0.01416015625,1.00537109375,0.244140625,-0.91552734375,-0.18310546875,0.0,0.0,0.0,0.015316259115934372,0.015300454571843147,-0.4496634602546692,0.8929356336593628
6.774267911911011,-0.7741225948326969,2.2514256511577826,53.44479250052949,-0.03955078125,0.013671875,1.00341796875,-0.06103515625,-1.0986328125,-0.244140625,0.0,0.0,0.0,0.014866802841424942,0.014510317705571651,-0.4496896266937256,0.8929433822631836
6.79036283493042,-0.8378175239376507,2.2939358947782957,53.44384651932944,-0.0400390625,0.0146484375,1.0048828125,-0.244140625,-0.67138671875,-0.244140625,0.0,0.0,0.0,0.015529747121036053,0.01459178701043129,-0.4496893882751465,0.892930805683136
6.810701847076416,-0.7959890719345224,2.349972474276373,53.449184312165805,-0.041015625,0.01416015625,1.0029296875,-0.244140625,-0.30517578125,0.0,0.0,0.0,0.0,0.015424292534589767,0.015191929414868355,-0.4497242271900177,0.892905056476593
6.834116220474243,-0.8600393843197286,2.2592182566705326,53.45079965190452,-0.03955078125,0.0146484375,1.00390625,0.1220703125,-0.244140625,0.0,0.0,0.0,0.0,0.015567610040307045,0.014233066700398922,-0.44974708557128906,0.8929067850112915
6.849073171615601,-0.8084426945864241,2.302859323485506,53.45798159581678,-0.04052734375,0.01416015625,1.005859375,0.1220703125,-0.91552734375,-0.18310546875,0.0,0.0,0.0,0.015337670221924782,0.014774712733924389,-0.44979557394981384,0.8928776383399963
6.869447708129883,-0.8094370207191899,2.347497171032478,53.46092199225448,-0.041015625,0.01416015625,1.0048828125,-0.3662109375,-1.3427734375,-0.30517578125,0.0,0.0,0.0,0.015520920045673847,0.015118272043764591,-0.4498175382614136,0.8928576111793518
6.894222021102905,-0.8948267117013671,2.291804448870429,53.460266294094154,-0.0400390625,0.01513671875,1.00439453125,-0.30517578125,-0.54931640625,-0.1220703125,0.0,0.0,0.0,0.015967676416039467,0.014349167235195637,-0.44982460141181946,0.8928588628768921
6.913757562637329,-0.7968783305479463,2.291841374580629,53.46674131342733,-0.0400390625,0.013671875,1.00439453125,0.06103515625,-0.06103515625,0.0,0.0,0.0,0.0,0.015205468982458115,0.014733083546161652,-0.44986262917518616,0.8928467035293579
6.936054468154907,-0.6850600229851982,2.237493986241661,53.4734656346652,-0.03955078125,0.0126953125,1.00634765625,-0.1220703125,-0.3662109375,0.06103515625,0.0,0.0,0.0,0.014121834188699722,0.014747710898518562,-0.44990208745002747,0.8928444981575012
6.953892946243286,-0.7366412914320172,2.3236062365328314,53.47345880447603,-0.04052734375,0.0126953125,1.0029296875,-0.30517578125,-0.732421875,-0.06103515625,0.0,0.0,0.0,0.014861652627587318,0.015216218307614326,-0.44990622997283936,0.8928224444389343
6.976140975952148,-0.7783939176631878,2.342008473704138,53.47653238960254,-0.041015625,0.01416015625,1.0048828125,0.06103515625,-0.48828125,0.0,0.0,0.0,0.0,0.015259576961398125,0.015195278450846672,-0.4499351382255554,0.8928016424179077
6.993962049484253,-0.8170782414922888,2.3015308516919384,53.47718808776286,-0.04052734375,0.01416015625,1.00341796875,0.0,-0.732421875,-0.18310546875,0.0,0.0,0.0,0.015402212738990784,0.014727883972227573,-0.4499463438987732,0.8928014039993286
7.014068365097046,-0.8475138312381301,2.3801194351689285,53.4784311821918,-0.04150390625,0.0146484375,1.001953125,-0.30517578125,-0.48828125,-0.06103515625,0.0,0.0,0.0,0.01594790257513523,0.015220585279166698,-0.4499581754207611,0.8927775621414185
7.033892393112183,-0.868331233972124,2.1881087303347067,53.48167552204756,-0.03857421875,0.01513671875,1.00390625,-0.18310546875,-0.18310546875,-0.244140625,0.0,0.0,0.0,0.015356969088315964,0.013642209582030773,-0.4499898850917816,0.8927973508834839
7.054211139678955,-0.8087741722045814,2.303947244554242,53.48972489998442,-0.04052734375,0.01416015625,1.0048828125,0.1220703125,-0.67138671875,-0.18310546875,0.0,0.0,0.0,0.015348616987466812,0.01477764081209898,-0.4500429332256317,0.8927527070045471
7.0762975215911865,-0.8147887407381593,2.218220046177531,53.493044371921044,-0.03955078125,0.0146484375,1.00439453125,-0.06103515625,-0.79345703125,-0.18310546875,0.0,0.0,0.0,0.015059386380016804,0.014085604809224606,-0.45007145404815674,0.8927544355392456
7.09378981590271,-0.8580806141318158,2.227145609318857,53.49216327751811,-0.0390625,0.01513671875,1.00146484375,-0.48828125,-0.9765625,-0.18310546875,0.0,0.0,0.0,0.015431590378284454,0.01398523524403572,-0.45006972551345825,0.8927505612373352
7.113785266876221,-0.8878279555970725,2.2021524530418994,53.492928258705156,-0.0390625,0.015625,1.0048828125,-0.1220703125,-0.244140625,-0.06103515625,0.0,0.0,0.0,0.015565329231321812,0.013673551380634308,-0.45007967948913574,0.8927479982376099
7.1340649127960205,-0.8407033855836868,2.2541047928597204,53.49632286272265,-0.03955078125,0.01513671875,1.00390625,0.244140625,-0.244140625,0.06103515625,0.0,0.0,0.0,0.015402550809085369,0.014262988232076168,-0.45009946823120117,0.8927316665649414
7.153731346130371,-0.816977069315208,2.2259650538095026,53.500738580021064,-0.03955078125,0.01416015625,1.00390625,-0.18310546875,-0.91552734375,-0.244140625,0.0,0.0,0.0,0.01510778907686472,0.014136343263089657,-0.45013153553009033,0.892722487449646
7.177846670150757,-0.7919172653329899,2.292906030317505,53.50631884457297,-0.04052734375,0.0146484375,1.00341796875,-0.18310546875,-1.15966796875,-0.18310546875,0.0,0.0,0.0,0.015176085755228996,0.014755615033209324,-0.45017027854919434,0.8926918506622314
7.1938395500183105,-0.8385430714544059,2.176240636321575,53.5063325049513,-0.0380859375,0.0146484375,1.00390625,0.0,-0.6103515625,-0.18310546875,0.0,0.0,0.0,0.015081244520843029,0.013663461431860924,-0.4501786231994629,0.8927066922187805
7.213855743408203,-0.8383907262194029,2.1700520580467204,53.507790750339105,-0.03857421875,0.01513671875,1.00732421875,0.1220703125,0.1220703125,-0.1220703125,0.0,0.0,0.0,0.01505593303591013,0.013615649193525314,-0.45019009709358215,0.8927019834518433
7.234084606170654,-0.8580487043417871,2.3475193691472804,53.510526241101694,-0.04150390625,0.01513671875,1.00439453125,-0.244140625,-0.48828125,-0.06103515625,0.0,0.0,0.0,0.015906229615211487,0.014920739457011223,-0.4502103328704834,0.8926562070846558
7.2540223598480225,-0.8752119558698243,2.3037493825117235,53.51472339234667,-0.04052734375,0.015625,1.0048828125,-0.30517578125,-1.3427734375,-0.244140625,0.0,0.0,0.0,0.015868600457906723,0.014511710032820702,-0.450246125459671,0.8926455974578857
7.2740960121154785,-0.8643788489593609,2.305254158563242,53.517110543461584,-0.04052734375,0.01513671875,1.0048828125,0.0,-0.8544921875,-0.244140625,0.0,0.0,0.0,0.0157904252409935,0.014565668068826199,-0.4502633512020111,0.8926374316215515
7.2937257289886475,-0.7976803975277468,2.3002928799048736,53.521512600381655,-0.04052734375,0.01416015625,1.00390625,-0.06103515625,-0.30517578125,-0.18310546875,0.0,0.0,0.0,0.015251945704221725,0.014788505621254444,-0.45028918981552124,0.8926300406455994
7.313742637634277,-0.7954573843963192,2.2847932596874108,53.522895713688584,-0.03955078125,0.0146484375,1.00244140625,-0.3662109375,-0.30517578125,0.0,0.0,0.0,0.0,0.01517393533140421,0.014676302671432495,-0.45030009746551514,0.8926276564598083
7.334916830062866,-0.8147943436277129,2.297763575477853,53.52645424224616,-0.0400390625,0.0146484375,1.0048828125,-0.244140625,-0.732421875,-0.06103515625,0.0,0.0,0.0,0.015375956892967224,0.01470088679343462,-0.4503299593925476,0.8926088213920593
7.353716135025024,-0.8028270517890572,2.279374358354652,53.53014595949255,-0.03955078125,0.013671875,1.00439453125,0.244140625,-0.9765625,-0.244140625,0.0,0.0,0.0,0.015210982412099838,0.01460416242480278,-0.4503576159477234,0.8925992250442505
7.369538068771362,-0.8279595332529125,2.273477343779992,53.53117390296264,-0.04052734375,0.0146484375,1.0029296875,-0.06103515625,-0.8544921875,-0.18310546875,0.0,0.0,0.0,0.015383714810013771,0.014459311030805111,-0.4503689408302307,0.8925929665565491
7.394165277481079,-0.8893446311187856,2.3071770702580117,53.53138222373232,-0.04052734375,0.015625,1.00341796875,-0.6103515625,-0.54931640625,0.0,0.0,0.0,0.0,0.015994258224964142,0.014480559155344963,-0.4503776431083679,0.8925774097442627
7.41448974609375,-0.8894770193948075,2.307152951152505,53.53424065789998,-0.0400390625,0.01611328125,1.00439453125,-0.1220703125,-0.30517578125,-0.1220703125,0.0,0.0,0.0,0.015995554625988007,0.014479451812803745,-0.4503999352455139,0.8925662040710449
7.434072017669678,-0.932811314666512,2.3400403120061166,53.53557254478813,-0.041015625,0.01611328125,1.00244140625,0.30517578125,-0.1220703125,0.0,0.0,0.0,0.0,0.01646243780851364,0.014565138146281242,-0.4504151940345764,0.8925486207008362
7.450355052947998,-0.8671920864846129,2.31599783268426,53.54105377159706,-0.04052734375,0.01513671875,1.0048828125,-0.30517578125,-0.79345703125,-0.06103515625,0.0,0.0,0.0,0.01585758663713932,0.014635005034506321,-0.45044997334480286,0.8925409317016602
7.4738640785217285,-0.8426586339553088,2.2712148436174253,53.54506650773445,-0.0400390625,0.0146484375,1.00537109375,-0.1220703125,-1.3427734375,-0.18310546875,0.0,0.0,0.0,0.015491067431867123,0.014382035471498966,-0.45047903060913086,0.8925368189811707
7.493701696395874,-0.8164746768852418,2.414270381018992,53.54928414954693,-0.0419921875,0.0146484375,1.00439453125,0.18310546875,-0.54931640625,-0.1220703125,0.0,0.0,0.0,0.015849744901061058,0.015598776750266552,-0.4505050480365753,0.8924968838691711
7.513714790344238,-0.8952899906261643,2.332784730116859,53.54710873429628,-0.04052734375,0.01611328125,1.00439453125,-0.06103515625,0.06103515625,0.06103515625,0.0,0.0,0.0,0.016143159940838814,0.014654473401606083,-0.45050036907196045,0.8925100564956665
7.533832311630249,-0.7535000125726069,2.281749770081935,53.555277640543615,-0.0400390625,0.01318359375,1.005859375,-0.42724609375,-0.48828125,0.0,0.0,0.0,0.0,0.014839333482086658,0.014813275076448917,-0.4505469799041748,0.89250648021698
7.55370020866394,-0.9099085164406957,2.2607919749439858,53.55523665940859,-0.0400390625,0.01611328125,1.005859375,-0.244140625,-1.0986328125,-0.244140625,0.0,0.0,0.0,0.015975162386894226,0.014035050757229328,-0.4505667984485626,0.8924894332885742
7.573764085769653,-0.8395733094411671,2.238363554700368,53.560325150340255,-0.0390625,0.01513671875,1.00390625,0.244140625,-0.9765625,-0.18310546875,0.0,0.0,0.0,0.015339851379394531,0.014136211946606636,-0.45059818029403687,0.892483115196228
7.594935178756714,-0.7483512238771809,2.220494712614557,53.565256546921006,-0.0390625,0.013671875,1.00390625,-0.1220703125,-0.48828125,0.0,0.0,0.0,0.0,0.014559762552380562,0.01435509417206049,-0.45062562823295593,0.892478883266449
7.613760471343994,-0.841047082837156,2.231295803013286,53.564607678949855,-0.03955078125,0.0146484375,1.00439453125,-0.42724609375,-0.30517578125,0.0,0.0,0.0,0.0,0.015324077568948269,0.014074788428843021,-0.45063185691833496,0.8924674391746521
7.633913993835449,-0.8877540508158188,2.259704907648896,53.5660317733918,-0.0390625,0.015625,1.00537109375,0.06103515625,-0.54931640625,0.0,0.0,0.0,0.0,0.015799669548869133,0.014112205244600773,-0.45064815878868103,0.8924503326416016
7.654067277908325,-0.8839604143404057,2.2179669022914177,53.56770516973845,-0.0390625,0.015625,1.00634765625,0.244140625,-0.8544921875,-0.18310546875,0.0,0.0,0.0,0.015606283210217953,0.013801785185933113,-0.45066142082214355,0.8924518823623657
7.670519113540649,-0.887929287856712,2.2364557974878188,53.57127394357978,-0.03955078125,0.015625,1.005859375,-0.18310546875,-1.15966796875,-0.3662109375,0.0,0.0,0.0,0.015710296109318733,0.013929701410233974,-0.4506893754005432,0.8924339413642883
7.694155931472778,-0.7807565227857775,2.361233962113843,53.578052906331024,-0.04150390625,0.01416015625,1.00390625,-0.18310546875,-0.48828125,-0.06103515625,0.0,0.0,0.0,0.015367013402283192,0.015322202816605568,-0.4507257640361786,0.8923986554145813
7.713974475860596,-0.8281442151647673,2.394251950335331,53.5811777178763,-0.04150390625,0.01416015625,1.00244140625,0.1220703125,-0.1220703125,-0.18310546875,0.0,0.0,0.0,0.015866262838244438,0.015392545610666275,-0.4507555365562439,0.8923737406730652
7.73403263092041,-0.8272799294304962,2.2807218266118485,53.5857573597148,-0.03955078125,0.0146484375,1.00390625,0.18310546875,-0.6103515625,-0.1220703125,0.0,0.0,0.0,0.015413792803883553,0.014511079527437687,-0.4507938325405121,0.8923770189285278
7.754080295562744,-0.9238362326537037,2.2630504196817327,53.58446986905625,-0.0400390625,0.01611328125,1.00634765625,-0.42724609375,-1.3427734375,-0.244140625,0.0,0.0,0.0,0.016096081584692,0.01399377454072237,-0.45079612731933594,0.8923721313476562
7.773853302001953,-0.8177958382419632,2.25899115288063,53.591720114860216,-0.03955078125,0.013671875,1.00537109375,-0.1220703125,-1.15966796875,-0.244140625,0.0,0.0,0.0,0.015255246311426163,0.01437834370881319,-0.4508395493030548,0.8923587799072266
7.794988393783569,-0.8196165639034477,2.216008132103505,53.5942985112719,-0.0390625,0.01416015625,1.00439453125,0.1220703125,-0.1220703125,0.0,0.0,0.0,0.0,0.015100724063813686,0.014036071486771107,-0.45086073875427246,0.8923562169075012
7.81431770324707,-0.9026207045962921,2.297689937500864,53.595224001904434,-0.04052734375,0.015625,1.00439453125,0.06103515625,0.0,-0.1220703125,0.0,0.0,0.0,0.01606839708983898,0.014345522038638592,-0.4508766829967499,0.8923264145851135
7.835340976715088,-0.8165304389765127,2.3497191169468477,53.60247083261382,-0.041015625,0.0146484375,1.00537109375,-0.30517578125,-1.0986328125,-0.18310546875,0.0,0.0,0.0,0.015603555366396904,0.015088479965925217,-0.450920969247818,0.8922999501228333
7.854472637176514,-0.789157281938923,2.304850110185153,53.60777105940975,-0.04052734375,0.01416015625,1.005859375,-0.244140625,-1.40380859375,-0.30517578125,0.0,0.0,0.0,0.015214630402624607,0.014846052043139935,-0.45095980167388916,0.8922911286354065
7.87421178817749,-0.7541843121500775,2.302270859999827,53.61369966360932,-0.0400390625,0.01318359375,1.0029296875,0.18310546875,-1.03759765625,-0.30517578125,0.0,0.0,0.0,0.014932936057448387,0.014962825924158096,-0.45100146532058716,0.8922728300094604
7.894249200820923,-0.8587362589312841,2.2027573516702685,53.61204334273559,-0.0390625,0.01513671875,1.00341796875,-0.1220703125,-0.732421875,-0.18310546875,0.0,0.0,0.0,0.015355385839939117,0.013776573352515697,-0.45100393891334534,0.89228355884552
7.91408109664917,-0.8230542834900797,2.2343681074793222,53.61676983364124,-0.03955078125,0.0146484375,1.00146484375,-0.42724609375,-0.18310546875,-0.06103515625,0.0,0.0,0.0,0.015202471055090427,0.014162559062242508,-0.4510357975959778,0.8922639489173889
7.933833360671997,-0.856659561258483,2.3305075023588944,53.61866179604133,-0.041015625,0.0146484375,1.0029296875,0.18310546875,-0.1220703125,-0.06103515625,0.0,0.0,0.0,0.015842564404010773,0.014778712764382362,-0.4510526955127716,0.8922344446182251
7.954073667526245,-0.8466941551768756,2.3725603367484283,53.62173879626243,-0.04150390625,0.0146484375,1.00390625,0.1220703125,-0.8544921875,-0.18310546875,0.0,0.0,0.0,0.01593080721795559,0.01514499168843031,-0.45107439160346985,0.8922156691551208
7.973592042922974,-0.8050984098532038,2.2185865285151847,53.62647553245183,-0.03955078125,0.0146484375,1.0048828125,-0.30517578125,-1.40380859375,-0.30517578125,0.0,0.0,0.0,0.015001767314970493,0.014109062030911446,-0.4511094391345978,0.8922310471534729
7.997745513916016,-0.9386200703904906,2.2269402767569333,53.62371272093256,-0.0390625,0.01611328125,1.00439453125,-0.18310546875,-0.732421875,-0.244140625,0.0,0.0,0.0,0.01607391983270645,0.013648861087858677,-0.45110398530960083,0.8922222256660461
8.01668643951416,-0.8059883087968625,2.299519787868193,53.63202164605788,-0.04052734375,0.0146484375,1.0009765625,0.1220703125,-0.06103515625,-0.06103515625,0.0,0.0,0.0,0.015327843837440014,0.014735061675310135,-0.45115092396736145,0.8921943306922913
8.033798933029175,-0.7364451902976438,2.313360099004166,53.63805953328417,-0.0400390625,0.0126953125,1.00537109375,0.06103515625,-0.30517578125,0.0,0.0,0.0,0.0,0.01484164409339428,0.015115843154489994,-0.45118850469589233,0.8921772241592407
8.054254531860352,-0.8314410620997678,2.362383568328521,53.63754043890725,-0.041015625,0.01416015625,1.00341796875,-0.30517578125,-1.3427734375,-0.3662109375,0.0,0.0,0.0,0.015774095430970192,0.015123608522117138,-0.4511956572532654,0.8921574950218201
8.074128150939941,-0.9120187247291123,2.2946686460101913,53.63763606155563,-0.04052734375,0.01513671875,1.00390625,-0.1220703125,-1.0986328125,-0.30517578125,0.0,0.0,0.0,0.01613498665392399,0.01427904237061739,-0.4512081444263458,0.8921586275100708
8.094319820404053,-0.899823208522643,2.3122011012793795,53.640409118358654,-0.04052734375,0.015625,1.005859375,-0.06103515625,-0.18310546875,-0.06103515625,0.0,0.0,0.0,0.01610938087105751,0.014463194645941257,-0.45122793316841125,0.8921460509300232
8.113844871520996,-0.8888445332054937,2.328325043475664,53.644999005480905,-0.04150390625,0.015625,1.00439453125,-0.1220703125,-0.06103515625,0.0,0.0,0.0,0.0,0.016087941825389862,0.014631332829594612,-0.4512619376182556,0.8921265602111816
8.134107828140259,-0.7677462397165197,2.303089415483171,53.653704081578084,-0.04052734375,0.013671875,1.001953125,-0.244140625,-0.91552734375,-0.1220703125,0.0,0.0,0.0,0.015046961605548859,0.014910570345818996,-0.45131468772888184,0.892113447189331
8.154349088668823,-0.8961641481182202,2.2275014194859324,53.65122472290937,-0.03857421875,0.01513671875,1.00341796875,0.0,-1.220703125,-0.18310546875,0.0,0.0,0.0,0.015748877078294754,0.013816582038998604,-0.4513131082057953,0.8921197652816772
8.173941135406494,-0.8663130731549439,2.2463326779144803,53.6534957608084,-0.03955078125,0.0146484375,1.00439453125,0.0,-0.732421875,-0.18310546875,0.0,0.0,0.0,0.015590878203511238,0.014080467633903027,-0.45132678747177124,0.8921115398406982
8.189035177230835,-0.7690669208255652,2.2816652464909564,53.65886770459061,-0.03955078125,0.01318359375,1.00439453125,-0.244140625,-0.244140625,0.0,0.0,0.0,0.0,0.014973573386669159,0.014737880788743496,-0.45135560631752014,0.8920968770980835
8.214894533157349,-0.7860932484050847,2.261604980898629,53.66219059162182,-0.03955078125,0.013671875,1.0029296875,-0.244140625,-0.42724609375,-0.06103515625,0.0,0.0,0.0,0.015027573332190514,0.014514190144836903,-0.45138418674468994,0.8920851349830627
8.233585834503174,-0.8363552764858861,2.3007876417328763,53.66347808228037,-0.041015625,0.01416015625,1.00341796875,0.18310546875,-0.79345703125,-0.06103515625,0.0,0.0,0.0,0.015573276206851006,0.014621101319789886,-0.45139968395233154,0.892066240310669
8.255451917648315,-0.8129945354205617,2.2721181361351594,53.66735762972894,-0.0400390625,0.01416015625,1.00341796875,0.1220703125,-1.0986328125,-0.30517578125,0.0,0.0,0.0,0.015279038809239864,0.014489390887320042,-0.45142751932144165,0.8920593857765198
8.274378538131714,-0.8917352506891429,2.310046816926475,53.666971724040835,-0.04052734375,0.01513671875,1.0029296875,-0.30517578125,-0.9765625,-0.30517578125,0.0,0.0,0.0,0.016041288152337074,0.014474550262093544,-0.4514336884021759,0.8920430541038513
8.293995141983032,-0.8738486928001721,2.271956132585783,53.67108691301576,-0.0400390625,0.01513671875,1.00390625,-0.244140625,-0.3662109375,-0.1220703125,0.0,0.0,0.0,0.01575259491801262,0.01424788124859333,-0.4514642357826233,0.8920363783836365
8.313907146453857,-0.8408768083555818,2.348564174646881,53.67542749823331,-0.041015625,0.0146484375,1.0048828125,0.30517578125,0.1220703125,0.0,0.0,0.0,0.0,0.01579812914133072,0.014973626472055912,-0.45149219036102295,0.8920095562934875
8.329052925109863,-0.8392744353041262,2.2442556600765617,53.678733309791596,-0.03955078125,0.0146484375,1.00439453125,-0.06103515625,-0.30517578125,-0.06103515625,0.0,0.0,0.0,0.015375327318906784,0.014167403802275658,-0.45152002573013306,0.8920159935951233
8.353791952133179,-0.7367406493400996,2.3020525073897984,53.685502027259076,-0.0400390625,0.01318359375,1.0048828125,-0.18310546875,-1.0986328125,-0.1220703125,0.0,0.0,0.0,0.014805663377046585,0.015020501799881458,-0.4515582025051117,0.891992449760437
8.373848676681519,-0.8151329182393046,2.188210542842022,53.68733934814581,-0.0390625,0.0146484375,1.005859375,0.06103515625,-1.15966796875,-0.244140625,0.0,0.0,0.0,0.014967727474868298,0.013825065456330776,-0.45158514380455017,0.891995370388031
8.393688440322876,-0.8682779798409391,2.2739496940497808,53.68790966894151,-0.03955078125,0.01513671875,1.00439453125,0.0,-0.42724609375,-0.18310546875,0.0,0.0,0.0,0.015719177201390266,0.014283042401075363,-0.4515944719314575,0.8919704556465149
8.40920615196228,-0.8400615078842644,2.3430541329773846,53.692151216416086,-0.04052734375,0.01513671875,1.001953125,-0.30517578125,-0.18310546875,0.0,0.0,0.0,0.0,0.015772266313433647,0.014931639656424522,-0.4516223967075348,0.8919448256492615
8.433865070343018,-0.8140661814291661,2.3071215749710055,53.69754023567123,-0.04052734375,0.01416015625,1.0029296875,-0.18310546875,-0.732421875,0.0,0.0,0.0,0.0,0.015429086051881313,0.014753634110093117,-0.4516617953777313,0.891933798789978
8.454787731170654,-0.7871363463573925,2.2761579795858107,53.702676537927076,-0.03955078125,0.013671875,1.00390625,0.244140625,-0.91552734375,-0.1220703125,0.0,0.0,0.0,0.015098155476152897,0.014618056826293468,-0.4516991078853607,0.8919227719306946
8.473767042160034,-0.8658002219978111,2.239765877914336,53.70095874535082,-0.03955078125,0.01513671875,1.00537109375,0.1220703125,-0.9765625,-0.18310546875,0.0,0.0,0.0,0.015566850081086159,0.01402491144835949,-0.45169633626937866,0.8919256925582886
8.49388861656189,-0.7687708214528745,2.2234692599980974,53.705968689107024,-0.0390625,0.01318359375,1.0029296875,-0.42724609375,-0.54931640625,-0.18310546875,0.0,0.0,0.0,0.014748035930097103,0.014279866591095924,-0.45172369480133057,0.8919216990470886
8.513830423355103,-0.8587442630592178,2.264449754687939,53.70452751919215,-0.03955078125,0.015625,1.00439453125,-0.18310546875,-0.244140625,0.06103515625,0.0,0.0,0.0,0.015609617345035076,0.014244393445551395,-0.45172280073165894,0.8919079899787903
8.534271955490112,-0.8689618525315866,2.1889531124708497,53.70798017981759,-0.03857421875,0.01513671875,1.00390625,0.06103515625,-0.48828125,0.0,0.0,0.0,0.0,0.015392115339636803,0.013615941628813744,-0.451752245426178,0.89190673828125
8.553896188735962,-0.786314269057758,2.2647633030595253,53.714492765191196,-0.0400390625,0.01416015625,1.00341796875,0.0,-0.9765625,-0.30517578125,0.0,0.0,0.0,0.015048360452055931,0.01453104242682457,-0.4517912268638611,0.8918784856796265
8.573862791061401,-0.7804249918067674,2.2457612899017265,53.718092274883794,-0.03955078125,0.01416015625,1.00537109375,-0.3662109375,-1.15966796875,-0.18310546875,0.0,0.0,0.0,0.014928098767995834,0.014405879192054272,-0.45181894302368164,0.8918684720993042
8.595046997070312,-0.7145009664331564,2.2396320488952863,53.72375108661115,-0.03955078125,0.0126953125,1.00439453125,0.0,-0.18310546875,-0.1220703125,0.0,0.0,0.0,0.014391578733921051,0.01461738534271717,-0.4518548548221588,0.8918555378913879
8.613728046417236,-0.8686550809883178,2.372142414548588,53.72059895430919,-0.04150390625,0.01513671875,1.00390625,0.18310546875,0.06103515625,0.0,0.0,0.0,0.0,0.01611313410103321,0.015041395090520382,-0.4518468677997589,0.8918231725692749
8.634753227233887,-0.8419671306626979,2.27376655960266,53.723050992221225,-0.0400390625,0.0146484375,1.0048828125,-0.06103515625,-0.8544921875,0.0,0.0,0.0,0.0,0.015518062748014927,0.01438054721802473,-0.45186465978622437,0.891835629940033
8.651299238204956,-0.8112301588197298,2.2311974056005552,53.72758282273553,-0.03955078125,0.0146484375,1.00439453125,-0.18310546875,-1.40380859375,-0.3662109375,0.0,0.0,0.0,0.015111636370420456,0.01416979730129242,-0.4518970251083374,0.8918296098709106
8.674437522888184,-0.8632906610863604,2.168798078003788,53.72925963417676,-0.03857421875,0.01513671875,1.0048828125,0.0,-0.8544921875,-0.3662109375,0.0,0.0,0.0,0.015271065756678581,0.013478566892445087,-0.45191752910614014,0.8918271660804749
8.6951162815094,-0.7554780460284132,2.2815235200656785,53.737725653652994,-0.0400390625,0.01318359375,1.00390625,0.06103515625,0.1220703125,-0.18310546875,0.0,0.0,0.0,0.01487740222364664,0.014780066907405853,-0.45196768641471863,0.8917877674102783
8.713782787322998,-0.8270101903191336,2.389472098576791,53.738162785759876,-0.0419921875,0.0146484375,1.0048828125,-0.18310546875,-0.42724609375,0.0,0.0,0.0,0.0,0.01585966907441616,0.015338065102696419,-0.45197761058807373,0.8917564153671265
8.733880281448364,-0.8102894069832663,2.25140067827863,53.74272876722003,-0.03955078125,0.01416015625,1.0048828125,-0.06103515625,-1.03759765625,-0.18310546875,0.0,0.0,0.0,0.01518583856523037,0.014328760094940662,-0.45201432704925537,0.891766369342804
8.753836154937744,-0.6902695896920668,2.240518479383507,53.75034101305001,-0.03955078125,0.0126953125,1.005859375,0.18310546875,-1.0986328125,-0.18310546875,0.0,0.0,0.0,0.01420989353209734,0.014716535806655884,-0.4520586133003235,0.8917536735534668
8.774172306060791,-0.8576046886848835,2.2270222390269736,53.745242276834595,-0.0390625,0.0146484375,1.00439453125,0.0,-0.48828125,-0.1220703125,0.0,0.0,0.0,0.015458248555660248,0.013952037319540977,-0.4520402252674103,0.8917545080184937
8.794405460357666,-0.7986248846239127,2.3029547326904747,53.749487239403756,-0.03955078125,0.013671875,1.0048828125,-0.42724609375,-0.6103515625,-0.06103515625,0.0,0.0,0.0,0.015299181453883648,0.014775123447179794,-0.4520642161369324,0.8917317986488342
8.816319942474365,-0.8359772148431555,2.254553877797649,53.751737786735276,-0.03955078125,0.0146484375,1.00439453125,-0.06103515625,-0.06103515625,-0.06103515625,0.0,0.0,0.0,0.015399293974041939,0.014250761829316616,-0.45208755135536194,0.8917268514633179
8.83341646194458,-0.8564309100038462,2.2875061254483753,53.75427861710652,-0.0400390625,0.01513671875,1.00341796875,0.18310546875,-0.18310546875,0.0,0.0,0.0,0.0,0.015688709914684296,0.014426185749471188,-0.4521092176437378,0.8917079567909241
8.85414743423462,-0.8625576964110534,2.2807310046785454,53.758141089082166,-0.0400390625,0.01513671875,1.0048828125,-0.06103515625,-1.03759765625,-0.30517578125,0.0,0.0,0.0,0.01571015454828739,0.014348752796649933,-0.4521401822566986,0.891693115234375
8.874425411224365,-0.8096914986266258,2.334400069855567,53.76332861775679,-0.041015625,0.0146484375,1.0048828125,-0.244140625,-1.220703125,-0.18310546875,0.0,0.0,0.0,0.015511090867221355,0.014974328689277172,-0.45217254757881165,0.8916699290275574
8.893726348876953,-0.8773090373884298,2.3592243923939784,53.76401846686296,-0.04150390625,0.01513671875,1.005859375,0.06103515625,-0.48828125,-0.244140625,0.0,0.0,0.0,0.01613522693514824,0.01490060705691576,-0.4521861672401428,0.8916531205177307
8.910364151000977,-0.8144384800997847,2.282233005965714,53.7689976747679,-0.04052734375,0.0146484375,1.00390625,0.18310546875,0.0,0.0,0.0,0.0,0.0,0.0153430150821805,0.014548850245773792,-0.45221856236457825,0.8916565775871277
8.933866024017334,-0.649378421069964,2.359586392419989,53.778638486781375,-0.04150390625,0.01123046875,1.0048828125,-0.18310546875,-0.8544921875,-0.06103515625,0.0,0.0,0.0,0.014365078881382942,0.015800990164279938,-0.45226937532424927,0.891625702381134
8.948999881744385,-0.7235093989790214,2.2856352939460263,53.78067388315404,-0.0400390625,0.0126953125,1.00537109375,-0.18310546875,-1.220703125,-0.30517578125,0.0,0.0,0.0,0.014650417491793633,0.014932667836546898,-0.4522976279258728,0.8916217088699341
8.974668502807617,-0.8256545578514447,2.2523936170292207,53.77917465663122,-0.03955078125,0.0146484375,1.00537109375,0.0,-0.732421875,-0.18310546875,0.0,0.0,0.0,0.01531386561691761,0.014271008782088757,-0.4522998332977295,0.8916203379631042
8.994091272354126,-0.8111357101101132,2.2798593017857227,53.78268195877002,-0.04052734375,0.01416015625,1.00390625,0.06103515625,0.0,-0.1220703125,0.0,0.0,0.0,0.015309690497815609,0.014541583135724068,-0.45232468843460083,0.891603410243988
9.013936042785645,-0.7498446340670336,2.2607240999391087,53.78889060072556,-0.0400390625,0.01318359375,1.00341796875,-0.30517578125,-0.42724609375,-0.06103515625,0.0,0.0,0.0,0.014758098870515823,0.014633807353675365,-0.4523656368255615,0.8915904760360718
9.034188508987427,-0.7719249281063923,2.222144630185938,53.79109333673289,-0.0390625,0.013671875,1.00244140625,-0.18310546875,-0.8544921875,-0.06103515625,0.0,0.0,0.0,0.014777950942516327,0.014246147125959396,-0.4523865282535553,0.8915858268737793
9.049500942230225,-0.7948796998029243,2.2520083516713494,53.79261305382322,-0.03955078125,0.01416015625,1.00390625,0.244140625,-0.9765625,-0.18310546875,0.0,0.0,0.0,0.015074580907821655,0.014387713745236397,-0.4524005651473999,0.8915713429450989
9.075715780258179,-0.7829818837947322,2.3079522967288084,53.79567980876055,-0.04052734375,0.013671875,1.0009765625,-0.1220703125,-0.48828125,-0.244140625,0.0,0.0,0.0,0.015203148126602173,0.014869604259729385,-0.4524214565753937,0.8915507793426514
9.094176530838013,-0.8029017036222513,2.2611838570476155,53.7985860542524,-0.03955078125,0.01416015625,1.00390625,-0.244140625,-0.42724609375,-0.1220703125,0.0,0.0,0.0,0.015173948369920254,0.014426649548113346,-0.4524478018283844,0.8915451765060425
9.109470129013062,-0.8659866114569584,2.241400427560085,53.80105858273194,-0.03955078125,0.0146484375,1.0048828125,-0.06103515625,-0.30517578125,-0.18310546875,0.0,0.0,0.0,0.015586994588375092,0.014023290015757084,-0.45247527956962585,0.8915305137634277
9.13425588607788,-0.8249773552674086,2.329673152063095,53.80475029997833,-0.04052734375,0.0146484375,1.00537109375,0.18310546875,-0.8544921875,-0.1220703125,0.0,0.0,0.0,0.015616768971085548,0.01487158052623272,-0.4524969458580017,0.891505241394043
9.153819799423218,-0.7972565522732358,2.248683543649434,53.80863326252148,-0.03955078125,0.01416015625,1.00390625,-0.244140625,-1.15966796875,-0.244140625,0.0,0.0,0.0,0.01508195698261261,0.01435034815222025,-0.4525255262851715,0.8915085196495056
9.17443037033081,-0.7208802563962425,2.268933560434641,53.81411448933042,-0.0400390625,0.0126953125,1.00341796875,-0.42724609375,-0.732421875,-0.18310546875,0.0,0.0,0.0,0.014568392187356949,0.01480882428586483,-0.4525579512119293,0.8914930820465088
9.194131135940552,-0.7659084919429632,2.235502986098602,53.81616354608142,-0.03955078125,0.01318359375,1.00341796875,0.1220703125,0.0,-0.06103515625,0.0,0.0,0.0,0.014786996878683567,0.014370614662766457,-0.4525805413722992,0.8914850950241089
9.213850498199463,-0.7103938883078631,2.2359392644318365,53.82133399928312,-0.03955078125,0.0126953125,1.00341796875,0.1220703125,-0.3662109375,-0.1220703125,0.0,0.0,0.0,0.014357486739754677,0.014592614024877548,-0.4526137113571167,0.891471803188324
9.234335899353027,-0.8937999421700438,2.3061395218344045,53.81777547072554,-0.04052734375,0.015625,1.00439453125,-0.244140625,-1.220703125,-0.30517578125,0.0,0.0,0.0,0.0160609632730484,0.01441487018018961,-0.4526076316833496,0.8914485573768616
9.253762483596802,-0.8942968917930151,2.288769497001416,53.82051096148813,-0.03955078125,0.015625,1.0048828125,-0.18310546875,-1.220703125,-0.244140625,0.0,0.0,0.0,0.015996601432561874,0.014277376234531403,-0.4526292383670807,0.8914411067962646
9.26949429512024,-0.8326429619502785,2.2764954336194916,53.82616635812091,-0.0400390625,0.0146484375,1.00537109375,0.06103515625,-0.732421875,-0.244140625,0.0,0.0,0.0,0.015469236299395561,0.01442464254796505,-0.4526657462120056,0.8914294242858887
9.293866634368896,-0.8504568423576122,2.1907125265123626,53.82783292427839,-0.03857421875,0.0146484375,1.00537109375,-0.244140625,-0.244140625,0.0,0.0,0.0,0.0,0.015269339084625244,0.013686626218259335,-0.45268261432647705,0.8914359211921692
9.313930749893188,-0.8143174043245756,2.276830753219057,53.8313607169847,-0.0400390625,0.0146484375,1.00390625,-0.3662109375,-0.18310546875,0.06103515625,0.0,0.0,0.0,0.015328660607337952,0.014498948119580746,-0.4527038633823395,0.8914112448692322
9.334223747253418,-0.691538137247838,2.3107541683923944,53.839973585528085,-0.04052734375,0.01220703125,1.00439453125,-0.06103515625,-0.8544921875,-0.06103515625,0.0,0.0,0.0,0.014508642256259918,0.015246824361383915,-0.4527539908885956,0.8913870453834534
9.357876062393188,-0.8325467523325165,2.2976961273597993,53.838248962762655,-0.0400390625,0.0146484375,1.0048828125,0.18310546875,-1.03759765625,-0.18310546875,0.0,0.0,0.0,0.015553726814687252,0.014588330872356892,-0.4527592658996582,0.8913778066635132
9.374691486358643,-0.8268231071688987,2.290710978272992,53.839789170420495,-0.0400390625,0.01416015625,1.0048828125,-0.18310546875,-0.91552734375,-0.1220703125,0.0,0.0,0.0,0.015481816604733467,0.014556393027305603,-0.4527706801891327,0.8913737535476685
9.393916368484497,-0.8568908805557642,2.2585962825692385,53.84042779310789,-0.03955078125,0.01513671875,1.0029296875,-0.30517578125,-0.3662109375,0.0,0.0,0.0,0.0,0.015588967129588127,0.014187655411660671,-0.4527801275253296,0.8913729786872864
9.413737297058105,-0.8920566964669566,2.236597737356508,53.8435013782344,-0.0390625,0.015625,1.00537109375,-0.06103515625,-0.06103515625,-0.1220703125,0.0,0.0,0.0,0.0157760102301836,0.013877136632800102,-0.4528087079524994,0.8913601636886597
9.435361623764038,-0.831096671155211,2.293931839353476,53.84918751071844,-0.0400390625,0.0146484375,1.005859375,0.06103515625,-0.732421875,-0.1220703125,0.0,0.0,0.0,0.015528971329331398,0.01456329133361578,-0.4528442621231079,0.8913354873657227
9.453913450241089,-0.8881886216017609,2.3126813489553957,53.848774284273645,-0.04150390625,0.015625,1.00439453125,-0.244140625,-1.3427734375,-0.244140625,0.0,0.0,0.0,0.016047051176428795,0.01448359340429306,-0.4528478980064392,0.8913257122039795
9.475497722625732,-0.896729239550333,2.2072499085968444,53.85138683163118,-0.03857421875,0.015625,1.0048828125,-0.244140625,-0.79345703125,-0.244140625,0.0,0.0,0.0,0.01569739542901516,0.01362927071750164,-0.45287108421325684,0.8913336396217346
9.4938383102417,-0.8142765299112613,2.2427171599660167,53.85910836048788,-0.03955078125,0.0146484375,1.00634765625,0.1220703125,0.0,-0.1220703125,0.0,0.0,0.0,0.015197091735899448,0.01423001941293478,-0.45292043685913086,0.8913078904151917
9.514660596847534,-0.8007232468029875,2.3757987001886605,53.862878624909726,-0.04150390625,0.013671875,1.00390625,-0.06103515625,-0.30517578125,0.0,0.0,0.0,0.0,0.015617883764207363,0.015318336896598339,-0.45294472575187683,0.8912702202796936
9.53419804573059,-0.8113406157852137,2.3064197730337868,53.86642690818355,-0.0400390625,0.0146484375,1.00390625,-0.30517578125,-1.220703125,-0.18310546875,0.0,0.0,0.0,0.015426840633153915,0.014736192300915718,-0.4529755413532257,0.891267716884613
9.554447174072266,-0.8645661989138602,2.2765912697112833,53.86768707808541,-0.0400390625,0.01513671875,1.00390625,-0.06103515625,-1.28173828125,-0.30517578125,0.0,0.0,0.0,0.015723129734396935,0.01429358683526516,-0.452992707490921,0.8912610411643982
9.573756456375122,-0.809417490647032,2.2558972906300254,53.872840455814185,-0.03955078125,0.01416015625,1.00537109375,0.06103515625,-0.3662109375,-0.18310546875,0.0,0.0,0.0,0.015213081613183022,0.014349931851029396,-0.45302632451057434,0.8912519216537476
9.593761205673218,-0.8968930573687075,2.218622387008327,53.87048404055054,-0.0390625,0.015625,1.0048828125,-0.30517578125,0.06103515625,0.0,0.0,0.0,0.0,0.015745874494314194,0.013714474625885487,-0.45301946997642517,0.8912560939788818
9.613701343536377,-0.8343033916096791,2.294169188427134,53.87751572030106,-0.0400390625,0.0146484375,1.005859375,-0.244140625,-0.54931640625,-0.1220703125,0.0,0.0,0.0,0.015558449551463127,0.014548620209097862,-0.45306500792503357,0.8912230134010315
9.634121179580688,-0.8322316564961968,2.299632059102675,53.88311306032589,-0.04052734375,0.0146484375,1.00537109375,-0.06103515625,-1.03759765625,-0.244140625,0.0,0.0,0.0,0.015564636327326298,0.0145985446870327,-0.45310813188552856,0.8912001848220825
9.653737306594849,-0.8186601773370872,2.280459931545861,53.88627202281702,-0.0400390625,0.01416015625,1.0029296875,0.1220703125,-0.8544921875,-0.30517578125,0.0,0.0,0.0,0.015383720397949219,0.014502654783427715,-0.45313140749931335,0.8911930918693542
9.677125692367554,-0.8566684725209157,2.284557191274222,53.8866408530322,-0.0400390625,0.01513671875,1.00341796875,-0.30517578125,-0.3662109375,-0.06103515625,0.0,0.0,0.0,0.01569555699825287,0.014384177513420582,-0.4531390070915222,0.8911855816841125
9.688969850540161,-0.9098259138404209,2.2861187432732164,53.8870506643824,-0.0400390625,0.0166015625,1.005859375,-0.3662109375,-0.30517578125,0.1220703125,0.0,0.0,0.0,0.016115184873342514,0.014186058193445206,-0.45314881205558777,0.8911763429641724
9.714364290237427,-0.8269930614853557,2.337978448650419,53.89394915544411,-0.04150390625,0.013671875,1.00390625,0.244140625,0.1220703125,0.0,0.0,0.0,0.0,0.015676844865083694,0.014916044659912586,-0.4531908631324768,0.8911508321762085
9.734123706817627,-0.8954437766041954,2.248383015325954,53.89510004231926,-0.0400390625,0.015625,1.00341796875,0.1220703125,-0.67138671875,-0.18310546875,0.0,0.0,0.0,0.015855180099606514,0.01394830085337162,-0.4532102346420288,0.8911535739898682
9.75382113456726,-0.8301858013963664,2.2260568344764744,53.9000792502242,-0.0390625,0.0146484375,1.00244140625,-0.30517578125,-1.46484375,-0.244140625,0.0,0.0,0.0,0.015260039828717709,0.014032077975571156,-0.45324140787124634,0.8911468386650085
9.775070667266846,-0.8241315323882377,2.213801767558179,53.90432421279336,-0.03955078125,0.0146484375,1.005859375,-0.1220703125,-0.9765625,-0.30517578125,0.0,0.0,0.0,0.015165031887590885,0.013960144482553005,-0.4532739520072937,0.8911328911781311
9.793814659118652,-0.886551777439338,2.3145829163090097,53.90375047690308,-0.04052734375,0.015625,1.00390625,0.0,-0.06103515625,0.06103515625,0.0,0.0,0.0,0.016048787161707878,0.014497158117592335,-0.45327523350715637,0.8911082148551941
9.813799858093262,-0.8970133327311232,2.2436691175815873,53.907165571488086,-0.03955078125,0.015625,1.0048828125,-0.06103515625,0.0,-0.1220703125,0.0,0.0,0.0,0.015850219875574112,0.01390375941991806,-0.45330435037612915,0.8911064267158508
9.833913326263428,-0.8093659974239924,2.30316305346016,53.914641213534665,-0.04052734375,0.013671875,1.0048828125,-0.244140625,-1.03759765625,-0.18310546875,0.0,0.0,0.0,0.015404807403683662,0.014712183736264706,-0.453350305557251,0.8910778760910034
9.853781461715698,-0.9035458750637115,2.328210210920243,53.914241647468224,-0.041015625,0.01611328125,1.00244140625,0.0,-1.220703125,-0.30517578125,0.0,0.0,0.0,0.016236137598752975,0.014534436166286469,-0.4533586800098419,0.8910617828369141
9.873846769332886,-0.8371599581474783,2.3351309000967584,53.91924134594067,-0.04052734375,0.01513671875,1.005859375,0.06103515625,-0.48828125,-0.18310546875,0.0,0.0,0.0,0.015747932717204094,0.014850215055048466,-0.45338889956474304,0.8910499811172485
9.893725872039795,-0.842442255696837,2.198826150916103,53.92067910076096,-0.0390625,0.0146484375,1.00537109375,-0.3662109375,-0.244140625,0.06103515625,0.0,0.0,0.0,0.015250190161168575,0.013769064098596573,-0.45340368151664734,0.8910683989524841
9.913747549057007,-0.8702007314531506,2.27837032054666,53.922707666944454,-0.03955078125,0.01513671875,1.0048828125,-0.3662109375,-0.48828125,0.06103515625,0.0,0.0,0.0,0.015780841931700706,0.014277576468884945,-0.45342129468917847,0.8910422325134277
9.933719396591187,-0.7994580609809484,2.1912770843359466,53.92856455415774,-0.03857421875,0.0146484375,1.00439453125,0.18310546875,-0.79345703125,-0.244140625,0.0,0.0,0.0,0.014887040480971336,0.013879401609301567,-0.4534599184989929,0.8910442590713501
9.954169034957886,-0.7800968225614895,2.1929592318624738,53.93068191280044,-0.03857421875,0.013671875,1.00439453125,0.06103515625,-1.220703125,-0.1220703125,0.0,0.0,0.0,0.014743401668965816,0.01396882813423872,-0.4534739851951599,0.891038179397583
9.970316648483276,-0.7414905656601676,2.2505018680725386,53.933417403563034,-0.03955078125,0.01318359375,1.005859375,-0.3662109375,-0.79345703125,-0.244140625,0.0,0.0,0.0,0.01467115432024002,0.014568749815225601,-0.4534890055656433,0.8910220861434937
9.994030237197876,-0.7022965389642543,2.3164334706872602,53.938406856751726,-0.041015625,0.0126953125,1.00439453125,-0.244140625,-0.244140625,-0.06103515625,0.0,0.0,0.0,0.014627848751842976,0.015235942788422108,-0.4535207152366638,0.8909955024719238
10.013908624649048,-0.809655746855189,2.3983867761041275,53.938799592629,-0.0419921875,0.01416015625,1.0048828125,0.18310546875,-0.30517578125,-0.18310546875,0.0,0.0,0.0,0.015786830335855484,0.015448284335434437,-0.45353570580482483,0.8909643888473511
10.03418755531311,-0.8150042118621321,2.35190456403784,53.94305480048192,-0.04052734375,0.01416015625,1.00537109375,0.06103515625,-0.9765625,-0.244140625,0.0,0.0,0.0,0.015645110979676247,0.01506507396697998,-0.45357075333595276,0.8909556269645691
10.053829669952393,-0.8082648428637393,2.3237443344201125,53.945725404447394,-0.041015625,0.01416015625,1.00537109375,-0.30517578125,-1.220703125,-0.3662109375,0.0,0.0,0.0,0.015481659211218357,0.014872407540678978,-0.45359134674072266,0.8909512162208557
10.077014446258545,-0.8923458589287715,2.2780565587316626,53.94507312138166,-0.0400390625,0.015625,1.00537109375,-0.244140625,-0.48828125,-0.18310546875,0.0,0.0,0.0,0.01595456339418888,0.014184397645294666,-0.45359790325164795,0.8909507989883423
10.093882322311401,-0.7404269771403497,2.3183459236548636,53.95416751826153,-0.041015625,0.013671875,1.00244140625,0.1220703125,0.18310546875,0.06103515625,0.0,0.0,0.0,0.01493396982550621,0.015097850002348423,-0.45364826917648315,0.890927791595459
10.113810777664185,-0.8291217859897253,2.348093318480973,53.95378502766801,-0.04052734375,0.01416015625,1.00439453125,-0.06103515625,-0.42724609375,-0.1220703125,0.0,0.0,0.0,0.015741201117634773,0.014978081919252872,-0.4536561369895935,0.8909119367599487
10.133645057678223,-0.7893654959869025,2.3140960518872347,53.958719839343345,-0.041015625,0.013671875,1.00341796875,-0.18310546875,-1.3427734375,-0.18310546875,0.0,0.0,0.0,0.01529823150485754,0.014870456419885159,-0.45369017124176025,0.8909041285514832
10.154942274093628,-0.8374788959652062,2.3927885823056556,53.96042738663585,-0.0419921875,0.0146484375,1.0029296875,0.1220703125,-1.03759765625,-0.244140625,0.0,0.0,0.0,0.015983901917934418,0.015291613526642323,-0.453707754611969,0.8908759355545044
10.178543329238892,-0.8317073327556925,2.2256961151109333,53.963115066074245,-0.0390625,0.0146484375,1.0068359375,0.06103515625,-0.1220703125,-0.06103515625,0.0,0.0,0.0,0.015278159640729427,0.014014852233231068,-0.4537317454814911,0.8908971548080444
10.1957426071167,-0.821511567872156,2.3429952225957935,53.967301972035465,-0.041015625,0.0146484375,1.00634765625,-0.244140625,-0.30517578125,-0.18310546875,0.0,0.0,0.0,0.01566362753510475,0.014966721646487713,-0.4537603259086609,0.8908604383468628
10.214833498001099,-0.8070313533883174,2.2756901116276644,53.97193284029273,-0.0400390625,0.01416015625,1.00537109375,-0.244140625,-0.30517578125,-0.1220703125,0.0,0.0,0.0,0.015285277739167213,0.014500117860734463,-0.4537961483001709,0.8908563852310181
10.229003190994263,-0.7487946525647028,2.2651718337492563,53.97848299170678,-0.0400390625,0.0126953125,1.0029296875,0.3662109375,-0.67138671875,-0.1220703125,0.0,0.0,0.0,0.014791734516620636,0.01464811060577631,-0.45383989810943604,0.8908401727676392
10.25406551361084,-0.837783693156918,2.3084167495923693,53.976901802913915,-0.04052734375,0.0146484375,1.0029296875,-0.1220703125,-1.28173828125,-0.18310546875,0.0,0.0,0.0,0.015654511749744415,0.01463211327791214,-0.45383790135383606,0.8908266425132751
10.273874998092651,-0.8409151214479573,2.2814039917552034,53.9794562936635,-0.0400390625,0.01513671875,1.00537109375,-0.42724609375,-0.91552734375,-0.244140625,0.0,0.0,0.0,0.015572254545986652,0.014409337192773819,-0.45385876297950745,0.890821099281311
10.293641328811646,-0.7736617171462796,2.3120950199038326,53.98498874689121,-0.04052734375,0.01318359375,1.00439453125,-0.18310546875,-0.18310546875,-0.06103515625,0.0,0.0,0.0,0.01517164334654808,0.014913591556251049,-0.45389243960380554,0.8908024430274963
10.309749364852905,-0.830345190263951,2.2373070098131316,53.98584935072663,-0.03955078125,0.0146484375,1.0048828125,0.18310546875,-0.18310546875,-0.06103515625,0.0,0.0,0.0,0.015316316857933998,0.014107489958405495,-0.4539080858230591,0.8908052444458008
10.33405065536499,-0.9350486285065144,2.339958563179488,53.98487263367532,-0.041015625,0.01611328125,1.005859375,-0.1220703125,-1.03759765625,-0.244140625,0.0,0.0,0.0,0.016536487266421318,0.01449098251760006,-0.45391157269477844,0.8907755017280579
10.35397481918335,-0.8853107640836584,2.1903893731872563,53.988516539597526,-0.03857421875,0.015625,1.0029296875,-0.42724609375,-1.28173828125,-0.244140625,0.0,0.0,0.0,0.015558178536593914,0.013524621725082397,-0.45393630862236023,0.8907957077026367
10.369109869003296,-0.7123880367412424,2.246140151957251,53.998174427083924,-0.03955078125,0.0126953125,1.00390625,0.06103515625,-0.42724609375,-0.18310546875,0.0,0.0,0.0,0.014435887336730957,0.014641845598816872,-0.4539888799190521,0.8907701373100281
10.394247770309448,-0.7435389820809367,2.2209173305694514,53.99987514418726,-0.03955078125,0.013671875,1.00439453125,0.1220703125,0.1220703125,0.06103515625,0.0,0.0,0.0,0.014578371308743954,0.014322121627628803,-0.45400676131248474,0.8907638192176819
10.413772583007812,-0.8884498763375139,2.329876350190903,53.998488615785746,-0.041015625,0.015625,1.00634765625,-0.18310546875,-0.732421875,-0.18310546875,0.0,0.0,0.0,0.01613607443869114,0.01459525991231203,-0.4540117084980011,0.890730082988739
10.435126543045044,-0.8757779010755833,2.2785756531085837,54.00175686130359,-0.0400390625,0.01513671875,1.00439453125,-0.18310546875,-1.0986328125,-0.18310546875,0.0,0.0,0.0,0.015834849327802658,0.014246183447539806,-0.45403653383255005,0.8907284736633301
10.453788757324219,-0.8289577547279393,2.3490766522780433,54.00688974846486,-0.041015625,0.0146484375,1.00244140625,0.1220703125,-0.8544921875,-0.244140625,0.0,0.0,0.0,0.015750760212540627,0.014979079365730286,-0.4540689289569855,0.890701413154602
10.4741530418396,-0.8761241062891383,2.3333509954877356,54.007535201341426,-0.04150390625,0.01513671875,1.00244140625,-0.1220703125,-0.30517578125,-0.06103515625,0.0,0.0,0.0,0.016055181622505188,0.014669838361442089,-0.45408037304878235,0.8906952738761902
10.489271402359009,-0.9657455263489615,2.2178198397808506,54.00831725800139,-0.0390625,0.0166015625,1.00390625,-0.3662109375,-0.3662109375,-0.1220703125,0.0,0.0,0.0,0.016294362023472786,0.013416440226137638,-0.4540993273258209,0.8907009959220886
10.509056568145752,-0.9457236805707154,2.3484918173303613,54.01281835266443,-0.04052734375,0.0166015625,1.00390625,-0.30517578125,-0.79345703125,-0.06103515625,0.0,0.0,0.0,0.016656789928674698,0.014510978013277054,-0.45413002371788025,0.8906614780426025
10.533798217773438,-0.9311905321208092,2.279312246321887,54.01753801338091,-0.03955078125,0.0166015625,1.00341796875,0.18310546875,-0.91552734375,-0.30517578125,0.0,0.0,0.0,0.01627042517066002,0.014030111953616142,-0.454166054725647,0.8906579613685608
10.553664207458496,-0.8438390827429575,2.217349410501766,54.02320024020285,-0.0390625,0.01513671875,1.0048828125,-0.18310546875,-0.8544921875,-0.244140625,0.0,0.0,0.0,0.015346734784543514,0.013893868774175644,-0.45420047640800476,0.890658974647522
10.573946475982666,-0.9432636385307472,2.2277968251675353,54.022332806178255,-0.0390625,0.0166015625,1.00341796875,-0.42724609375,-0.48828125,-0.1220703125,0.0,0.0,0.0,0.016160786151885986,0.013581116683781147,-0.4542055130004883,0.8906468152999878
10.593825578689575,-0.859943921753907,2.1505100330576674,54.02931325951001,-0.0380859375,0.01513671875,1.00537109375,-0.06103515625,-0.1220703125,0.0,0.0,0.0,0.0,0.015207840129733086,0.013309640809893608,-0.45425108075141907,0.8906444311141968
10.616732835769653,-0.7798633688300926,2.364478088526188,54.03604441093706,-0.04150390625,0.013671875,1.00439453125,0.1220703125,0.0,0.0,0.0,0.0,0.0,0.015434040687978268,0.015289420261979103,-0.4542886018753052,0.8905896544456482
10.63008737564087,-0.7408939379639964,2.392908110616131,54.039541467792105,-0.0419921875,0.01318359375,1.00634765625,-0.1220703125,-1.220703125,-0.1220703125,0.0,0.0,0.0,0.015244302339851856,0.01566443033516407,-0.4543096721172333,0.8905755877494812
10.654418468475342,-0.7842313815260215,2.2915391387098563,54.04171688304275,-0.0400390625,0.013671875,1.00390625,-0.18310546875,-1.40380859375,-0.30517578125,0.0,0.0,0.0,0.0151797104626894,0.014704395085573196,-0.4543352425098419,0.8905801177024841
10.674558401107788,-0.8770681664984811,2.3023942302917106,54.04209595854169,-0.04052734375,0.015625,1.005859375,0.0,-0.48828125,-0.06103515625,0.0,0.0,0.0,0.01594427414238453,0.014420632272958755,-0.4543497562408447,0.8905640244483948
10.69391679763794,-0.8206238567234659,2.2989543762709626,54.04673024189354,-0.03955078125,0.01416015625,1.00341796875,0.1220703125,-0.06103515625,-0.06103515625,0.0,0.0,0.0,0.015492567792534828,0.014617064967751503,-0.4543786942958832,0.8905540108680725
10.714720487594604,-0.8021694326380319,2.338006196293922,54.051142544097374,-0.041015625,0.013671875,1.0048828125,-0.30517578125,-0.6103515625,-0.06103515625,0.0,0.0,0.0,0.015504486858844757,0.014993180520832539,-0.4544095993041992,0.8905317783355713
10.733985185623169,-0.8622696545271493,2.264927014156194,54.05343407256391,-0.0400390625,0.01513671875,1.005859375,-0.06103515625,-1.220703125,-0.3662109375,0.0,0.0,0.0,0.015682201832532883,0.014186527580022812,-0.4544367790222168,0.8905280232429504
10.753647089004517,-0.7605418842460372,2.2479569822764742,54.06036671457147,-0.03955078125,0.013671875,1.005859375,0.1220703125,-0.8544921875,-0.244140625,0.0,0.0,0.0,0.014825250022113323,0.01445714756846428,-0.45447832345962524,0.8905170559883118
10.774062633514404,-0.8607224565975827,2.2764642708814034,54.05774392193019,-0.0400390625,0.01513671875,1.005859375,-0.244140625,-0.54931640625,-0.06103515625,0.0,0.0,0.0,0.015716440975666046,0.014281745068728924,-0.45446982979774475,0.8905090093612671
10.793679237365723,-0.9446311704686307,2.265871928139183,54.0565793746767,-0.0400390625,0.01611328125,1.00390625,-0.3662109375,-0.244140625,0.0,0.0,0.0,0.0,0.016326380893588066,0.01386679895222187,-0.45447126030921936,0.8905038833618164
10.814362525939941,-0.7484802504194706,2.2822731333270876,54.068528790629635,-0.0400390625,0.01318359375,1.00244140625,-0.06103515625,-0.54931640625,0.06103515625,0.0,0.0,0.0,0.0148685984313488,0.01477064099162817,-0.4545392692089081,0.8904801607131958
10.834201097488403,-0.8400870143719461,2.3098374289397317,54.06747694149745,-0.04052734375,0.0146484375,1.00390625,0.1220703125,-0.9765625,-0.1220703125,0.0,0.0,0.0,0.015689602121710777,0.014621640555560589,-0.4545421302318573,0.89046710729599
10.85371470451355,-0.8405691296778138,2.30577154539287,54.06934841333004,-0.04052734375,0.01513671875,1.00537109375,-0.06103515625,-1.0986328125,-0.18310546875,0.0,0.0,0.0,0.015677468851208687,0.014587870799005032,-0.4545568525791168,0.8904603123664856
10.874174356460571,-0.8900497414288836,2.1967008948671713,54.069638696369765,-0.03857421875,0.015625,1.00634765625,-0.42724609375,-0.48828125,-0.06103515625,0.0,0.0,0.0,0.01562959887087345,0.013543859124183655,-0.4545672833919525,0.8904722929000854
10.893664121627808,-0.8651934023787379,2.376513949060808,54.07482622504439,-0.04150390625,0.01513671875,1.00341796875,0.18310546875,0.06103515625,-0.06103515625,0.0,0.0,0.0,0.016149984672665596,0.01503922138363123,-0.4546009302139282,0.8904219269752502
10.914080381393433,-0.8634385773705735,2.366110717181232,54.0788321309926,-0.041015625,0.01513671875,1.001953125,0.1220703125,-0.54931640625,-0.18310546875,0.0,0.0,0.0,0.016095628961920738,0.014964768663048744,-0.45463210344314575,0.8904080986976624
10.934891700744629,-0.8957146362934687,2.3676874236624474,54.08184424441658,-0.041015625,0.015625,1.00439453125,-0.30517578125,-1.3427734375,-0.3662109375,0.0,0.0,0.0,0.01635306142270565,0.014848539605736732,-0.454659640789032,0.8903914093971252
10.954127311706543,-0.7861127784772426,2.3772646295392748,54.089114980788054,-0.0419921875,0.01416015625,1.00732421875,-0.1220703125,-1.03759765625,-0.30517578125,0.0,0.0,0.0,0.01554038655012846,0.015356837771832943,-0.4547014832496643,0.8903759121894836
10.973749160766602,-0.8278790650867532,2.2874371832264404,54.08999949028557,-0.0400390625,0.0146484375,1.00390625,0.0,0.0,-0.06103515625,0.0,0.0,0.0,0.015508783049881458,0.014492921531200409,-0.45471611618995667,0.8903835415840149
10.993638038635254,-0.7688687386179289,2.3625613666903527,54.09652232094294,-0.04052734375,0.013671875,1.00146484375,-0.06103515625,0.0,-0.06103515625,0.0,0.0,0.0,0.015349081717431545,0.015310010872781277,-0.4547571837902069,0.8903515338897705
11.00912594795227,-0.8291144221920265,2.269006344637984,54.097891773871524,-0.0400390625,0.01416015625,1.00341796875,-0.1220703125,-1.0986328125,-0.244140625,0.0,0.0,0.0,0.015446275472640991,0.014343726448714733,-0.4547780156135559,0.8903554081916809
11.034828424453735,-0.8273392133380578,2.2361770403923176,54.10164154772586,-0.03955078125,0.0146484375,1.0048828125,-0.06103515625,-1.0986328125,-0.30517578125,0.0,0.0,0.0,0.015302727930247784,0.014095154590904713,-0.45480766892433167,0.8903466463088989
11.0542573928833,-0.7782035795009266,2.3190925487085106,54.10557915178237,-0.0400390625,0.01416015625,1.001953125,0.06103515625,-0.6103515625,-0.18310546875,0.0,0.0,0.0,0.015250375494360924,0.014933967031538486,-0.45482999086380005,0.8903225064277649
11.073988199234009,-0.8900503817591183,2.233861392820272,54.10369401957145,-0.03955078125,0.015625,1.00244140625,-0.244140625,-0.06103515625,0.0,0.0,0.0,0.0,0.015781037509441376,0.013827979564666748,-0.4548312723636627,0.89033043384552
11.093860864639282,-0.7899936599471321,2.4005143800305864,54.11236494472278,-0.0419921875,0.01416015625,1.005859375,-0.42724609375,-0.3662109375,-0.06103515625,0.0,0.0,0.0,0.015665892511606216,0.015518938191235065,-0.4548819363117218,0.8902787566184998
11.115217447280884,-0.7934266837787098,2.2403577564946002,54.115349737390076,-0.03955078125,0.013671875,1.00439453125,0.18310546875,-0.1220703125,0.0,0.0,0.0,0.0,0.015057524666190147,0.014260438270866871,-0.4549098610877991,0.8902960419654846
11.133830308914185,-0.780692276318897,2.2120000917211766,54.12003183206612,-0.0390625,0.013671875,1.00390625,0.06103515625,-0.8544921875,-0.1220703125,0.0,0.0,0.0,0.014846648089587688,0.014090035110712051,-0.4549453854560852,0.8902840614318848
11.154082775115967,-0.7769480519932607,2.1924981940934978,54.12194428503372,-0.03857421875,0.013671875,1.0048828125,-0.30517578125,-1.28173828125,-0.244140625,0.0,0.0,0.0,0.014740402810275555,0.01395311951637268,-0.4549601674079895,0.890280544757843
11.173798561096191,-0.7743065296926112,2.2702191301024843,54.125383285280826,-0.0400390625,0.013671875,1.00390625,-0.18310546875,-0.79345703125,-0.18310546875,0.0,0.0,0.0,0.01502873282879591,0.014567060396075249,-0.4549846649169922,0.8902533054351807
11.189443111419678,-0.7713231777683436,2.294439407786173,54.12902036101386,-0.04052734375,0.013671875,1.00244140625,0.1220703125,0.1220703125,0.0,0.0,0.0,0.0,0.015102138742804527,0.014766617678105831,-0.45501187443733215,0.8902348875999451
11.215341806411743,-0.774769541813144,2.2823250000760975,54.13317653112381,-0.0400390625,0.013671875,1.00341796875,0.18310546875,-0.30517578125,0.06103515625,0.0,0.0,0.0,0.015081367455422878,0.014658257365226746,-0.4550449550151825,0.8902201056480408
11.234032392501831,-0.7660686278624882,2.2782326495462017,54.13620572002071,-0.0400390625,0.01318359375,1.0029296875,-0.30517578125,-1.28173828125,-0.1220703125,0.0,0.0,0.0,0.014997919090092182,0.014660617336630821,-0.4550674855709076,0.890209972858429
11.254076957702637,-0.8071979459710422,2.276320836908833,54.13702534272111,-0.0400390625,0.01416015625,1.00390625,-0.1220703125,-1.28173828125,-0.30517578125,0.0,0.0,0.0,0.015309948474168777,0.014482319355010986,-0.4550791382789612,0.8902016282081604
11.273848056793213,-0.7621245137819231,2.326268089318432,54.140559965616596,-0.041015625,0.01416015625,1.00439453125,0.0,-0.244140625,-0.1220703125,0.0,0.0,0.0,0.015158509835600853,0.015048918314278126,-0.4550994634628296,0.8901844024658203
11.294113159179688,-0.860579236068424,2.3335934672032708,54.13911879570172,-0.041015625,0.0146484375,1.00439453125,-0.18310546875,-0.1220703125,0.06103515625,0.0,0.0,0.0,0.015952223911881447,0.014715015888214111,-0.4551008641719818,0.8901754021644592
