time,imu.ypr.x,imu.ypr.y,imu.ypr.z,imu.linear_acceleration.x,imu.linear_acceleration.y,imu.linear_acceleration.z,imu.angular_velocity.x,imu.angular_velocity.y,imu.angular_velocity.z,imu.compass.x,imu.compass.y,imu.compass.z,imu.orientation.x,imu.orientation.y,imu.orientation.z,imu.orientation.w
0.3831322193145752,-2.0696299211141382,1.6513759234907086,56.85161572645098,-0.02880859375,0.0361328125,1.00537109375,-0.18310546875,-1.03759765625,-0.18310546875,0.0,0.0,0.0,0.02273944579064846,0.004074988886713982,-0.4761222004890442,0.8790756464004517
0.40303826332092285,-1.9531939787856385,1.684691131662798,56.858613255255655,-0.029296875,0.0341796875,1.00537109375,-0.1220703125,-0.3662109375,-0.30517578125,0.0,0.0,0.0,0.021984798833727837,0.004813076928257942,-0.47617384791374207,0.8790631890296936
0.4255714416503906,-1.8651547613748782,1.7096373303892116,56.864285727361356,-0.0302734375,0.033203125,1.0048828125,-0.06103515625,-0.18310546875,-0.06103515625,0.0,0.0,0.0,0.021413253620266914,0.0053692772053182125,-0.47621506452560425,0.8790517449378967
0.4438920021057129,-2.0412812209640006,1.6401515748068505,56.86408082168625,-0.029296875,0.03564453125,1.0048828125,-0.1220703125,-0.8544921875,-0.18310546875,0.0,0.0,0.0,0.022475825622677803,0.004104200750589371,-0.4762159287929535,0.8790314793586731
0.46920299530029297,-1.9541094375778318,1.6307562227166748,56.872280463784854,-0.02880859375,0.03466796875,1.00390625,0.1220703125,-0.79345703125,-0.1220703125,0.0,0.0,0.0,0.02176842838525772,0.004392815753817558,-0.47627487778663635,0.8790159821510315
0.4831972122192383,-2.0048353315528122,1.6367838646592112,56.87226680340651,-0.029296875,0.03466796875,1.00341796875,0.1220703125,-0.54931640625,-0.244140625,0.0,0.0,0.0,0.022182567045092583,0.004228236153721809,-0.47627711296081543,0.8790052533149719
0.5032253265380859,-2.043324087856069,1.773844737125328,56.87324693555241,-0.03125,0.0361328125,1.00537109375,-0.18310546875,-0.30517578125,-0.1220703125,0.0,0.0,0.0,0.023046966642141342,0.005119705572724342,-0.4762963652610779,0.878967821598053
0.522996187210083,-2.0532551829092673,1.5878965722314333,56.877754860404615,-0.02783203125,0.0361328125,1.00341796875,-0.30517578125,-0.6103515625,-0.06103515625,0.0,0.0,0.0,0.022351158782839775,0.003650812665000558,-0.4763171374797821,0.8789818286895752
0.543306827545166,-2.039192036851623,1.6280656617922187,56.883427332510315,-0.029296875,0.0361328125,1.00439453125,0.06103515625,-0.67138671875,-0.1220703125,0.0,0.0,0.0,0.022410299628973007,0.004016362130641937,-0.47636333107948303,0.8789536952972412
0.5629642009735107,-1.977625138559951,1.717688949481893,56.88781231395746,-0.0302734375,0.03466796875,1.00634765625,0.06103515625,-0.8544921875,-0.244140625,0.0,0.0,0.0,0.022310471162199974,0.004959074780344963,-0.476401150226593,0.8789309859275818
0.5831871032714844,-2.0445524546896134,1.699732168710518,56.88824261587517,-0.0302734375,0.03564453125,1.0029296875,-0.244140625,-0.732421875,-0.30517578125,0.0,0.0,0.0,0.022749245166778564,0.004542977549135685,-0.47640591859817505,0.8789193630218506
0.6033740043640137,-2.095217944179122,1.543476116799138,56.8898306348572,-0.02734375,0.0361328125,1.00439453125,-0.3662109375,-0.42724609375,-0.06103515625,0.0,0.0,0.0,0.022488895803689957,0.003133197780698538,-0.47640734910964966,0.8789314031600952
0.6269524097442627,-2.1533755108578996,1.7274005179862992,56.89191042745947,-0.02978515625,0.037109375,1.001953125,-0.1220703125,-0.1220703125,-0.06103515625,0.0,0.0,0.0,0.02369895949959755,0.0043020667508244514,-0.4764404594898224,0.8788766860961914
0.6430234909057617,-2.02451737541985,1.6400196667785047,56.898190786401294,-0.02880859375,0.03515625,1.0048828125,0.06103515625,-0.732421875,-0.1220703125,0.0,0.0,0.0,0.02234792523086071,0.004166201688349247,-0.4764769673347473,0.8788930177688599
0.6678421497344971,-1.9783359051204554,1.694334291553798,56.90314267354955,-0.02978515625,0.03515625,1.00341796875,0.0,-0.91552734375,-0.06103515625,0.0,0.0,0.0,0.02221956104040146,0.004773962311446667,-0.4765171408653259,0.8788713812828064
0.6831631660461426,-2.0183569716753222,1.673129222223553,56.90307437165786,-0.029296875,0.03564453125,1.0029296875,-0.42724609375,-0.732421875,-0.1220703125,0.0,0.0,0.0,0.022438405081629753,0.004444874823093414,-0.4765166640281677,0.8788678646087646
0.7039315700531006,-2.0236085333734155,1.6642330075513172,56.90539322088107,-0.029296875,0.03564453125,1.0048828125,-0.1220703125,-0.1220703125,0.0,0.0,0.0,0.0,0.022441813722252846,0.004354332573711872,-0.476533979177475,0.8788588047027588
0.7229328155517578,-2.0373190709151583,1.7353939737493298,56.910604655217796,-0.02978515625,0.03564453125,1.00439453125,0.0,-0.48828125,-0.18310546875,0.0,0.0,0.0,0.022842826321721077,0.004842197522521019,-0.47657978534698486,0.878821074962616
0.7435369491577148,-2.0885275604436826,1.6760955520357483,56.914757410233165,-0.029296875,0.0361328125,1.0029296875,-0.244140625,-0.6103515625,-0.06103515625,0.0,0.0,0.0,0.02298932895064354,0.004173489287495613,-0.47660914063453674,0.8788048028945923
0.7632062435150146,-2.040824878950079,1.5832125565646855,56.92134512768764,-0.02783203125,0.0361328125,1.0048828125,0.244140625,-0.67138671875,-0.30517578125,0.0,0.0,0.0,0.022237753495573997,0.0036580830346792936,-0.4766506850719452,0.8788038492202759
0.7830657958984375,-2.0920039132878077,1.6694616240826678,56.92359909011374,-0.029296875,0.03662109375,1.0029296875,-0.06103515625,-0.732421875,-0.18310546875,0.0,0.0,0.0,0.022988740354776382,0.004106368403881788,-0.4766765236854553,0.8787686228752136
0.8039932250976562,-2.160741442990935,1.629253581099272,56.92484559963727,-0.0283203125,0.03759765625,1.00390625,-0.30517578125,-0.67138671875,-0.18310546875,0.0,0.0,0.0,0.023348812013864517,0.0035117489751428366,-0.4766850471496582,0.8787570595741272
0.8230924606323242,-2.034650601383799,1.7019303156844985,56.930757128363915,-0.02978515625,0.03564453125,1.00390625,-0.30517578125,-0.54931640625,0.06103515625,0.0,0.0,0.0,0.022684132680296898,0.004592593293637037,-0.4767317473888397,0.8787440657615662
0.8446757793426514,-1.9237648280861692,1.7264236942132816,56.938389864761405,-0.02978515625,0.0341796875,1.00390625,0.3662109375,-0.48828125,-0.1220703125,0.0,0.0,0.0,0.021935947239398956,0.005240326281636953,-0.4767872393131256,0.8787294626235962
0.8633613586425781,-1.9510926283988017,1.6468821926253692,56.941565902725465,-0.029296875,0.03466796875,1.005859375,0.1220703125,-1.0986328125,-0.30517578125,0.0,0.0,0.0,0.0218149833381176,0.00451589934527874,-0.47680729627609253,0.8787256479263306
0.8783340454101562,-2.090155920230496,1.7646654964893598,56.94056869510664,-0.03076171875,0.03662109375,1.00537109375,-0.18310546875,-0.91552734375,-0.18310546875,0.0,0.0,0.0,0.02337091788649559,0.004840892739593983,-0.4768139719963074,0.8786802291870117
0.9032084941864014,-2.064929043417877,1.6582539239849114,56.94539422375525,-0.02978515625,0.0361328125,1.00390625,-0.3662109375,-0.42724609375,-0.18310546875,0.0,0.0,0.0,0.022735320031642914,0.004128695465624332,-0.4768418073654175,0.8786854147911072
0.9231488704681396,-1.909037873018564,1.7491898886556976,56.95038367694395,-0.0302734375,0.03369140625,1.00439453125,0.1220703125,-0.30517578125,0.1220703125,0.0,0.0,0.0,0.021918226033449173,0.005473934579640627,-0.4768800139427185,0.878678023815155
0.9446103572845459,-1.986356681640166,1.688117111861794,56.95161994118372,-0.029296875,0.03466796875,1.0029296875,0.06103515625,-0.79345703125,-0.30517578125,0.0,0.0,0.0,0.022257229313254356,0.0046834987588226795,-0.4768887758255005,0.8786693811416626
0.9632668495178223,-1.986179950495392,1.7123886159642574,56.95413345079829,-0.0302734375,0.03466796875,1.0048828125,-0.3662109375,-1.03759765625,-0.1220703125,0.0,0.0,0.0,0.022356895729899406,0.004869904834777117,-0.4769097566604614,0.878654420375824
0.9830458164215088,-2.0007621909299576,1.6950988458540164,56.955813677334106,-0.02978515625,0.03515625,1.00341796875,0.0,-0.54931640625,-0.244140625,0.0,0.0,0.0,0.022396886721253395,0.004676278680562973,-0.47692200541496277,0.8786478638648987
1.0039653778076172,-1.935330686228528,1.5982639456178664,56.96091582864411,-0.0283203125,0.0341796875,1.0029296875,-0.06103515625,-0.42724609375,-0.06103515625,0.0,0.0,0.0,0.021492712199687958,0.004204932134598494,-0.47695162892341614,0.8786566853523254
1.0248064994812012,-2.0211637525373742,1.5975315145510882,56.96207354570843,-0.029296875,0.03662109375,1.00439453125,-0.1220703125,-0.54931640625,-0.06103515625,0.0,0.0,0.0,0.02214784361422062,0.0038418362382799387,-0.47696349024772644,0.878635585308075
1.0439281463623047,-1.9991035221787024,1.700318604483787,56.96626045166964,-0.02978515625,0.03515625,1.00390625,-0.06103515625,-0.8544921875,-0.18310546875,0.0,0.0,0.0,0.022406304255127907,0.004721174016594887,-0.47700241208076477,0.8786036372184753
1.061556100845337,-2.0249489579980304,1.7586604795484493,56.96703226304585,-0.03076171875,0.03515625,1.005859375,0.18310546875,-0.732421875,-0.18310546875,0.0,0.0,0.0,0.022847117856144905,0.005060881841927767,-0.47701364755630493,0.8785843849182129
1.080155611038208,-2.026201870823905,1.643108086222114,56.970396131212084,-0.029296875,0.03564453125,1.005859375,-0.18310546875,-0.67138671875,-0.18310546875,0.0,0.0,0.0,0.022376304492354393,0.004168793559074402,-0.4770309627056122,0.8785917162895203
1.1040141582489014,-2.0581981054342413,1.7461847121425977,56.970737640670585,-0.03125,0.03662109375,1.00537109375,-0.3662109375,-0.48828125,0.0,0.0,0.0,0.0,0.02305031567811966,0.004826047923415899,-0.477042555809021,0.878564715385437
1.1204493045806885,-2.0754155182279623,1.7510369212176573,56.97367803710828,-0.03076171875,0.0361328125,1.00439453125,-0.06103515625,-0.42724609375,0.0,0.0,0.0,0.0,0.023202624171972275,0.004790988750755787,-0.47706618905067444,0.8785480260848999
1.1433415412902832,-2.003171753603091,1.5737543453898046,56.98023501871149,-0.0283203125,0.03515625,1.00341796875,0.30517578125,-0.8544921875,-0.18310546875,0.0,0.0,0.0,0.02191160060465336,0.0037308905739337206,-0.47710028290748596,0.8785678148269653
1.1662817001342773,-2.0808546966848196,1.6256764829648895,56.98147811314043,-0.0283203125,0.0361328125,1.00390625,-0.244140625,-1.0986328125,-0.18310546875,0.0,0.0,0.0,0.022723205387592316,0.0038053952157497406,-0.4771164655685425,0.8785380125045776
1.1845016479492188,-2.054423999030986,1.6731027552405193,56.98583235873632,-0.0283203125,0.03515625,1.0048828125,0.0,-0.67138671875,-0.1220703125,0.0,0.0,0.0,0.022718006744980812,0.004278286825865507,-0.47715258598327637,0.8785164952278137
1.2022385597229004,-2.194837533884227,1.6122849366017273,56.98462683034781,-0.0283203125,0.0380859375,1.00341796875,-0.1220703125,-0.732421875,-0.244140625,0.0,0.0,0.0,0.02354145236313343,0.003227467881515622,-0.47714295983314514,0.8785044550895691
1.2193665504455566,-2.118474951746427,1.7237413508601707,56.989599208063574,-0.0302734375,0.037109375,1.0029296875,-0.06103515625,-0.30517578125,-0.1220703125,0.0,0.0,0.0,0.02341984212398529,0.004399138502776623,-0.4771878719329834,0.8784781694412231
1.2432842254638672,-1.9989696931596523,1.8270745357613531,56.998311114349924,-0.03173828125,0.03515625,1.0048828125,-0.06103515625,-0.67138671875,-0.1220703125,0.0,0.0,0.0,0.022933989763259888,0.005687456578016281,-0.4772569537162781,0.878446102142334
1.2629625797271729,-1.9876002029559314,1.6116916706392883,57.00167498251616,-0.02783203125,0.03466796875,1.005859375,0.0,-0.732421875,-0.06103515625,0.0,0.0,0.0,0.021950790658593178,0.0040825530886650085,-0.4772670567035675,0.8784745931625366
1.2789201736450195,-2.0289781292781033,1.6089796586519702,57.00306834110684,-0.0283203125,0.03564453125,1.00537109375,0.06103515625,-0.732421875,-0.18310546875,0.0,0.0,0.0,0.0222567617893219,0.003889150684699416,-0.4772789180278778,0.8784613609313965
1.3043856620788574,-1.9421081548758847,1.714955486431713,57.00882277548258,-0.0302734375,0.0341796875,1.0048828125,-0.18310546875,-0.9765625,-0.18310546875,0.0,0.0,0.0,0.022032056003808975,0.005062497686594725,-0.4773273169994354,0.8784347176551819
1.3229362964630127,-1.9934816361615473,1.7368593694914147,57.010660096369314,-0.03076171875,0.03564453125,1.00439453125,0.0,-0.48828125,-0.18310546875,0.0,0.0,0.0,0.02251710183918476,0.005016098730266094,-0.47734513878822327,0.8784131407737732
1.3431475162506104,-2.0867630237602923,1.7264935969305684,57.013798568292934,-0.0302734375,0.03662109375,1.00439453125,0.30517578125,-0.48828125,-0.1220703125,0.0,0.0,0.0,0.02318914234638214,0.004547404125332832,-0.47737234830856323,0.8783833384513855
1.3646211624145508,-2.0423364851907673,1.633651902759643,57.018507983725655,-0.02880859375,0.03515625,1.00390625,0.0,-0.9765625,-0.30517578125,0.0,0.0,0.0,0.022462373599410057,0.00401967391371727,-0.47739964723587036,0.8783899545669556
1.3832454681396484,-2.0922807493926046,1.7128760139945614,57.02082683294888,-0.03076171875,0.03662109375,1.001953125,-0.244140625,-0.9765625,-0.244140625,0.0,0.0,0.0,0.023175038397312164,0.004418580327183008,-0.47742539644241333,0.8783555030822754
1.403512954711914,-2.0688568290774576,1.6979129905137673,57.02317300292877,-0.0302734375,0.0361328125,1.00439453125,-0.244140625,-0.48828125,-0.06103515625,0.0,0.0,0.0,0.02293330244719982,0.004400974605232477,-0.47744131088256836,0.8783533573150635
1.4269578456878662,-2.040596494499707,1.7899282317951213,57.02710036170153,-0.03125,0.03564453125,1.00390625,-0.244140625,-0.1220703125,-0.06103515625,0.0,0.0,0.0,0.023099858313798904,0.005223438609391451,-0.4774770736694336,0.8783250451087952
1.4473929405212402,-2.0586828354219007,1.592892215279063,57.028876210885734,-0.02783203125,0.0361328125,1.0029296875,-0.18310546875,-0.54931640625,-0.06103515625,0.0,0.0,0.0,0.022418351843953133,0.003637020941823721,-0.47747644782066345,0.8783510327339172
1.4601595401763916,-2.090780669096141,1.55509021315251,57.03260890926715,-0.02734375,0.03564453125,1.00439453125,-0.30517578125,-1.15966796875,-0.244140625,0.0,0.0,0.0,0.022507119923830032,0.003212711540982127,-0.4775029420852661,0.8783360123634338
1.483091115951538,-2.1158903654758117,1.6725263513075936,57.034299381086726,-0.029296875,0.03662109375,1.001953125,0.06103515625,-0.42724609375,-0.1220703125,0.0,0.0,0.0,0.02318853698670864,0.004008113872259855,-0.47752636671066284,0.8783022165298462
1.5035419464111328,-2.028254556112905,1.6658061922162415,57.041290079702236,-0.029296875,0.03564453125,1.005859375,-0.06103515625,-0.30517578125,-0.06103515625,0.0,0.0,0.0,0.022489117458462715,0.004320416133850813,-0.4775761663913727,0.8782919645309448
1.523242712020874,-1.8991727319795384,1.7348158622691117,57.04889208024846,-0.0302734375,0.033203125,1.00244140625,-0.18310546875,-0.732421875,0.0,0.0,0.0,0.0,0.021787455305457115,0.005386012140661478,-0.4776338040828705,0.8782723546028137
1.5431513786315918,-2.0328566095096128,1.6090352606606824,57.04789828772422,-0.0283203125,0.03564453125,1.00439453125,-0.18310546875,-1.0986328125,-0.18310546875,0.0,0.0,0.0,0.022288238629698753,0.003864702768623829,-0.47762271761894226,0.8782737255096436
1.5631170272827148,-2.06981454966514,1.5594681509670767,57.049622910489646,-0.02734375,0.0361328125,1.00390625,0.0,-0.732421875,-0.244140625,0.0,0.0,0.0,0.022365137934684753,0.0033303212840110064,-0.47763311862945557,0.8782684206962585
1.5830931663513184,-2.083969476389757,1.615888394997438,57.051381684200926,-0.0283203125,0.0361328125,1.00439453125,-0.18310546875,-0.48828125,-0.06103515625,0.0,0.0,0.0,0.02270863577723503,0.003703510155901313,-0.4776516258716583,0.8782479763031006
1.6030080318450928,-2.039636426034497,1.6467964950956266,57.05524757127115,-0.02978515625,0.0361328125,1.00537109375,-0.42724609375,-0.54931640625,-0.06103515625,0.0,0.0,0.0,0.022497709840536118,0.004124497063457966,-0.4776821434497833,0.8782349824905396
1.622990369796753,-2.0272471032103283,1.6389382557338212,57.05971109989376,-0.02880859375,0.03515625,1.00634765625,0.06103515625,-0.6103515625,-0.06103515625,0.0,0.0,0.0,0.022370189428329468,0.004115029703825712,-0.47771531343460083,0.87822026014328
1.6433005332946777,-2.0397245781634723,1.608169640905089,57.062402194426745,-0.0283203125,0.03564453125,1.00634765625,0.1220703125,-0.67138671875,-0.18310546875,0.0,0.0,0.0,0.02233775518834591,0.003826614934951067,-0.4777340292930603,0.8782122135162354
1.663139820098877,-1.9138629747803548,1.7187953334057293,57.07022617612099,-0.02978515625,0.0341796875,1.00439453125,0.0,-0.9765625,-0.18310546875,0.0,0.0,0.0,0.021834300830960274,0.005197896622121334,-0.4777969419956207,0.8781836032867432
1.682884693145752,-2.118663208835425,1.7188196659546475,57.06558506257997,-0.0302734375,0.03759765625,1.00439453125,-0.3662109375,-0.91552734375,-0.18310546875,0.0,0.0,0.0,0.023403700441122055,0.004345092922449112,-0.4777699112892151,0.8781624436378479
1.7031950950622559,-2.1683165496673023,1.713166297034287,57.06659593057713,-0.0302734375,0.0380859375,1.00439453125,0.0,-0.244140625,-0.1220703125,0.0,0.0,0.0,0.023760700598359108,0.004094525706022978,-0.4777790307998657,0.8781490921974182
1.7217042446136475,-2.066275444458016,1.7009934058294431,57.072247912115316,-0.02978515625,0.03564453125,1.00439453125,0.0,-0.244140625,0.0,0.0,0.0,0.0,0.022928234189748764,0.0044255307875573635,-0.477817565202713,0.8781486749649048
1.743372917175293,-2.054085050893424,1.594203718321411,57.077049535101835,-0.0283203125,0.03662109375,1.0048828125,0.0,-0.91552734375,-0.1220703125,0.0,0.0,0.0,0.022390108555555344,0.003656822256743908,-0.47784560918807983,0.8781509399414062
1.7635419368743896,-2.232284046008822,1.6742619664087173,57.075970365212974,-0.029296875,0.0390625,1.00732421875,-0.06103515625,-0.79345703125,-0.1220703125,0.0,0.0,0.0,0.0240891482681036,0.003527623601257801,-0.47784966230392456,0.8781042695045471
1.7832369804382324,-2.093811992427157,1.5942850402612165,57.081878478845034,-0.02783203125,0.03662109375,1.00390625,0.0,-0.54931640625,-0.18310546875,0.0,0.0,0.0,0.022695032879710197,0.003490827977657318,-0.47788387537002563,0.8781229257583618
1.803605556488037,-2.052111766553525,1.6609703115621668,57.08617466783297,-0.02880859375,0.0361328125,1.0048828125,-0.30517578125,-0.42724609375,-0.1220703125,0.0,0.0,0.0,0.022653475403785706,0.004175038542598486,-0.47792068123817444,0.8781009912490845
1.8241798877716064,-1.915217486670133,1.650355130374909,57.09321659286726,-0.02880859375,0.03369140625,1.0029296875,-0.30517578125,-0.6103515625,0.06103515625,0.0,0.0,0.0,0.021560510620474815,0.004663281608372927,-0.47796860337257385,0.8780999183654785
1.8437516689300537,-2.004161063815685,1.5731898942879265,57.09481827222762,-0.0283203125,0.03466796875,1.00537109375,0.54931640625,-0.54931640625,-0.1220703125,0.0,0.0,0.0,0.021920546889305115,0.003700526664033532,-0.47797852754592896,0.8780902624130249
1.8639256954193115,-2.0461682213151446,1.6490218561045815,57.0976937818682,-0.02880859375,0.03466796875,1.005859375,0.0,-0.91552734375,-0.30517578125,0.0,0.0,0.0,0.022558560594916344,0.004105972591787577,-0.47800785303115845,0.8780562877655029
1.8886969089508057,-2.026608480522932,1.6926206611240653,57.10310329169085,-0.029296875,0.03515625,1.00732421875,-0.06103515625,-0.79345703125,-0.244140625,0.0,0.0,0.0,0.02259059250354767,0.0045206667855381966,-0.4780518412590027,0.878029465675354
1.9055602550506592,-2.0506580034773703,1.6836113214437012,57.10307597093417,-0.02978515625,0.0361328125,1.005859375,-0.48828125,-0.3662109375,-0.1220703125,0.0,0.0,0.0,0.02273731678724289,0.004351291339844465,-0.47805190086364746,0.8780264258384705
1.923048496246338,-2.109410650387585,1.586882502583098,57.104957688050504,-0.02783203125,0.03662109375,1.00634765625,0.18310546875,-0.30517578125,0.06103515625,0.0,0.0,0.0,0.022784404456615448,0.003364445408806205,-0.4780605733394623,0.8780248761177063
1.9432244300842285,-2.0251685912685287,1.5640329584884665,57.111272197938185,-0.02734375,0.03564453125,1.0048828125,-0.06103515625,-0.91552734375,-0.1220703125,0.0,0.0,0.0,0.022043870761990547,0.0035395491868257523,-0.4781045615673065,0.8780191540718079
1.9629631042480469,-2.057136651348539,1.609162366212268,57.114011103795356,-0.0283203125,0.0361328125,1.005859375,-0.244140625,-0.9765625,-0.244140625,0.0,0.0,0.0,0.022477027028799057,0.00375150959007442,-0.47813016176223755,0.8779932856559753
1.9843156337738037,-2.168635647567589,1.7470923802502691,57.113854009444445,-0.03076171875,0.0380859375,1.00439453125,-0.18310546875,-0.48828125,-0.18310546875,0.0,0.0,0.0,0.023906240239739418,0.004343403037637472,-0.47814393043518066,0.8779454231262207
2.00396728515625,-2.0553763835333796,1.6491980536408266,57.11950940607722,-0.029296875,0.03662109375,1.0048828125,-0.18310546875,-0.30517578125,-0.1220703125,0.0,0.0,0.0,0.02263062447309494,0.004064604640007019,-0.4781753122806549,0.8779634833335876
2.023239850997925,-2.004308980099898,1.5823174816182966,57.12405831206445,-0.02783203125,0.03515625,1.00439453125,-0.18310546875,-0.6103515625,-0.06103515625,0.0,0.0,0.0,0.021960683166980743,0.0037642652168869972,-0.47820329666137695,0.8779665231704712
2.043360471725464,-1.9979289430848717,1.740727711160875,57.12735729343356,-0.0302734375,0.03466796875,1.00244140625,-0.06103515625,-0.9765625,-0.244140625,0.0,0.0,0.0,0.02257240191102028,0.005004248581826687,-0.4782399535179138,0.8779248595237732
2.05837345123291,-2.0828655470651536,1.6612925043919209,57.12763050100036,-0.02880859375,0.0361328125,1.0029296875,0.18310546875,-0.67138671875,-0.30517578125,0.0,0.0,0.0,0.022891942411661148,0.004040964413434267,-0.4782394468784332,0.8779218792915344
2.0833582878112793,-1.9595580075447978,1.7251265986012139,57.13439921846785,-0.0302734375,0.0341796875,1.00341796875,-0.06103515625,-0.42724609375,-0.1220703125,0.0,0.0,0.0,0.022213691845536232,0.00504346052184701,-0.4782911241054535,0.8779058456420898
2.0980987548828125,-1.9148281658874422,1.7214455535254,57.139217916927294,-0.0302734375,0.03369140625,1.00439453125,-0.18310546875,-0.6103515625,-0.06103515625,0.0,0.0,0.0,0.021855872124433517,0.005201030522584915,-0.478325754404068,0.877895176410675
2.123405933380127,-2.0860505496524953,1.6563027310381093,57.13708006771708,-0.029296875,0.037109375,1.001953125,-0.18310546875,-0.42724609375,0.0,0.0,0.0,0.0,0.022895872592926025,0.003987541887909174,-0.47831159830093384,0.8778825998306274
2.143113136291504,-2.1389330758579073,1.6252110696059765,57.13997948301975,-0.02880859375,0.037109375,1.0048828125,0.30517578125,-0.6103515625,-0.06103515625,0.0,0.0,0.0,0.0231714379042387,0.0035279621370136738,-0.4783329963684082,0.8778656721115112
2.1633777618408203,-2.023916959103124,1.685678947771511,57.14707604956739,-0.02978515625,0.03515625,1.005859375,-0.18310546875,-0.8544921875,-0.3662109375,0.0,0.0,0.0,0.02254275605082512,0.004470041021704674,-0.47838810086250305,0.8778477907180786
2.1883814334869385,-2.064675259201529,1.7121127403548124,57.151157087596474,-0.0302734375,0.0361328125,1.0048828125,-0.1220703125,-0.91552734375,-0.30517578125,0.0,0.0,0.0,0.02296539768576622,0.004501625429838896,-0.47842296957969666,0.8778175711631775
2.2039906978607178,-2.1886547185814846,1.674455986469828,57.149193408210095,-0.02978515625,0.0380859375,1.0029296875,-0.06103515625,-0.18310546875,-0.06103515625,0.0,0.0,0.0,0.023757992312312126,0.0036958665587008,-0.4784092903137207,0.8778078556060791
2.2236015796661377,-2.061091971208211,1.634783793171161,57.154821484086185,-0.02880859375,0.0361328125,1.00634765625,0.06103515625,-0.244140625,0.0,0.0,0.0,0.0,0.02261553332209587,0.003923317417502403,-0.4784449338912964,0.8778176307678223
2.24495267868042,-1.9519111838821455,1.5618913740185503,57.161969277052606,-0.02734375,0.0341796875,1.00537109375,-0.06103515625,-0.8544921875,-0.18310546875,0.0,0.0,0.0,0.02147531881928444,0.0038192830979824066,-0.4784904420375824,0.8778219223022461
2.2645974159240723,-1.9652174596023881,1.5407671997412875,57.1662518056622,-0.02685546875,0.03515625,1.0048828125,-0.244140625,-0.9765625,-0.244140625,0.0,0.0,0.0,0.021489255130290985,0.003601056057959795,-0.4785221219062805,0.8778051733970642
2.2830569744110107,-2.02415537539384,1.7339784170438446,57.16762125859079,-0.03076171875,0.03564453125,1.00439453125,0.0,-0.3662109375,-0.18310546875,0.0,0.0,0.0,0.022746892645955086,0.004835077561438084,-0.4785490334033966,0.8777528405189514
2.3036673069000244,-2.138354644212572,1.7236052806852993,57.167351466118575,-0.0302734375,0.0380859375,1.0029296875,-0.3662109375,-0.42724609375,-0.06103515625,0.0,0.0,0.0,0.0235783439129591,0.0042787413112819195,-0.4785507023334503,0.8777328729629517
2.3185791969299316,-2.0368710531942877,1.668893651164499,57.1727199948062,-0.029296875,0.03564453125,1.00439453125,-0.1220703125,-0.6103515625,0.0,0.0,0.0,0.0,0.022572945803403854,0.004282286390662193,-0.47858381271362305,0.8777411580085754
2.3436923027038574,-1.9295975961939484,1.6077909922929763,57.18077278783765,-0.0283203125,0.0341796875,1.005859375,0.1220703125,-0.8544921875,-0.244140625,0.0,0.0,0.0,0.02149658463895321,0.004260627552866936,-0.47863703966140747,0.8777393102645874
2.363262176513672,-1.9877071381051246,1.6260718868848096,57.18182805206442,-0.0283203125,0.03466796875,1.00439453125,0.06103515625,-0.79345703125,-0.18310546875,0.0,0.0,0.0,0.022018011659383774,0.004157769028097391,-0.4786485433578491,0.8777207136154175
2.3860185146331787,-2.0689355896963244,1.6801361425383399,57.181329448255006,-0.02978515625,0.03662109375,1.0048828125,-0.30517578125,-0.67138671875,-0.244140625,0.0,0.0,0.0,0.022865774109959602,0.0042327940464019775,-0.478651762008667,0.8776968717575073
2.4034583568573,-2.0113357506519605,1.678946088797171,57.18567003347255,-0.02978515625,0.03564453125,1.00439453125,-0.244140625,-0.6103515625,0.06103515625,0.0,0.0,0.0,0.022419795393943787,0.004463423043489456,-0.4786827266216278,0.8776904344558716
2.4232025146484375,-2.027159377968176,1.6089105029866237,57.1890065808821,-0.0283203125,0.03564453125,1.00341796875,0.18310546875,-0.42724609375,0.0,0.0,0.0,0.0,0.022248821333050728,0.0038600992411375046,-0.47870364785194397,0.8776861429214478
2.4431064128875732,-2.0245829025472,1.6489508861702369,57.19220993960283,-0.029296875,0.03515625,1.005859375,0.0,-0.79345703125,-0.18310546875,0.0,0.0,0.0,0.02239631675183773,0.0041770003736019135,-0.47873109579086304,0.8776660561561584
2.4591732025146484,-2.0522908455758264,1.5976992810725767,57.19387309066573,-0.0283203125,0.0361328125,1.005859375,-0.18310546875,-1.0986328125,-0.244140625,0.0,0.0,0.0,0.02239467203617096,0.0036682712379842997,-0.4787408411502838,0.8776630163192749
2.4822638034820557,-2.0830999079310497,1.5768447925458238,57.197086694670226,-0.02783203125,0.03662109375,1.00634765625,-0.244140625,-0.54931640625,-0.3662109375,0.0,0.0,0.0,0.022543691098690033,0.0033791542518883944,-0.47876474261283875,0.8776472806930542
2.5035417079925537,-2.0007792664028825,1.623554428567131,57.201915638413425,-0.029296875,0.03515625,1.00732421875,0.1220703125,-0.18310546875,0.0,0.0,0.0,0.0,0.022108348086476326,0.004080003127455711,-0.4788026809692383,0.8776347041130066
2.5229761600494385,-2.0575441148212126,1.6721532522241818,57.20537854432262,-0.029296875,0.03564453125,1.0029296875,0.06103515625,-0.79345703125,-0.1220703125,0.0,0.0,0.0,0.022746095433831215,0.00421444047242403,-0.47883492708206177,0.8776001930236816
2.5430543422698975,-2.0658468500875977,1.6168775984883264,57.2082984501928,-0.0283203125,0.0361328125,1.00439453125,-0.18310546875,-1.0986328125,-0.06103515625,0.0,0.0,0.0,0.022579021751880646,0.003755720565095544,-0.4788532853126526,0.8775965571403503
2.5630481243133545,-2.0605604971134195,1.6111014996063169,57.2112149409684,-0.0283203125,0.0361328125,1.00439453125,-0.06103515625,-0.6103515625,-0.244140625,0.0,0.0,0.0,0.02251451648771763,0.003732989775016904,-0.47887498140335083,0.8775864839553833
2.585339307785034,-2.0014533206965983,1.6645829480245746,57.216344413035074,-0.029296875,0.03515625,1.005859375,-0.1220703125,-0.6103515625,-0.30517578125,0.0,0.0,0.0,0.0222853384912014,0.0043886941857635975,-0.4789162576198578,0.8775667548179626
2.603095531463623,-2.093484356790408,1.6959686277561352,57.21618390358958,-0.02978515625,0.03662109375,1.00390625,-0.42724609375,-0.67138671875,0.0,0.0,0.0,0.0,0.02312116138637066,0.004244519863277674,-0.4789208769798279,0.8775432705879211
2.6235997676849365,-2.0010840635945946,1.6935318510480273,57.223297545610144,-0.02978515625,0.03515625,1.0048828125,0.0,-0.48828125,0.0,0.0,0.0,0.0,0.022403664886951447,0.004610635340213776,-0.47897160053253174,0.8775323033332825
2.643038034439087,-2.06304753974495,1.5874362815143979,57.224407451350274,-0.02783203125,0.0361328125,1.00634765625,0.30517578125,-0.48828125,-0.1220703125,0.0,0.0,0.0,0.02243516780436039,0.003538724733516574,-0.47897425293922424,0.8775350451469421
2.663210153579712,-1.9689185683588888,1.6923912094566351,57.231521093370844,-0.02978515625,0.03466796875,1.00390625,-0.1220703125,-0.9765625,-0.244140625,0.0,0.0,0.0,0.022152919322252274,0.004734755028039217,-0.4790331721305847,0.8775044679641724
2.678968906402588,-2.1367553127297314,1.7348622862111265,57.22988184797004,-0.03076171875,0.037109375,1.00341796875,-0.42724609375,-0.8544921875,-0.244140625,0.0,0.0,0.0,0.023615438491106033,0.004358784761279821,-0.47903046011924744,0.8774697780609131
2.7029807567596436,-2.138263930762658,1.6695958799885409,57.232320225503734,-0.029296875,0.03759765625,1.0048828125,-0.42724609375,-0.18310546875,-0.06103515625,0.0,0.0,0.0,0.023354513570666313,0.003852059133350849,-0.4790439009666443,0.8774717450141907
2.72306752204895,-2.0606087353244327,1.7233649434038794,57.23606658426349,-0.0302734375,0.0361328125,1.00439453125,0.244140625,-0.48828125,0.06103515625,0.0,0.0,0.0,0.02298458106815815,0.004587795585393906,-0.47907397150993347,0.8774616122245789
2.74347186088562,-1.9331633818275182,1.7117619461079088,57.24340903762125,-0.029296875,0.0341796875,1.005859375,-0.06103515625,-0.91552734375,-0.06103515625,0.0,0.0,0.0,0.021960539743304253,0.005030323285609484,-0.4791239798069,0.8774580955505371
2.763352155685425,-1.9978644831745798,1.5737445269928727,57.242695282852985,-0.02783203125,0.03515625,1.00439453125,-0.18310546875,-1.03759765625,-0.244140625,0.0,0.0,0.0,0.02187940664589405,0.003702809102833271,-0.4791111350059509,0.877473771572113
2.7831740379333496,-2.0400306560156536,1.6476187858386728,57.24304020740607,-0.02880859375,0.03564453125,1.00244140625,-0.06103515625,-0.3662109375,-0.1220703125,0.0,0.0,0.0,0.022510893642902374,0.004092271439731121,-0.4791208505630493,0.8774506449699402
2.8040730953216553,-2.026570060708851,1.6729751160804047,57.246045490640874,-0.02880859375,0.03515625,1.001953125,0.0,-0.3662109375,0.0,0.0,0.0,0.0,0.022513849660754204,0.0043421778827905655,-0.47914525866508484,0.8774362206459045
2.8231699466705322,-2.002597590825987,1.805642896249734,57.251407189139336,-0.03173828125,0.03515625,1.001953125,-0.18310546875,-0.732421875,-0.06103515625,0.0,0.0,0.0,0.02288474515080452,0.005457473453134298,-0.4791947603225708,0.8773931860923767
2.8447413444519043,-1.995139024252333,1.6747093437993532,57.25624637816629,-0.02978515625,0.03515625,1.00537109375,-0.06103515625,-0.8544921875,-0.18310546875,0.0,0.0,0.0,0.022280825302004814,0.004484898876398802,-0.47922226786613464,0.8773993849754333
2.865328550338745,-2.044976566748389,1.6683063616175835,57.25920043498232,-0.029296875,0.03564453125,1.00439453125,0.06103515625,-0.732421875,-0.06103515625,0.0,0.0,0.0,0.022635772824287415,0.004226854536682367,-0.4792463183403015,0.8773784041404724
2.8830606937408447,-2.0628251317101016,1.7007377006223907,57.26040596337083,-0.029296875,0.0361328125,1.001953125,-0.3662109375,-0.54931640625,-0.244140625,0.0,0.0,0.0,0.022907985374331474,0.004400348756462336,-0.4792586863040924,0.8773636817932129
2.9033002853393555,-1.978605270705848,1.6624515021167074,57.26609892604403,-0.029296875,0.03466796875,1.00537109375,-0.244140625,-0.48828125,0.0,0.0,0.0,0.0,0.02210340090095997,0.004458259791135788,-0.4792962074279785,0.8773635029792786
2.923302173614502,-2.020644658160453,1.6986906715837968,57.26895736021168,-0.02978515625,0.03515625,1.00390625,0.1220703125,-0.42724609375,-0.06103515625,0.0,0.0,0.0,0.022576818242669106,0.004559398163110018,-0.4793223738670349,0.8773366212844849
2.944279193878174,-1.9846726131229349,1.5849426221371086,57.273721417157766,-0.02783203125,0.03466796875,1.0048828125,0.1220703125,-0.79345703125,-0.30517578125,0.0,0.0,0.0,0.021826209500432014,0.0038378264289349318,-0.4793490767478943,0.8773446083068848
2.9634299278259277,-2.107695419132266,1.5543095438747188,57.27307937937579,-0.02783203125,0.037109375,1.00537109375,-0.244140625,-1.03759765625,-0.244140625,0.0,0.0,0.0,0.022640055045485497,0.0030887380708009005,-0.4793454706668854,0.8773288130760193
2.987020492553711,-2.0773525171878955,1.5822037162799334,57.27984809684327,-0.02783203125,0.0361328125,1.00439453125,0.06103515625,-0.79345703125,-0.18310546875,0.0,0.0,0.0,0.022524520754814148,0.003427955787628889,-0.4793987274169922,0.8773015141487122
3.0030930042266846,-2.102851107463434,1.6477037363164748,57.28053453085486,-0.02880859375,0.03662109375,1.00341796875,0.06103515625,-0.30517578125,-0.1220703125,0.0,0.0,0.0,0.02299352176487446,0.0038227408658713102,-0.4794100821018219,0.8772814869880676
3.0241987705230713,-2.0055907077863337,1.642445984759446,57.288276550279065,-0.02880859375,0.03515625,1.00341796875,0.0,-0.54931640625,-0.1220703125,0.0,0.0,0.0,0.022227223962545395,0.004187874961644411,-0.4794655442237854,0.8772692084312439
3.0438880920410156,-1.9963614146703539,1.6678781941339884,57.29241222982151,-0.029296875,0.03515625,1.00390625,0.1220703125,-0.79345703125,-0.18310546875,0.0,0.0,0.0,0.022263040766119957,0.00442044110968709,-0.4794987440109253,0.8772490620613098
3.0631587505340576,-2.008650419091088,1.6462132609735312,57.295444833812994,-0.02880859375,0.03515625,1.00537109375,0.06103515625,-0.732421875,-0.18310546875,0.0,0.0,0.0,0.022266659885644913,0.004202528856694698,-0.4795208275318146,0.8772379159927368
3.0834031105041504,-2.0588326726968176,1.5823299680578728,57.296489852756004,-0.0283203125,0.0361328125,1.00390625,-0.06103515625,-0.67138671875,-0.18310546875,0.0,0.0,0.0,0.02238377183675766,0.0035031491424888372,-0.4795255959033966,0.877235472202301
3.1030383110046387,-2.062169006662957,1.7814107724567039,57.2989282302897,-0.03076171875,0.0361328125,1.00341796875,-0.30517578125,-0.54931640625,-0.06103515625,0.0,0.0,0.0,0.023241713643074036,0.005013126414269209,-0.47955960035324097,0.8771871328353882
3.1234118938446045,-1.9699924021624617,1.691635833223114,57.306776117646045,-0.02978515625,0.0341796875,1.00537109375,-0.244140625,-0.54931640625,-0.1220703125,0.0,0.0,0.0,0.022161085158586502,0.00470992736518383,-0.47960931062698364,0.8771896362304688
3.13818097114563,-2.073241597081194,1.6672392512814749,57.307793815832376,-0.029296875,0.03662109375,1.00439453125,0.30517578125,-0.6103515625,-0.1220703125,0.0,0.0,0.0,0.022849468514323235,0.0040907789953053,-0.4796193242073059,0.8771695494651794
3.163407325744629,-2.054440434173676,1.6888643772456757,57.310928872661414,-0.02978515625,0.0361328125,1.005859375,-0.06103515625,-0.91552734375,-0.18310546875,0.0,0.0,0.0,0.022796088829636574,0.0043344334699213505,-0.479644238948822,0.8771562576293945
3.1850051879882812,-2.101960408106982,1.720339489766681,57.311366004768296,-0.0302734375,0.03662109375,1.0029296875,-0.3662109375,-0.732421875,-0.1220703125,0.0,0.0,0.0,0.023291464895009995,0.004376438912004232,-0.4796518087387085,0.8771389126777649
3.20399808883667,-2.097688765111374,1.6958039561641145,57.31465815594824,-0.02978515625,0.037109375,1.00390625,-0.18310546875,-0.3662109375,-0.06103515625,0.0,0.0,0.0,0.023156294599175453,0.00420578895136714,-0.47967496514320374,0.8771305680274963
3.223012924194336,-1.971045531955113,1.733744803229889,57.3213858922807,-0.0302734375,0.03515625,1.00390625,0.244140625,-0.48828125,0.0,0.0,0.0,0.0,0.02234586700797081,0.0050250994972884655,-0.47972413897514343,0.8771203756332397
3.243008852005005,-1.9110508578330136,1.6456832809826203,57.32654951529323,-0.02880859375,0.033203125,1.00390625,0.0,-0.9765625,-0.30517578125,0.0,0.0,0.0,0.0215185284614563,0.004601042717695236,-0.479755163192749,0.8771264553070068
3.2630233764648438,-2.0070120274639307,1.6809352746712314,57.32687736437339,-0.029296875,0.03466796875,1.00390625,-0.244140625,-0.91552734375,-0.30517578125,0.0,0.0,0.0,0.0224005077034235,0.004469121340662241,-0.479763925075531,0.8771002888679504
3.2782437801361084,-2.0729015817265743,1.7421812607936182,57.328571251287556,-0.03076171875,0.03662109375,1.00341796875,0.0,-0.3662109375,-0.18310546875,0.0,0.0,0.0,0.023161068558692932,0.0046618334017694,-0.4797839820384979,0.8770685791969299
3.303173065185547,-2.0668927228042557,1.8333566022504724,57.33129649676639,-0.0322265625,0.0361328125,1.00244140625,-0.06103515625,-0.1220703125,0.0,0.0,0.0,0.0,0.023496558889746666,0.005384482443332672,-0.47981131076812744,0.8770405054092407
3.322826623916626,-2.0549652915227092,1.6350256245564618,57.33697921415584,-0.029296875,0.03564453125,1.00439453125,-0.18310546875,-0.732421875,-0.06103515625,0.0,0.0,0.0,0.02257586270570755,0.003914868459105492,-0.4798395335674286,0.8770570158958435
3.3430557250976562,-2.0584068530907498,1.7202615829214607,57.34073581819935,-0.0302734375,0.0361328125,1.0048828125,0.0,-1.03759765625,-0.18310546875,0.0,0.0,0.0,0.02295892871916294,0.004552260506898165,-0.4798749089241028,0.8770246505737305
3.3629982471466064,-2.1650060423539617,1.712645174944956,57.34046261063255,-0.02978515625,0.03759765625,1.00341796875,0.18310546875,-0.48828125,-0.244140625,0.0,0.0,0.0,0.023742901161313057,0.004047601018100977,-0.47987625002861023,0.8770055174827576
3.3830504417419434,-2.0591378967753524,1.6913213243561762,57.34704691299244,-0.02978515625,0.0361328125,1.0068359375,-0.244140625,-0.42724609375,-0.18310546875,0.0,0.0,0.0,0.02284369058907032,0.0043263803236186504,-0.4799211025238037,0.8770034909248352
3.399322032928467,-2.111871439479494,1.6544778965909523,57.35125430952117,-0.029296875,0.037109375,1.0048828125,-0.244140625,-0.6103515625,-0.1220703125,0.0,0.0,0.0,0.02309325896203518,0.0038226258475333452,-0.47995227575302124,0.8769822716712952
3.4240942001342773,-2.003430233574494,1.6398763395276401,57.3584669892847,-0.0283203125,0.03466796875,1.00390625,0.06103515625,-0.6103515625,0.0,0.0,0.0,0.0,0.022202495485544205,0.00416363961994648,-0.4800025224685669,0.8769763112068176
3.4435245990753174,-2.1124048345649893,1.661129326903781,57.35951200822771,-0.029296875,0.037109375,1.0068359375,0.244140625,-0.8544921875,-0.3662109375,0.0,0.0,0.0,0.02312544919550419,0.0038696457631886005,-0.48001599311828613,0.8769464492797852
3.4633655548095703,-2.0350228466935647,1.6938141299598193,57.36455268783518,-0.02978515625,0.03564453125,1.00390625,-0.48828125,-0.91552734375,-0.244140625,0.0,0.0,0.0,0.022670233622193336,0.004442999605089426,-0.4800542891025543,0.8769346475601196
3.483454942703247,-2.1072008707476746,1.7205898588884445,57.3664378200461,-0.0302734375,0.037109375,1.00244140625,-0.30517578125,-0.42724609375,-0.06103515625,0.0,0.0,0.0,0.023334721103310585,0.004345203284174204,-0.48007357120513916,0.8769070506095886
3.502991199493408,-2.0261126514778716,1.719597880633206,57.3716082732478,-0.02978515625,0.0361328125,1.00537109375,0.0,-0.30517578125,0.0,0.0,0.0,0.0,0.022710246965289116,0.004676301497966051,-0.4801097810268402,0.8769019842147827
3.5209856033325195,-2.0295922059731697,1.7458060635304853,57.375317065967124,-0.03076171875,0.03564453125,1.00390625,0.0,-0.48828125,-0.06103515625,0.0,0.0,0.0,0.022846728563308716,0.004861597903072834,-0.48014020919799805,0.8768807649612427
3.543353796005249,-1.9434306502539285,1.6607903787662193,57.38234533062307,-0.029296875,0.0341796875,1.00537109375,-0.06103515625,-0.91552734375,-0.1220703125,0.0,0.0,0.0,0.02183179184794426,0.004570517223328352,-0.4801844656467438,0.8768839836120605
3.5595109462738037,-2.1278613392133168,1.7117790215808337,57.38121834941001,-0.0302734375,0.03759765625,1.00244140625,-0.06103515625,-0.8544921875,-0.30517578125,0.0,0.0,0.0,0.02345648780465126,0.004188180435448885,-0.48018667101860046,0.8768426775932312
3.5825350284576416,-2.0898387433209136,1.6106663952118458,57.38478370815676,-0.02783203125,0.03662109375,1.00244140625,-0.06103515625,-0.42724609375,-0.18310546875,0.0,0.0,0.0,0.022742360830307007,0.0035728602670133114,-0.48020461201667786,0.8768543601036072
3.6033408641815186,-2.1158376449531557,1.5822950700600824,57.387290387582155,-0.0283203125,0.03759765625,1.00439453125,-0.3662109375,-0.48828125,-0.244140625,0.0,0.0,0.0,0.02282259799540043,0.003246248932555318,-0.48022228479385376,0.8768438100814819
3.6240687370300293,-2.0167158052838148,1.5682082317837542,57.39367661445612,-0.02783203125,0.03564453125,1.00537109375,0.0,-0.6103515625,0.1220703125,0.0,0.0,0.0,0.02200533263385296,0.0035525939892977476,-0.4802670478820801,0.8768390417098999
3.643244743347168,-1.9580201477644872,1.580002581098191,57.39966669035822,-0.02783203125,0.03466796875,1.0048828125,0.30517578125,-0.6103515625,-0.30517578125,0.0,0.0,0.0,0.02160579152405262,0.0038877392653375864,-0.4803118109703064,0.8768230676651001
3.663530111312866,-2.012913737793645,1.6682774400353169,57.40151084143412,-0.029296875,0.03466796875,1.00537109375,-0.1220703125,-0.91552734375,-0.18310546875,0.0,0.0,0.0,0.022395560517907143,0.004332915414124727,-0.48033440113067627,0.8767887949943542
3.6835241317749023,-2.0419761927120494,1.6938337667536831,57.404734690722364,-0.02978515625,0.0361328125,1.00390625,-0.244140625,-0.732421875,-0.244140625,0.0,0.0,0.0,0.022725077345967293,0.0044060517102479935,-0.48036202788352966,0.8767648339271545
3.7037107944488525,-2.1156784161681297,1.6376768051714845,57.40682472860839,-0.02880859375,0.037109375,1.00390625,-0.18310546875,-0.54931640625,-0.18310546875,0.0,0.0,0.0,0.02305387333035469,0.003666885197162628,-0.4803762137889862,0.8767518997192383
3.7189090251922607,-2.0652588134887417,1.746807219852421,57.41106627608297,-0.03076171875,0.0361328125,1.00341796875,0.3662109375,-0.54931640625,0.0,0.0,0.0,0.0,0.023125318810343742,0.004712601657956839,-0.48041531443595886,0.8767236471176147
3.7433836460113525,-2.0491177958195324,1.6936069831288976,57.41435842726291,-0.02978515625,0.0361328125,1.00439453125,0.0,-0.91552734375,-0.244140625,0.0,0.0,0.0,0.022779133170843124,0.00437246635556221,-0.48043593764305115,0.8767231106758118
3.763005495071411,-2.0551844979063847,1.6505712418291165,57.41826529546816,-0.029296875,0.0361328125,1.0048828125,-0.30517578125,-1.0986328125,-0.3662109375,0.0,0.0,0.0,0.022645428776741028,0.004016903229057789,-0.4804627597332001,0.8767135739326477
3.7835614681243896,-2.1433154959841167,1.724020001233966,57.41808088036057,-0.0302734375,0.03759765625,1.00390625,-0.1220703125,-0.3662109375,-0.1220703125,0.0,0.0,0.0,0.02362734079360962,0.00420951284468174,-0.48047029972076416,0.8766825199127197
3.8033053874969482,-2.1006872181570095,1.6761212719668417,57.42255465426693,-0.02978515625,0.037109375,1.0048828125,0.0,-0.30517578125,-0.1220703125,0.0,0.0,0.0,0.023100731894373894,0.004020783584564924,-0.4804992079734802,0.8766816854476929
3.8230674266815186,-2.0863724223171323,1.6837216716874792,57.42708989987582,-0.02880859375,0.03662109375,1.00439453125,-0.18310546875,-0.9765625,-0.1220703125,0.0,0.0,0.0,0.023023217916488647,0.004138062708079815,-0.4805339276790619,0.8766642212867737
3.843914031982422,-2.0668773548786232,1.593681315571611,57.43098310770272,-0.02880859375,0.03515625,1.0068359375,-0.18310546875,-0.9765625,-0.18310546875,0.0,0.0,0.0,0.02249697595834732,0.003530004993081093,-0.48055601119995117,0.8766683340072632
3.858309030532837,-2.0826841201653252,1.6185523822171546,57.429828805732996,-0.0283203125,0.03662109375,1.00537109375,-0.06103515625,-0.244140625,0.0,0.0,0.0,0.0,0.022722067311406136,0.0036542725283652544,-0.4805496037006378,0.8766655921936035
3.8829100131988525,-2.0397529661372102,1.650276583199454,57.43052548502833,-0.02978515625,0.03564453125,1.00341796875,-0.18310546875,-0.48828125,0.0,0.0,0.0,0.0,0.022526567801833153,0.0040769390761852264,-0.48055604100227356,0.8766651749610901
3.9034409523010254,-1.983353532839476,1.6672993356018297,57.43309363615626,-0.029296875,0.03515625,1.00439453125,-0.30517578125,-0.30517578125,-0.06103515625,0.0,0.0,0.0,0.022166511043906212,0.004443228244781494,-0.4805748164653778,0.8766623139381409
3.9236507415771484,-1.931940351079263,1.7712184226677523,57.4413513348628,-0.03125,0.03466796875,1.005859375,-0.06103515625,-0.67138671875,-0.30517578125,0.0,0.0,0.0,0.022208988666534424,0.005452481564134359,-0.48064276576042175,0.8766183257102966
3.9434118270874023,-2.0336687616906097,1.6913822624501773,57.441856768861385,-0.02978515625,0.03564453125,1.00390625,0.06103515625,-0.79345703125,-0.1220703125,0.0,0.0,0.0,0.022652678191661835,0.004414775408804417,-0.4806455373764038,0.8766112327575684
3.964085817337036,-2.068123224071916,1.4840665977898382,57.445920731417544,-0.02587890625,0.0361328125,1.00244140625,-0.06103515625,-0.91552734375,-0.3662109375,0.0,0.0,0.0,0.022047581151127815,0.002683080965653062,-0.4806613326072693,0.8766250610351562
3.9833991527557373,-2.0799010315219566,1.5407697610622262,57.44809273157361,-0.02734375,0.03662109375,1.00537109375,-0.30517578125,-0.67138671875,-0.30517578125,0.0,0.0,0.0,0.022375380620360374,0.0030671418644487858,-0.48068299889564514,0.8766035437583923
4.003768682479858,-2.1160427640716675,1.7391023395818235,57.44774439192594,-0.03466796875,0.0380859375,1.00537109375,0.0,-0.1220703125,0.30517578125,0.0,0.0,0.0,0.02348301000893116,0.004433210473507643,-0.4806973934173584,0.8765608668327332
4.023318767547607,-2.1353433845622427,1.7346126641413038,57.44255344815673,-0.0283203125,0.0380859375,1.00244140625,-0.1220703125,0.06103515625,0.1220703125,0.0,0.0,0.0,0.023611638695001602,0.004318963270634413,-0.48065805435180664,0.8765795230865479
4.045027494430542,-2.1543579908813233,1.5271320077238264,57.44387850485571,-0.01953125,0.03759765625,1.00390625,-0.06103515625,0.6103515625,-0.42724609375,0.0,0.0,0.0,0.02288770116865635,0.0026513037737458944,-0.4806514382362366,0.8766090273857117
4.060632944107056,-2.2615262202797624,1.512201534363296,57.48712726268023,-0.02978515625,0.0419921875,1.0009765625,0.1220703125,1.708984375,-4.0283203125,0.0,0.0,0.0,0.023645734414458275,0.0020786174573004246,-0.48098307847976685,0.8764085173606873
4.0808024406433105,-2.2953642580884748,1.7554335353307355,57.58793402464045,-0.05810546875,0.0419921875,0.99169921875,-0.8544921875,1.0986328125,-5.31005859375,0.0,0.0,0.0,0.024927759543061256,0.003775441087782383,-0.481777161359787,0.8759309649467468
4.098445415496826,-2.2107444041309523,1.9977169937771897,57.677095314065795,-0.04638671875,0.0302734375,1.0048828125,-1.0986328125,2.44140625,-4.21142578125,0.0,0.0,0.0,0.02530304715037346,0.0059641520492732525,-0.482474684715271,0.8755240440368652
4.118617296218872,-2.081638247448667,1.8906499365558318,57.77732150994656,-0.005859375,0.033203125,1.00537109375,-0.67138671875,1.28173828125,-5.67626953125,0.0,0.0,0.0,0.023871295154094696,0.005668511614203453,-0.48322606086730957,0.8751518726348877
4.1433117389678955,-2.049872318279407,1.727476290397404,57.89555208447948,-0.0146484375,0.0341796875,1.00048828125,-0.79345703125,3.0517578125,-5.79833984375,0.0,0.0,0.0,0.022946005687117577,0.004532191436737776,-0.48411571979522705,0.874691367149353
4.163729190826416,-1.9211926215334247,1.882328418269229,57.992656883909554,-0.046875,0.02490234375,1.00341796875,-1.89208984375,1.708984375,-4.45556640625,0.0,0.0,0.0,0.022622637450695038,0.006239020731300116,-0.484860897064209,0.8742763996124268
4.191949367523193,-1.3562879524057685,1.9942030748926298,58.100881231308406,-0.01904296875,-0.2041015625,1.0068359375,-6.28662109375,-2.3193359375,-6.53076171875,0.0,0.0,0.0,0.01879437267780304,0.00946524553000927,-0.4856518805027008,0.8738991022109985
4.198700428009033,-1.170900823519167,2.0348012924323626,58.13620013950654,-0.013671875,-0.2529296875,1.0185546875,-8.85009765625,8.60595703125,-2.50244140625,0.0,0.0,0.0,0.01755574904382229,0.01055519375950098,-0.4859054386615753,0.8737713098526001
4.223604917526245,-0.8843918368360272,2.1320096119170415,58.27688154584129,-0.0390625,-0.24755859375,1.1083984375,-0.1220703125,4.5166015625,-7.080078125,0.0,0.0,0.0,0.01579834707081318,0.01249203085899353,-0.4869481325149536,0.8731987476348877
4.237988710403442,-0.619991158640014,2.2087713332344645,58.49552273136257,-0.0546875,-0.22607421875,0.9775390625,-5.859375,4.638671875,-11.77978515625,0.0,0.0,0.0,0.014136671088635921,0.014173615723848343,-0.48858022689819336,0.8722892999649048
4.264780282974243,-0.3286100592836867,2.3528552409929415,58.80853664064592,-0.02294921875,-0.283203125,1.013671875,-3.72314453125,8.36181640625,-17.63916015625,0.0,0.0,0.0,0.012577791698276997,0.016478512436151505,-0.49091440439224243,0.8709612488746643
4.283582448959351,-0.0737472733561334,2.4773772735250903,59.214147424507125,-0.0849609375,-0.24365234375,0.9541015625,-3.23486328125,5.06591796875,-20.751953125,0.0,0.0,0.0,0.011239519342780113,0.018477115780115128,-0.4939457178115845,0.8692237138748169
4.303334951400757,0.23134683148138283,2.612556322153163,59.6512658710096,-0.10986328125,-0.22607421875,0.953125,-4.33349609375,5.9814453125,-21.728515625,0.0,0.0,0.0,0.009587269276380539,0.02078108675777912,-0.4971919357776642,0.8673387765884399
4.326896905899048,0.48090935059236656,2.7292065616668717,60.11743994224131,-0.1181640625,-0.2294921875,1.02783203125,-0.732421875,2.8076171875,-23.0712890625,0.0,0.0,0.0,0.0082970280200243,0.022713107988238335,-0.5006542801856995,0.8653096556663513
4.343506097793579,0.6937483971354247,2.892769315164579,60.6126149966889,-0.0947265625,-0.248046875,1.0126953125,0.732421875,6.16455078125,-26.0009765625,0.0,0.0,0.0,0.00751214986667037,0.024845635518431664,-0.5043206810951233,0.8631262183189392
4.363949298858643,0.8678841233857526,2.909347678384081,61.20454651091888,-0.09130859375,-0.22412109375,1.00732421875,2.685546875,-0.67138671875,-29.47998046875,0.0,0.0,0.0,0.006406382191926241,0.025704076513648033,-0.5087314248085022,0.8605176210403442
4.381607532501221,1.1143828224063097,2.934404440797684,62.006936644044465,-0.11328125,-0.158203125,1.01953125,0.1220703125,-0.79345703125,-32.71484375,0.0,0.0,0.0,0.004855471197515726,0.02695312350988388,-0.5146833062171936,0.856942892074585
4.403072357177734,1.2727020183338567,2.9929220865117685,62.50752803850387,-0.1103515625,-0.1630859375,1.00732421875,-1.220703125,0.48828125,-33.63037109375,0.0,0.0,0.0,0.0040573012083768845,0.02808418497443199,-0.5183725357055664,0.8546839952468872
4.42331862449646,1.50565020901049,3.0820274537632852,63.21246503255172,-0.09423828125,-0.21142578125,0.97802734375,0.67138671875,2.25830078125,-35.888671875,0.0,0.0,0.0,0.0029066153801977634,0.029784895479679108,-0.5235428214073181,0.8514736890792847
4.438837289810181,1.6785882509176857,3.0829967002951926,63.97321150230774,-0.08740234375,-0.16650390625,0.98486328125,1.64794921875,4.39453125,-37.04833984375,0.0,0.0,0.0,0.0018290223088115454,0.030570708215236664,-0.5291382670402527,0.8479828238487244
4.458509206771851,1.8251795851534978,3.163233493796271,64.72888997169962,-0.1435546875,-0.15966796875,0.93408203125,3.662109375,1.03759765625,-35.7666015625,0.0,0.0,0.0,0.0013251734199002385,0.031832970678806305,-0.5346596240997314,0.8444666862487793
4.483859539031982,2.040536090014234,3.259336816739289,65.50016859315579,-0.1044921875,-0.16162109375,1.0341796875,-0.18310546875,-2.13623046875,-40.8935546875,0.0,0.0,0.0,0.00041295119444839656,0.03354346752166748,-0.5402452349662781,0.8408387303352356
4.500079393386841,2.1930608309263775,3.2383107197096397,66.38158401497843,-0.02783203125,-0.11572265625,1.1376953125,3.90625,0.67138671875,-46.93603515625,0.0,0.0,0.0,-0.0005431426106952131,0.034113530069589615,-0.5466574430465698,0.8366610407829285
4.523535490036011,2.3232935419348917,3.259604901664212,67.32955963026284,-0.10302734375,-0.09326171875,1.013671875,2.13623046875,2.25830078125,-47.4853515625,0.0,0.0,0.0,-0.0011035691713914275,0.03490046039223671,-0.5535148978233337,0.8321070075035095
4.5390379428863525,2.446416239460834,3.473926632865692,68.27643558509087,-0.15185546875,-0.09423828125,0.85595703125,0.8544921875,7.568359375,-46.32568359375,0.0,0.0,0.0,-0.0006543815834447742,0.037056807428598404,-0.5602699518203735,0.8274805545806885
4.564001560211182,2.5867482389308583,3.6909983689817483,69.21275889765124,-0.1484375,-0.10302734375,0.89208984375,0.91552734375,2.5634765625,-45.71533203125,0.0,0.0,0.0,-0.0002831447054632008,0.03931250795722008,-0.5668978691101074,0.8228495717048645
4.579898357391357,2.696130089950616,3.786725604633592,70.1745519856266,-0.11962890625,-0.0595703125,1.00439453125,0.6103515625,-2.50244140625,-49.31640625,0.0,0.0,0.0,-0.0002537198306526989,0.040543824434280396,-0.5737146735191345,0.8180512189865112
4.603188514709473,2.710682234864151,3.842158993050593,71.20304870103628,-0.0712890625,-0.05029296875,1.12890625,2.197265625,0.91552734375,-53.77197265625,0.0,0.0,0.0,0.00028863962506875396,0.041011035442352295,-0.5810099244117737,0.8128625750541687
4.623765707015991,2.6439476581351298,3.875585085074989,72.29309908124613,-0.12451171875,-0.04296875,1.0263671875,1.708984375,-2.5634765625,-55.60302734375,0.0,0.0,0.0,0.0013209804892539978,0.040898796170949936,-0.5887284278869629,0.807294487953186
4.643749713897705,2.682247517019153,3.976347023918779,73.37778093276833,-0.162109375,-0.05517578125,0.94775390625,1.3427734375,-2.3193359375,-54.931640625,0.0,0.0,0.0,0.0019655777141451836,0.04178785905241966,-0.5962952971458435,0.801674485206604
4.667621850967407,2.743605881097728,4.281690203877376,74.76379707009318,-0.078125,-0.01806640625,0.9052734375,-3.7841796875,8.7890625,-55.908203125,0.0,0.0,0.0,0.003663561772555113,0.04419942945241928,-0.6058165431022644,0.7943673133850098
4.683643579483032,2.8025316306147205,4.351317579163309,75.58004565704472,-0.21728515625,-0.009765625,0.9658203125,-2.3193359375,-8.23974609375,-54.87060546875,0.0,0.0,0.0,0.003944444935768843,0.04496597871184349,-0.6114109754562378,0.7900248169898987
4.705646514892578,2.792988789127155,4.396709735726744,76.73074128689511,-0.04931640625,-0.0390625,1.13427734375,7.75146484375,8.6669921875,-60.36376953125,0.0,0.0,0.0,0.004706949461251497,0.045182570815086365,-0.6193000078201294,0.783839225769043
4.723096609115601,2.553574010132106,4.297469221520575,77.9733849233522,-0.06982421875,-0.04150390625,1.15380859375,15.93017578125,1.77001953125,-61.21826171875,0.0,0.0,0.0,0.006275253836065531,0.04314514622092247,-0.627892017364502,0.7770784497261047
4.740009069442749,2.4173949791208615,4.36652883733175,79.17441221719642,-0.19873046875,0.0517578125,0.93115234375,0.54931640625,0.8544921875,-59.38720703125,0.0,0.0,0.0,0.008026751689612865,0.042784858494997025,-0.6360283493995667,0.7704368829727173
4.7640345096588135,2.3788142287072214,4.4760709843535915,80.3990173240555,-0.11474609375,0.03466796875,0.9736328125,0.732421875,3.47900390625,-63.41552734375,0.0,0.0,0.0,0.009357603266835213,0.043208688497543335,-0.6442006826400757,0.7635777592658997
4.783103704452515,2.314361575491219,4.676991670960095,81.6753064723641,-0.1279296875,-0.01171875,0.994140625,2.685546875,5.859375,-64.3310546875,0.0,0.0,0.0,0.011410153470933437,0.04405897110700607,-0.6526166796684265,0.7563201189041138
4.803029537200928,2.267105844501428,4.859813210039711,82.95007248848776,-0.19677734375,-0.00634765625,0.982421875,4.82177734375,-0.06103515625,-63.8427734375,0.0,0.0,0.0,0.013264945708215237,0.044849950820207596,-0.6609402298927307,0.7489796280860901
4.820533514022827,2.190198127890496,4.986833384260792,84.21028337149014,-0.16357421875,0.033203125,0.98681640625,2.197265625,-0.8544921875,-64.3310546875,0.0,0.0,0.0,0.014998202212154865,0.04507312551140785,-0.6691191792488098,0.741635262966156
4.8438379764556885,2.1283518321730885,5.036402628388513,85.4804731608699,-0.17529296875,0.0068359375,1.03173828125,4.08935546875,-4.82177734375,-64.453125,0.0,0.0,0.0,0.01618662290275097,0.044855665415525436,-0.6773039698600769,0.7341561913490295
4.863473892211914,2.0519186002660605,5.1497030870011535,86.76523857393848,-0.11669921875,0.0009765625,0.923828125,3.60107421875,2.0751953125,-64.697265625,0.0,0.0,0.0,0.017852013930678368,0.04493136331439018,-0.6854789853096008,0.7264853715896606
4.88292121887207,1.9095132114961144,5.238075489577364,88.08828036711579,-0.1005859375,0.033203125,1.05126953125,2.13623046875,5.55419921875,-68.115234375,0.0,0.0,0.0,0.019798416644334793,0.044413283467292786,-0.6938424110412598,0.7184833288192749
4.903480529785156,1.7997023392191154,5.335402697042284,89.4309794447244,-0.17041015625,0.021484375,1.12841796875,3.90625,-0.91552734375,-68.29833984375,0.0,0.0,0.0,0.021595420315861702,0.04410771653056145,-0.702218234539032,0.7102659940719604
4.923459053039551,1.723369532437228,5.38572923839423,90.79793935426491,-0.162109375,0.02392578125,0.962890625,3.7841796875,-2.74658203125,-68.78662109375,0.0,0.0,0.0,0.022900085896253586,0.043681371957063675,-0.710650622844696,0.7018142938613892
4.943356037139893,1.7213388318196186,5.464359656779886,92.17261054737835,-0.13427734375,0.0302734375,0.8701171875,-1.0986328125,1.40380859375,-70.1904296875,0.0,0.0,0.0,0.023928767070174217,0.043865758925676346,-0.7189886569976807,0.6932232975959778
4.963521957397461,1.8052544292406896,5.638025754163923,93.57488936511699,-0.158203125,0.03076171875,0.86376953125,-6.89697265625,3.90625,-69.7021484375,0.0,0.0,0.0,0.02506648562848568,0.045137837529182434,-0.7273158431053162,0.6843580603599548
4.97865104675293,1.9676575446833753,5.730691357520309,94.9762870884527,-0.19677734375,0.00830078125,1.076171875,-1.8310546875,2.74658203125,-70.6787109375,0.0,0.0,0.0,0.025255106389522552,0.046415623277425766,-0.7355273962020874,0.6754311323165894
5.007740020751953,1.9446376727463166,5.982265580785273,96.3910788127508,-0.17626953125,-0.013671875,1.08984375,6.4697265625,1.40380859375,-69.2138671875,0.0,0.0,0.0,0.02759547531604767,0.0474107451736927,-0.7437111735343933,0.6662466526031494
5.02696418762207,1.9401532266693802,5.914709887251969,97.77117317606523,-0.25048828125,0.05029296875,0.998046875,-0.54931640625,-7.01904296875,-68.359375,0.0,0.0,0.0,0.027746351435780525,0.04665886610746384,-0.751712441444397,0.6572529673576355
5.044670343399048,1.9976638463677105,5.987117149530098,99.11634478215339,-0.14501953125,0.064453125,1.068359375,-4.39453125,0.732421875,-68.29833984375,0.0,0.0,0.0,0.02844727598130703,0.047119881957769394,-0.7593204379081726,0.6483849883079529
5.063557863235474,2.0320826636992857,6.010798696043001,100.45996593529996,-0.20263671875,-0.009765625,0.99853515625,3.662109375,-7.2021484375,-67.3828125,0.0,0.0,0.0,0.028964467346668243,0.047145288437604904,-0.7668458223342896,0.6394418478012085
5.087100505828857,1.895304923918607,6.065970402837426,102.14270598073766,-0.1044921875,0.03271484375,0.9970703125,8.72802734375,5.7373046875,-68.78662109375,0.0,0.0,0.0,0.030777564272284508,0.04609016701579094,-0.7761833071708679,0.628066897392273
5.112236976623535,1.7820368019828179,6.155026678104283,104.14888280413216,-0.20849609375,0.0537109375,1.0322265625,0.54931640625,-2.25830078125,-65.97900390625,0.0,0.0,0.0,0.03279947489500046,0.04524274170398712,-0.7870640158653259,0.6143350601196289
5.131644010543823,1.7892368885850691,6.179954734140714,104.47613765783497,-0.21240234375,0.044921875,1.0380859375,0.06103515625,-0.18310546875,-66.46728515625,0.0,0.0,0.0,0.033061910420656204,0.04533131420612335,-0.7888010740280151,0.6120823621749878
5.143025636672974,1.7567866598383386,6.362195707140879,105.79441880916079,-0.12646484375,0.0185546875,0.99853515625,1.5869140625,8.30078125,-66.40625,0.0,0.0,0.0,0.035019103437662125,0.045679379254579544,-0.7957189083099365,0.6029250621795654
5.163939714431763,1.6989232181806946,6.5439897296372305,107.44798711665337,-0.20947265625,0.03662109375,0.947265625,2.13623046875,-2.50244140625,-66.46728515625,0.0,0.0,0.0,0.03725079074501991,0.04569916054606438,-0.8042728304862976,0.5913282632827759
5.18507719039917,1.6651826172893605,6.62853124986271,108.44109662197323,-0.189453125,0.03271484375,1.03662109375,4.57763671875,0.0,-66.46728515625,0.0,0.0,0.0,0.038415323942899704,0.045566391199827194,-0.8093400001525879,0.5843087434768677
5.211940288543701,1.4833698117727911,6.684811154849968,110.43939823725468,-0.16015625,0.03271484375,0.984375,4.45556640625,-0.91552734375,-67.0166015625,0.0,0.0,0.0,0.04051143303513527,0.043868813663721085,-0.8194490075111389,0.5700329542160034
5.224337339401245,1.4527503938887414,6.705581760115977,111.09537643533189,-0.17529296875,0.03173828125,0.935546875,3.72314453125,-3.2958984375,-66.22314453125,0.0,0.0,0.0,0.04106222093105316,0.04351860657334328,-0.8227003216743469,0.5653178095817566
5.244439363479614,1.4545242153605347,6.831519776240434,112.74716889364025,-0.10986328125,0.03759765625,0.876953125,-4.39453125,5.2490234375,-66.46728515625,0.0,0.0,0.0,0.04259056597948074,0.04354187846183777,-0.8307010531425476,0.5533769726753235
5.262985706329346,1.4793589966261127,6.844839498895605,113.7348142476241,-0.119140625,0.0283203125,1.05810546875,-1.8310546875,1.3427734375,-66.46728515625,0.0,0.0,0.0,0.042943090200424194,0.04341758415102959,-0.8354235887527466,0.54620361328125
5.28640079498291,1.4650463352203509,6.749260392971386,115.35995530779108,-0.091796875,-0.0263671875,1.08154296875,8.056640625,6.53076171875,-62.80517578125,0.0,0.0,0.0,0.04291733354330063,0.04225432872772217,-0.8431383967399597,0.5343130230903625
5.3037803173065186,1.4015839527122949,6.733164625305427,116.22364638871753,-0.19287109375,0.00146484375,0.9609375,4.0283203125,-12.20703125,-55.2978515625,0.0,0.0,0.0,0.0434078723192215,0.04138651117682457,-0.8471726179122925,0.5279217958450317
5.323370695114136,1.4362925194750666,6.7076367932825045,117.1760752873408,-0.11669921875,0.03515625,0.9658203125,-4.8828125,-2.197265625,-44.12841796875,0.0,0.0,0.0,0.04340270161628723,0.041166458278894424,-0.8515313267707825,0.5208802223205566
5.344069480895996,1.4847901709550364,6.4451906164061725,117.88010386622902,-0.10546875,-0.0283203125,1.02099609375,-0.6103515625,-6.89697265625,-30.21240234375,0.0,0.0,0.0,0.04147717356681824,0.040082626044750214,-0.8548257946968079,0.515699565410614
5.363031387329102,1.5338218578507365,6.141824776212295,118.32259084141913,-0.076171875,-0.02978515625,0.99365234375,5.79833984375,-4.82177734375,-17.08984375,0.0,0.0,0.0,0.03914196789264679,0.03893551602959633,-0.856936514377594,0.5124566555023193
5.384176969528198,1.3881138591736777,5.8657519450549644,118.56205727371977,-0.0634765625,0.04638671875,0.92529296875,-4.69970703125,-2.8076171875,-9.521484375,0.0,0.0,0.0,0.037803616374731064,0.036535028368234634,-0.8581775426864624,0.5106539726257324
5.4042439460754395,1.3367847741176202,5.7114699245354235,118.67038407395619,-0.05224609375,0.029296875,1.04248046875,-3.84521484375,-3.84521484375,-5.06591796875,0.0,0.0,0.0,0.036909572780132294,0.035429585725069046,-0.8587426543235779,0.5098464488983154
5.423121213912964,1.1835711445946577,5.350435089631835,118.73975147516683,-0.0751953125,-0.01806640625,1.09033203125,6.9580078125,-9.46044921875,-3.7841796875,0.0,0.0,0.0,0.03490343317389488,0.0326567068696022,-0.8592450618743896,0.5093263983726501
5.443356275558472,0.9951786257515447,5.2041426828939175,118.81238370680074,0.013671875,0.0556640625,0.94287109375,2.01416015625,9.46044921875,-4.57763671875,0.0,0.0,0.0,0.03466254845261574,0.030572781339287758,-0.8596764206886292,0.508743941783905
5.463175058364868,0.8575185642683179,5.179085280150079,118.92176235616932,-0.02978515625,0.05859375,1.03759765625,0.54931640625,-0.42724609375,-5.55419921875,0.0,0.0,0.0,0.03511368855834007,0.029395410791039467,-0.8602070212364197,0.5078847408294678
5.483170032501221,0.7447950431971314,5.141278048659943,119.01213941926694,-0.08544921875,0.06005859375,1.041015625,-3.84521484375,0.1220703125,-4.69970703125,0.0,0.0,0.0,0.03535173460841179,0.028353944420814514,-0.8606497645378113,0.50717693567276
5.503090143203735,0.5782546473864163,5.031867382779624,119.1030492371198,-0.056640625,0.0146484375,1.08935546875,4.7607421875,-1.708984375,-5.2490234375,0.0,0.0,0.0,0.03528789430856705,0.026591282337903976,-0.8611310124397278,0.5064594149589539
5.530267715454102,0.2978901095527907,4.886784346411622,119.20886252774164,-0.0703125,0.03076171875,0.92041015625,4.08935546875,-4.150390625,-5.43212890625,0.0,0.0,0.0,0.035458385944366455,0.02381070889532566,-0.8617096543312073,0.5056010484695435
5.543521165847778,0.1484935419196605,4.746727475499102,119.28743702395347,-0.01123046875,0.0263671875,0.943359375,2.99072265625,1.03759765625,-6.04248046875,0.0,0.0,0.0,0.035079315304756165,0.022045399993658066,-0.8621315360069275,0.504987895488739
5.563437223434448,0.04734525049062183,4.610466482217817,119.3965561261336,-0.04736328125,0.0439453125,0.9228515625,-1.220703125,-3.7841796875,-5.859375,0.0,0.0,0.0,0.0345194935798645,0.020651113241910934,-0.862673282623291,0.5041596293449402
5.5832483768463135,-0.01912949223535454,4.511815925601208,119.49575779363886,-0.01904296875,0.05029296875,1.0166015625,-6.2255859375,3.7841796875,-6.591796875,0.0,0.0,0.0,0.03408632427453995,0.019687149673700333,-0.8631507158279419,0.5034099817276001
5.603227615356445,-0.02650314168173949,4.553639735210134,119.63387787903486,0.025390625,0.00830078125,1.123046875,3.47900390625,10.31494140625,-6.65283203125,0.0,0.0,0.0,0.03445760905742645,0.019773827865719795,-0.8637456297874451,0.5023596286773682
5.623203277587891,-0.23963777399927916,4.449118631001898,119.75561917080117,-0.11962890625,0.03955078125,1.06787109375,6.2255859375,-7.38525390625,-6.16455078125,0.0,0.0,0.0,0.034622903913259506,0.017672203481197357,-0.8643441200256348,0.5013961791992188
5.643453598022461,-0.3896367589811192,4.434182714834373,119.87339895284887,-0.05712890625,0.08544921875,0.943359375,-4.0283203125,-0.54931640625,-7.32421875,0.0,0.0,0.0,0.035183463245630264,0.016439244151115417,-0.8648855090141296,0.5004647374153137
5.658350467681885,-0.4205862937815775,4.414838338444428,120.00123277335483,-0.0849609375,0.04931640625,0.91748046875,-9.521484375,-1.708984375,-7.14111328125,0.0,0.0,0.0,0.03519061207771301,0.016081877052783966,-0.8654530048370361,0.4994938373565674
5.687121629714966,-0.3100522218653505,4.511175168479696,120.1202693102098,-0.083984375,-0.00830078125,0.99658203125,-0.18310546875,-0.6103515625,-5.31005859375,0.0,0.0,0.0,0.035454247146844864,0.01729995384812355,-0.8659283518791199,0.4986099600791931
5.703430891036987,-0.2879100825974914,4.521485765918653,120.2198534683086,-0.099609375,0.02392578125,1.0087890625,1.3427734375,-7.38525390625,-5.31005859375,0.0,0.0,0.0,0.0354510098695755,0.017481354996562004,-0.8663550019264221,0.4978622496128082
5.725603818893433,-0.36637908440315314,4.508124635241638,120.28015037830147,-0.07958984375,0.06884765625,0.9775390625,-8.9111328125,-2.9296875,-4.150390625,0.0,0.0,0.0,0.03569977357983589,0.01681124046444893,-0.866632342338562,0.4973844289779663
5.743422508239746,-0.39460932345987365,4.335783167669761,120.32315324931587,-0.07958984375,0.005859375,1.13037109375,-0.3662109375,-8.056640625,-2.99072265625,0.0,0.0,0.0,0.03452502563595772,0.015836374834179878,-0.8668708801269531,0.4970836639404297
5.765594959259033,-0.32051068222766804,4.127743716400812,120.38590902740994,-0.06298828125,0.00341796875,0.98828125,3.11279296875,-8.30078125,-2.99072265625,0.0,0.0,0.0,0.03263842687010765,0.015476200729608536,-0.8671882152557373,0.4966689348220825
5.7847278118133545,-0.44168560190139317,4.043529191481848,120.44997620182467,0.07470703125,0.05078125,0.9931640625,3.23486328125,7.99560546875,-3.84521484375,0.0,0.0,0.0,0.032534319907426834,0.014175835065543652,-0.8675029277801514,0.4961646497249603
5.802604675292969,-0.563877792874627,3.9654661056841256,120.48777446869151,-0.080078125,0.05615234375,1.02099609375,-3.41796875,-2.0751953125,-1.46484375,0.0,0.0,0.0,0.032476767897605896,0.012901886366307735,-0.8677000999450684,0.4958581328392029
5.824387073516846,-0.661790422256611,3.863626704498766,120.53518964190974,-0.0185546875,0.02734375,1.09765625,1.03759765625,1.8310546875,-3.23486328125,0.0,0.0,0.0,0.032134298235177994,0.0117062171921134,-0.8679396510124207,0.4954907298088074
5.838390350341797,-0.7666730462431814,3.7109126392805667,120.59507674055241,-0.06494140625,0.02734375,0.95263671875,1.40380859375,-5.126953125,-3.35693359375,0.0,0.0,0.0,0.03143671900033951,0.010234558954834938,-0.8682426810264587,0.4950369894504547
5.863485813140869,-0.9160867427100896,3.51847376696275,120.68535818100165,-0.01025390625,0.02294921875,0.9296875,2.0751953125,-1.15966796875,-5.859375,0.0,0.0,0.0,0.03063094988465309,0.008246297016739845,-0.8686844706535339,0.49434924125671387
5.883408546447754,-0.9498418577534099,3.3621211319076374,120.80643011422929,-0.0185546875,0.021484375,0.91015625,-0.18310546875,-0.3662109375,-5.9814453125,0.0,0.0,0.0,0.029599331319332123,0.0072840373031795025,-0.8692386746406555,0.49345219135284424
5.903092384338379,-1.032901867259231,3.2378390097700853,120.92041231109846,-0.04638671875,0.03662109375,1.00634765625,-2.99072265625,-4.39453125,-6.4697265625,0.0,0.0,0.0,0.029020581394433975,0.006089454982429743,-0.8697564005851746,0.4925895631313324
5.9231507778167725,-1.0083042216238993,3.1937855702839726,121.0856482474994,0.07763671875,0.0234375,1.11669921875,0.48828125,11.29150390625,-9.33837890625,0.0,0.0,0.0,0.028589310124516487,0.006045395042747259,-0.8704723119735718,0.491349458694458
5.944214105606079,-1.067606485318889,3.135537076711869,121.2522638821127,-0.08056640625,0.00732421875,1.11865234375,9.70458984375,-7.01904296875,-8.11767578125,0.0,0.0,0.0,0.02840898185968399,0.0053036329336464405,-0.8711986541748047,0.4900793731212616
5.958345413208008,-1.2248967772809969,3.1931113025468454,121.39396298663378,-0.07861328125,0.07177734375,0.9453125,-0.48828125,-0.67138671875,-7.2021484375,0.0,0.0,0.0,0.029524579644203186,0.004317766521126032,-0.8718008995056152,0.4889507591724396
5.983585357666016,-1.3338172703666613,3.1946694394512547,121.5506885073289,-0.06982421875,0.05908203125,0.91064453125,-5.9814453125,-3.60107421875,-8.6669921875,0.0,0.0,0.0,0.03000592067837715,0.0034547289833426476,-0.8724722862243652,0.48772934079170227
6.004192352294922,-1.2319004959446103,3.3306286237485896,121.70648512229688,-0.07666015625,0.0029296875,0.9912109375,-1.52587890625,-1.220703125,-7.568359375,0.0,0.0,0.0,0.030613426119089127,0.004768404643982649,-0.8731078505516052,0.48654159903526306
6.023031711578369,-1.1411953703234294,3.405843093775593,121.82303547029399,-0.09765625,-0.013671875,1.056640625,6.28662109375,-6.34765625,-4.8828125,0.0,0.0,0.0,0.030807044357061386,0.005747877527028322,-0.8735846281051636,0.4856622815132141
6.043066501617432,-1.2279152940073195,3.4324289647896333,121.90950566518634,-0.1005859375,0.05517578125,0.94287109375,-1.3427734375,-6.4697265625,-4.33349609375,0.0,0.0,0.0,0.031381089240312576,0.0051758913323283195,-0.8739501237869263,0.4849739968776703
6.071681499481201,-1.3276552657965461,3.3812305071014523,122.00900786101509,-0.09716796875,-0.00146484375,1.091796875,2.38037109375,-8.544921875,-2.01416015625,0.0,0.0,0.0,0.031416505575180054,0.0041709900833666325,-0.8743841052055359,0.48419836163520813
6.08191704750061,-1.3208157918381305,3.3580193898676334,122.01862476736648,-0.1142578125,-0.0078125,1.0498046875,3.60107421875,-12.5732421875,-1.3427734375,0.0,0.0,0.0,0.03121090680360794,0.004122360143810511,-0.8744285702705383,0.484131783246994
6.098806381225586,-1.3243140226319405,3.1550481524062453,122.0109203139827,0.02001953125,0.00927734375,0.95703125,7.080078125,-2.25830078125,2.13623046875,0.0,0.0,0.0,0.02967716194689274,0.0032390872947871685,-0.874430239200592,0.48423197865486145
6.123132228851318,-1.4800423357082313,2.922783941141965,121.85090264210764,0.07421875,0.052734375,1.02294921875,3.47900390625,-3.60107421875,11.474609375,0.0,0.0,0.0,0.02856193669140339,0.0011079696705564857,-0.8737910985946655,0.48546090722084045
6.148859024047852,-1.5774559877548342,2.6003716915606834,121.55284684710662,0.02392578125,0.05859375,1.03369140625,-0.244140625,-6.53076171875,15.625,0.0,0.0,0.0,0.026519499719142914,-0.0009334049536846578,-0.8725664019584656,0.4877742826938629
6.162302017211914,-1.6623313334759975,2.2207482833874934,120.99819450536657,0.0517578125,0.03515625,1.02587890625,1.40380859375,-6.65283203125,27.9541015625,0.0,0.0,0.0,0.024006225168704987,-0.003081278409808874,-0.8702313899993896,0.49204835295677185
6.18393087387085,-1.7213263453800423,1.9725093268716114,120.50965839479224,0.03857421875,0.0341796875,0.9951171875,3.2958984375,-4.5166015625,35.33935546875,0.0,0.0,0.0,0.022394327446818352,-0.004500849638134241,-0.8681423664093018,0.4957893490791321
6.2039711475372314,-1.8381688974075694,1.6310692374797318,119.7379153204725,0.0830078125,0.04052734375,0.94580078125,3.662109375,-4.69970703125,41.32080078125,0.0,0.0,0.0,0.02035960741341114,-0.006727677304297686,-0.8647953271865845,0.5016666054725647
6.234579563140869,-1.9284471362056246,1.2663157914598946,118.80129147958864,0.06787109375,0.0458984375,0.9033203125,0.0,-6.40869140625,50.048828125,0.0,0.0,0.0,0.018075820058584213,-0.008859607391059399,-0.8606680035591125,0.5087685585021973
6.240540027618408,-1.9224920650230197,1.0197786192644034,117.8039199362267,0.1328125,0.05810546875,1.00439453125,-4.39453125,3.0517578125,49.37744140625,0.0,0.0,0.0,0.016283707693219185,-0.009768777526915073,-0.8562074899673462,0.5162831544876099
6.26677393913269,-1.9000504112878849,0.7876011193860707,116.57878890480151,0.07666015625,0.02001953125,1.07373046875,2.25830078125,0.8544921875,48.15673828125,0.0,0.0,0.0,0.014561093412339687,-0.010492578148841858,-0.8506366610527039,0.5254476070404053
6.283234596252441,-1.938002784297884,0.624049518306618,115.8825467415671,0.044921875,0.0107421875,1.0390625,5.4931640625,0.54931640625,45.5322265625,0.0,0.0,0.0,0.013590976595878601,-0.01144215278327465,-0.8474196195602417,0.5306264162063599
6.303361892700195,-2.0309665681002236,0.45530676001454395,115.01101460347347,-0.0234375,0.06982421875,0.88818359375,-5.859375,-5.2490234375,42.41943359375,0.0,0.0,0.0,0.012871552258729935,-0.012813692912459373,-0.8433417677879333,0.5370706915855408
6.3229546546936035,-1.9941469392753888,0.40314575258149377,114.23119824555478,0.001953125,0.0537109375,0.97900390625,-12.0849609375,0.48828125,35.94970703125,0.0,0.0,0.0,0.012401865795254707,-0.012703138403594494,-0.8396686315536499,0.5428088903427124
6.343556642532349,-1.7245293839356608,0.3496440003587112,113.68027518710154,-0.0087890625,-0.01025390625,1.07861328125,-3.0517578125,3.90625,23.01025390625,0.0,0.0,0.0,0.010785330086946487,-0.010929243639111519,-0.8370741605758667,0.5468741059303284
6.363289833068848,-1.628232040931532,0.5296355466052672,113.34916810670684,-0.076171875,0.00341796875,0.98583984375,1.64794921875,1.8310546875,13.0615234375,0.0,0.0,0.0,0.011667512357234955,-0.00933300144970417,-0.8355065584182739,0.5492774248123169
6.383265972137451,-1.655190904307278,0.7647474665057667,113.17386447146929,-0.0673828125,0.044921875,0.97021484375,-2.74658203125,-2.74658203125,7.2021484375,0.0,0.0,0.0,0.013523632660508156,-0.008381670340895653,-0.8346697688102722,0.5505209565162659
6.403212785720825,-1.6278584082395913,0.7414397661282156,113.07951906846391,-0.095703125,0.0234375,1.01171875,-1.03759765625,-12.63427734375,5.31005859375,0.0,0.0,0.0,0.013229398056864738,-0.008283702656626701,-0.8342176675796509,0.551214337348938
6.423752546310425,-1.615050416163642,0.6455264078214884,113.00112898735966,0.076171875,0.01318359375,1.17822265625,6.34765625,2.86865234375,4.08935546875,0.0,0.0,0.0,0.012475539930164814,-0.008643421344459057,-0.8338390588760376,0.551798939704895
6.440137624740601,-1.7152545206513123,0.5398098070650889,112.88907290383644,0.0068359375,0.0400390625,0.96826171875,1.89208984375,-0.48828125,6.77490234375,0.0,0.0,0.0,0.012198539450764656,-0.009869818575680256,-0.8332875370979309,0.5526171922683716
6.464312791824341,-1.8488207908616159,0.5649876452539012,112.73078326982139,0.0078125,0.0556640625,0.89013671875,-3.84521484375,5.43212890625,8.6669921875,0.0,0.0,0.0,0.013040514662861824,-0.010701632127165794,-0.8325124382972717,0.5537495017051697
6.483880281448364,-1.771255775264776,0.5155408109227113,112.55256314380824,-0.03173828125,0.0263671875,1.03466796875,-2.74658203125,-0.732421875,10.07080078125,0.0,0.0,0.0,0.012322613038122654,-0.010357966646552086,-0.8316552042961121,0.5550590753555298
6.503824234008789,-1.6944780456914856,0.6334401746417393,112.38126199942432,-0.021484375,0.01171875,1.1044921875,3.84521484375,-0.54931640625,7.99560546875,0.0,0.0,0.0,0.01282008271664381,-0.009210381656885147,-0.8308354616165161,0.5562943816184998
6.52330207824707,-1.6807915205335437,0.5567658584013513,112.25334621664832,-0.017578125,0.0283203125,0.97412109375,3.35693359375,-3.41796875,6.28662109375,0.0,0.0,0.0,0.012208355590701103,-0.009469839744269848,-0.8302124738693237,0.5572329759597778
6.54407525062561,-1.7445734278287095,0.6133754800986219,112.13941183110335,-0.0322265625,0.0390625,0.876953125,-1.89208984375,-5.2490234375,6.2255859375,0.0,0.0,0.0,0.012938194908201694,-0.009643737226724625,-0.8296547532081604,0.5580436587333679
6.5637688636779785,-1.7107473428510445,0.5623624513742362,112.04077023911002,0.10986328125,0.02880859375,0.98046875,-2.99072265625,11.8408203125,3.47900390625,0.0,0.0,0.0,0.012412464246153831,-0.009636636823415756,-0.8291750550270081,0.5587682127952576
6.583321571350098,-1.6628947173608177,0.4874830875033865,111.98259068775985,0.0078125,0.01220703125,1.1318359375,2.8076171875,-0.48828125,2.13623046875,0.0,0.0,0.0,0.011642253026366234,-0.009649674408137798,-0.8288923501968384,0.5592036843299866
6.603652715682983,-1.6349817619353855,0.42273388134744405,111.95451178008193,0.01806640625,0.04150390625,0.978515625,-2.74658203125,2.01416015625,0.9765625,0.0,0.0,0.0,0.011040105484426022,-0.009761093184351921,-0.8287549614906311,0.5594175457954407
6.623932600021362,-1.63363578778207,0.38107850527066683,111.92195226830849,-0.01171875,0.02392578125,0.943359375,0.48828125,0.18310546875,1.64794921875,0.0,0.0,0.0,0.010735120624303818,-0.009951693005859852,-0.8285942673683167,0.5596581697463989
6.643364906311035,-1.5684609487830448,0.5136401507035966,111.86874509467408,-0.08642578125,0.03515625,0.97412109375,-2.9296875,-4.82177734375,3.60107421875,0.0,0.0,0.0,0.011379382573068142,-0.008827616460621357,-0.828345000743866,0.5600332617759705
6.6634392738342285,-1.5406901466697134,0.6762488121516173,111.78855867381813,-0.06640625,0.04833984375,1.05810546875,-5.55419921875,-0.8544921875,4.0283203125,0.0,0.0,0.0,0.012424479238688946,-0.007823323830962181,-0.8279595971107483,0.5605954527854919
6.683302164077759,-1.4621248285245838,0.7136951641936535,111.72382214086475,-0.08154296875,0.017578125,1.0234375,-2.74658203125,-8.36181640625,3.84521484375,0.0,0.0,0.0,0.012314653024077415,-0.007065467070788145,-0.8276486396789551,0.5610671639442444
6.703039884567261,-1.34143079685711,0.7096457691503352,111.65746685307808,0.01953125,0.00537109375,1.0068359375,-0.79345703125,3.35693359375,3.0517578125,0.0,0.0,0.0,0.011698052287101746,-0.006206800229847431,-0.8273305296897888,0.5615593194961548
6.723012924194336,-1.0368839742670541,0.7212783283588073,111.55055390199986,-0.10986328125,-0.10693359375,0.94140625,-8.30078125,-11.5966796875,6.77490234375,0.0,0.0,0.0,0.010293233208358288,-0.003941386938095093,-0.8268197774887085,0.5623589754104614
6.743983745574951,-0.8033990267711929,0.6618729181351801,111.40817177856178,0.0263671875,-0.18994140625,1.126953125,-0.54931640625,-1.5869140625,5.92041015625,0.0,0.0,0.0,0.008721932768821716,-0.0025374460965394974,-0.8261272311210632,0.5634104609489441
6.76318883895874,-0.6475980895741179,0.5938634439088938,111.35355758595836,0.10009765625,-0.19921875,1.015625,-2.5634765625,3.662109375,3.0517578125,0.0,0.0,0.0,0.007466450333595276,-0.0017450868617743254,-0.8258621096611023,0.5638200640678406
6.781554222106934,-0.3857814640401908,0.6788947634030568,111.31140165840104,0.0546875,-0.20849609375,0.9541015625,-3.35693359375,8.36181640625,1.15966796875,0.0,0.0,0.0,0.0067908260971307755,0.0005627372884191573,-0.8256544470787048,0.5641350746154785
6.798286199569702,-0.15187099042295246,0.8437581876899751,111.24500538947935,-0.080078125,-0.20263671875,1.00439453125,-4.150390625,4.7607421875,5.4931640625,0.0,0.0,0.0,0.0068253460340201855,0.003063718555495143,-0.8253177404403687,0.5646190643310547
6.81964111328125,0.14358304945303124,0.8650164577905523,111.15173232617366,-0.06201171875,-0.25927734375,0.9833984375,-6.53076171875,-2.62451171875,4.5166015625,0.0,0.0,0.0,0.005518349353224039,0.00530087947845459,-0.8248459696769714,0.565305769443512
6.843342542648315,0.4483941283268151,0.8031954551174147,111.06757073522076,-0.0009765625,-0.2861328125,0.9619140625,-4.57763671875,-1.28173828125,3.662109375,0.0,0.0,0.0,0.0035643428564071655,0.007192591670900583,-0.8244180083274841,0.5659245848655701
6.864077091217041,0.7538302628911476,1.0179770501491068,110.99372956010374,0.06591796875,-0.2900390625,0.96142578125,-3.84521484375,11.53564453125,2.9296875,0.0,0.0,0.0,0.003594441106542945,0.010452892631292343,-0.8240117430686951,0.5664648413658142
6.884894847869873,1.10538298095776,1.1629233760120035,110.93007219703924,-0.07177734375,-0.275390625,0.90869140625,-11.474609375,2.44140625,4.21142578125,0.0,0.0,0.0,0.002891338197514415,0.013698754832148552,-0.8236441612243652,0.5669340491294861
6.9037885665893555,1.4272989746071583,0.980882079323356,110.86062283355854,-0.1025390625,-0.33837890625,1.04052734375,-3.5400390625,-10.1318359375,4.638671875,0.0,0.0,0.0,-1.910131140903104e-05,0.01511217188090086,-0.8232821226119995,0.5674312114715576
6.923710823059082,1.6375328375903853,0.9018357664502695,110.73224942810815,0.00634765625,-0.34521484375,1.072265625,-0.54931640625,-0.48828125,9.033203125,0.0,0.0,0.0,-0.0016462967032566667,0.016229450702667236,-0.8226271271705627,0.5683473348617554
6.943796396255493,1.8500873640658302,0.5837635684780018,110.41888034898797,-0.05419921875,-0.31201171875,0.9912109375,-3.11279296875,-19.47021484375,21.66748046875,0.0,0.0,0.0,-0.0050284042954444885,0.01616457663476467,-0.8210786581039429,0.5705640316009521
6.963489294052124,2.0674265447765747,0.392194424701451,109.78157588810159,0.10009765625,-0.306640625,1.048828125,-5.18798828125,5.7373046875,38.87939453125,0.0,0.0,0.0,-0.007576446980237961,0.016726359724998474,-0.8178838491439819,0.5750904083251953
6.983400106430054,2.1813254987152377,0.3764970758436014,108.81379272422414,0.02099609375,-0.34130859375,1.0615234375,9.1552734375,-16.11328125,54.0771484375,0.0,0.0,0.0,-0.008407270535826683,0.017390144988894463,-0.8129827380180359,0.5819674730300903
7.003469228744507,2.186432345780292,-0.07061703234407093,107.49077142161433,0.017578125,-0.251953125,0.92529296875,3.41796875,-13.5498046875,76.2939453125,0.0,0.0,0.0,-0.011779721826314926,0.015020928345620632,-0.8062570095062256,0.5912573337554932
7.018428564071655,2.4017141454469813,0.06085544471018639,105.74798035299388,0.21044921875,-0.18994140625,0.87939453125,-7.26318359375,6.8359375,91.97998046875,0.0,0.0,0.0,-0.012225911021232605,0.017029987648129463,-0.7971280813217163,0.6034461855888367
7.043447256088257,2.6249763808285964,-0.3596633809430174,103.76083926681622,-0.021484375,-0.28955078125,0.95703125,2.74658203125,-33.14208984375,101.318359375,0.0,0.0,0.0,-0.016608046367764473,0.016083020716905594,-0.786558210849762,0.6170831322669983
7.064031600952148,2.806552264158331,-0.7893859865544126,101.51171944483355,0.20947265625,-0.28125,0.984375,2.38037109375,-14.22119140625,116.8212890625,0.0,0.0,0.0,-0.02082558535039425,0.014608875848352909,-0.7743134498596191,0.6322907209396362
7.0785746574401855,2.939983424689115,-0.8375206775130196,99.02008009599123,0.25634765625,-0.302734375,1.056640625,0.6103515625,-2.5634765625,128.60107421875,0.0,0.0,0.0,-0.022213242948055267,0.014765309169888496,-0.7603709101676941,0.6489412188529968
7.103554010391235,2.9414457255017323,-1.0279865856560548,96.31129537305588,0.22802734375,-0.3388671875,1.1484375,8.30078125,-7.62939453125,140.0146484375,0.0,0.0,0.0,-0.023802079260349274,0.013136966153979301,-0.7448380589485168,0.6666913032531738
7.118915319442749,3.096023792033111,-0.9825612386421213,93.36100882144721,0.25341796875,-0.2373046875,0.8896484375,-1.28173828125,4.57763671875,151.4892578125,0.0,0.0,0.0,-0.02476903423666954,0.013773046433925629,-0.7274060249328613,0.6856217980384827
7.14000129699707,3.1588549156514696,-1.1625797321193871,90.24465988054803,0.1552734375,-0.31396484375,0.99609375,8.056640625,-31.73828125,157.1044921875,0.0,0.0,0.0,-0.026633471250534058,0.012374626472592354,-0.7085065245628357,0.7050929069519043
7.163397550582886,3.3477612995079205,-1.8007682756164605,86.9362186994314,0.23974609375,-0.26025390625,0.84716796875,0.18310546875,-24.90234375,165.52734375,0.0,0.0,0.0,-0.03200303018093109,0.008693251758813858,-0.6879053711891174,0.7250424027442932
7.183256149291992,3.565191620555402,-1.681469630252079,83.42334995645629,0.412109375,-0.3232421875,1.04833984375,4.5166015625,0.67138671875,178.64990234375,0.0,0.0,0.0,-0.03297754004597664,0.00974773894995451,-0.6653295755386353,0.7457574605941772
7.198699712753296,3.6017679238910554,-1.843009793981816,79.79526275237224,0.2744140625,-0.33154296875,0.96142578125,7.4462890625,-15.44189453125,182.373046875,0.0,0.0,0.0,-0.03441736102104187,0.007822367362678051,-0.6414059400558472,0.7663893699645996
7.223407745361328,3.6472206983833746,-1.9533167087472871,76.04391795452614,0.396484375,-0.34033203125,1.03759765625,6.89697265625,-5.55419921875,188.720703125,0.0,0.0,0.0,-0.03555924817919731,0.006177846342325211,-0.6159893274307251,0.786927342414856
7.239613056182861,3.794906036825152,-2.3303047311179097,72.14006186270282,0.25390625,-0.23583984375,0.77734375,1.03759765625,-28.74755859375,196.83837890625,0.0,0.0,0.0,-0.038723576813936234,0.0030635062139481306,-0.5888733267784119,0.8072913885116577
7.258450746536255,4.160537589040159,-2.614763327028723,68.11048247882707,0.40673828125,-0.35546875,0.98681640625,2.99072265625,-13.3056640625,202.45361328125,0.0,0.0,0.0,-0.04283471778035164,0.0014315046137198806,-0.5601633787155151,0.8272727727890015
7.283709526062012,4.400582026099318,-2.2692291795596558,63.96770636983671,0.40673828125,-0.39697265625,1.0703125,3.5400390625,-0.732421875,208.6181640625,0.0,0.0,0.0,-0.04303906857967377,0.00354879186488688,-0.5298307538032532,0.8470032811164856
7.304229021072388,4.416298291379518,-2.6225241294731503,59.77047316259383,0.44140625,-0.40576171875,1.07421875,11.29150390625,-10.80322265625,212.46337890625,0.0,0.0,0.0,-0.04479140788316727,-0.0006330703035928309,-0.49852845072746277,0.8657152056694031
7.323093414306641,4.569476809461278,-2.560349984675582,55.47683525031081,0.3896484375,-0.2783203125,0.8134765625,4.33349609375,-24.35302734375,216.73583984375,0.0,0.0,0.0,-0.045665763318538666,-0.0012079976731911302,-0.46573781967163086,0.8837429285049438
7.343120336532593,4.751951716440516,-2.838373902058009,51.053925762701546,0.34521484375,-0.32421875,0.89599609375,11.1083984375,1.77001953125,226.74560546875,0.0,0.0,0.0,-0.04806213453412056,-0.004470350220799446,-0.43135979771614075,0.9008877873420715
7.36368465423584,4.757768476292427,-2.6232818535841984,46.627683142777315,0.61376953125,-0.35498046875,1.13427734375,23.193359375,-5.7373046875,221.61865234375,0.0,0.0,0.0,-0.047159887850284576,-0.004580364562571049,-0.3961952328681946,0.9169428944587708
7.383058309555054,4.674813694388507,-2.8873282157170173,42.16966306773959,0.552734375,-0.271484375,0.986328125,12.02392578125,-16.17431640625,221.923828125,0.0,0.0,0.0,-0.04709750786423683,-0.008820271119475365,-0.3602951169013977,0.9316069483757019
7.40481972694397,4.7803012703642995,-2.9341478818169855,37.69741229356615,0.57470703125,-0.20458984375,0.89013671875,6.28662109375,-27.4658203125,221.8017578125,0.0,0.0,0.0,-0.04771879315376282,-0.010739585384726524,-0.3236938714981079,0.9448967576026917
7.423403978347778,5.064799139862841,-2.704679992687591,33.210001914529876,0.5302734375,-0.2109375,0.75,-5.31005859375,7.99560546875,224.9755859375,0.0,0.0,0.0,-0.04906773567199707,-0.00997118093073368,-0.28641268610954285,0.956797182559967
7.443154573440552,5.2459331953306405,-2.687298228466966,28.817070127187794,0.60595703125,-0.38818359375,1.0791015625,5.43212890625,-11.77978515625,214.66064453125,0.0,0.0,0.0,-0.05014057829976082,-0.011303224600851536,-0.24954447150230408,0.966998279094696
7.463059186935425,5.276018471077254,-2.616337899075823,24.55514478322114,0.76318359375,-0.3720703125,1.15771484375,11.29150390625,-8.72802734375,208.67919921875,0.0,0.0,0.0,-0.049810875207185745,-0.012499374337494373,-0.2133939117193222,0.9756156206130981
7.478195667266846,5.303993645257157,-2.5932832358626796,20.41714468400791,0.6376953125,-0.28515625,0.9423828125,8.056640625,-6.591796875,203.18603515625,0.0,0.0,0.0,-0.049531638622283936,-0.014048303477466106,-0.17802727222442627,0.9826778173446655
7.498391389846802,5.302324944665558,-2.6442379411748553,16.35537632612119,0.5439453125,-0.2822265625,0.89794921875,10.55908203125,-18.49365234375,204.1015625,0.0,0.0,0.0,-0.049050986766815186,-0.016236498951911926,-0.14310981333255768,0.9883572459220886
7.523540258407593,5.637119046551604,-2.4097468747977397,12.242668417404513,0.53564453125,-0.20263671875,0.68603515625,-8.85009765625,6.2255859375,205.74951171875,0.0,0.0,0.0,-0.051121655851602554,-0.01563987135887146,-0.10750985145568848,0.9927657246589661
7.543766260147095,5.865057827080562,-2.382992383488565,8.218593312226155,0.63623046875,-0.359375,1.07421875,2.62451171875,-19.8974609375,195.86181640625,0.0,0.0,0.0,-0.05250551924109459,-0.017048122361302376,-0.07261105626821518,0.9958314299583435
7.559805154800415,5.960126376364323,-2.4771491025181294,4.386131480249687,0.88037109375,-0.34619140625,1.22265625,5.4931640625,-11.71875,186.46240234375,0.0,0.0,0.0,-0.05276428535580635,-0.01958150789141655,-0.039329130202531815,0.9976401329040527
7.5830559730529785,5.903245414730103,-2.2394365347302947,0.7971029797386163,0.72705078125,-0.2607421875,1.0234375,17.08984375,-2.86865234375,177.79541015625,0.0,0.0,0.0,-0.051617421209812164,-0.019157014787197113,-0.00795164704322815,0.9984515905380249
7.60498046875,5.831142949643686,-2.0442574758948333,-2.7219351849651585,0.59130859375,-0.22900390625,0.9072265625,7.01904296875,-5.67626953125,175.1708984375,0.0,0.0,0.0,-0.05041878670454025,-0.019018344581127167,0.022809522226452827,0.9982864856719971
7.623290777206421,5.9612571995587835,-1.991002064049421,-6.249979114172154,0.5458984375,-0.16748046875,0.79736328125,-6.28662109375,-7.38525390625,176.69677734375,0.0,0.0,0.0,-0.050967320799827576,-0.020158817991614342,0.05353028327226639,0.9970608949661255
7.645235538482666,6.218188425567153,-1.7738836905479383,-9.727366731956339,0.5517578125,-0.20361328125,0.82470703125,-4.638671875,-3.84521484375,170.0439453125,0.0,0.0,0.0,-0.05272503197193146,-0.019998975098133087,0.08381389081478119,0.9948846697807312
7.659229278564453,6.086146781645644,-1.908607571100853,-12.962725742727475,0.73193359375,-0.2900390625,1.1396484375,14.70947265625,-9.82666015625,157.04345703125,0.0,0.0,0.0,-0.050862714648246765,-0.02251678705215454,0.11182671040296555,0.9921696782112122
7.678428649902344,5.847702316399559,-1.926017082964981,-15.998025951387998,0.7783203125,-0.197265625,1.11328125,17.4560546875,-11.16943359375,149.2919921875,0.0,0.0,0.0,-0.04816952347755432,-0.023718852549791336,0.1381063014268875,0.9889609813690186
7.703120470046997,5.678753745297886,-1.8975949582812655,-18.922943472871946,0.724609375,-0.16162109375,1.03271484375,11.90185546875,-2.197265625,145.5078125,0.0,0.0,0.0,-0.04613694176077843,-0.024455426260828972,0.163350909948349,0.9851852059364319
7.723278999328613,5.61648162997441,-1.7685732184682534,-21.801484009891507,0.55126953125,-0.12939453125,0.837890625,5.79833984375,-8.4228515625,143.1884765625,0.0,0.0,0.0,-0.045188650488853455,-0.024400383234024048,0.18811608850955963,0.9808032512664795
7.743420362472534,5.457990932265672,-1.6893176243301296,-24.575121378996137,0.671875,-0.18896484375,1.0,15.7470703125,2.3193359375,136.16943359375,0.0,0.0,0.0,-0.04338247701525688,-0.024519097059965134,0.21186800301074982,0.9760270118713379
7.763187646865845,5.296394206031871,-1.6655714044635224,-27.259973119079767,0.56494140625,-0.12451171875,0.86328125,9.8876953125,-11.53564453125,132.26318359375,0.0,0.0,0.0,-0.04147600755095482,-0.02499663084745407,0.2347216159105301,0.9708556532859802
7.785832166671753,5.251536084884166,-1.6440243987879535,-29.800234877076107,0.6181640625,-0.09765625,0.80322265625,5.4931640625,9.70458984375,124.0234375,0.0,0.0,0.0,-0.040582217276096344,-0.025628089904785156,0.25620320439338684,0.9654306769371033
7.798182487487793,5.229242774320068,-1.6150101820805625,-32.11240759038175,0.5625,-0.095703125,0.90576171875,7.50732421875,-18.00537109375,109.7412109375,0.0,0.0,0.0,-0.03994021564722061,-0.026145048439502716,0.27564695477485657,0.9600729942321777
7.824156045913696,5.202709196941861,-1.9755118353420666,-34.031024803711254,0.7880859375,-0.0771484375,1.16357421875,6.4697265625,-12.3291015625,86.0595703125,0.0,0.0,0.0,-0.038353998214006424,-0.02974667027592659,0.29153743386268616,0.9553272128105164
7.8434460163116455,5.0380269327505065,-2.021084351588273,-35.35212682316429,0.83984375,-0.0068359375,1.1787109375,12.14599609375,5.859375,55.23681640625,0.0,0.0,0.0,-0.03651956096291542,-0.030130455270409584,0.3025559186935425,0.9519550800323486
7.86311936378479,4.7761015577983885,-2.0505924763500203,-36.14511520089736,0.6005859375,0.02099609375,0.935546875,10.6201171875,-0.3662109375,31.6162109375,0.0,0.0,0.0,-0.03405904024839401,-0.029920266941189766,0.30919328331947327,0.9499180316925049
7.883628606796265,4.6386875432078405,-2.2036879649446828,-36.524013114914645,0.56005859375,0.07275390625,0.845703125,3.173828125,-3.7841796875,11.1083984375,0.0,0.0,0.0,-0.032402824610471725,-0.03092530369758606,0.3123091757297516,0.9489240050315857
7.903547763824463,4.600914889550378,-2.393207358279142,-36.48479416870043,0.60986328125,0.07568359375,0.94775390625,0.6103515625,-1.3427734375,-10.7421875,0.0,0.0,0.0,-0.03158210963010788,-0.0323801226913929,0.3119211494922638,0.9490306973457336
7.9272685050964355,4.516640600476175,-2.426419793448564,-35.852318651557255,0.58544921875,0.07177734375,0.9326171875,1.52587890625,10.986328125,-33.69140625,0.0,0.0,0.0,-0.030971786007285118,-0.032255176454782486,0.30668923258781433,0.9507587552070618
7.94333291053772,4.475527557427752,-2.5142859082525466,-35.19377571744672,0.51220703125,0.09521484375,0.912109375,-2.5634765625,-0.79345703125,-49.01123046875,0.0,0.0,0.0,-0.030582701787352562,-0.032698556780815125,0.301198273897171,0.952509880065918
7.963872909545898,4.3579287753930585,-2.7451591088036715,-33.945930891936655,0.552734375,0.09912109375,1.13671875,3.47900390625,8.11767578125,-69.82421875,0.0,0.0,0.0,-0.029366876929998398,-0.033989712595939636,0.2907545864582062,0.9557427167892456
7.983571290969849,4.051112409007854,-2.5215596328317873,-32.38217274184057,0.318359375,0.224609375,1.1279296875,8.48388671875,28.13720703125,-77.69775390625,0.0,0.0,0.0,-0.027803629636764526,-0.030970420688390732,0.2778531312942505,0.9597216248512268
8.003605127334595,3.7053263983131424,-2.088273989670746,-30.765023003002504,-0.02294921875,0.26171875,0.9638671875,8.4228515625,23.49853515625,-79.2236328125,0.0,0.0,0.0,-0.026334866881370544,-0.026134975254535675,0.2645110785961151,0.9636687636375427
8.02318811416626,3.376309782691281,-1.7255539123111627,-29.22472655270542,-0.14892578125,0.29541015625,0.87353515625,6.40869140625,16.17431640625,-75.3173828125,0.0,0.0,0.0,-0.02470639906823635,-0.021995529532432556,0.25171083211898804,0.9672370553016663
8.043639898300171,3.0827164490958103,-1.3377350241858983,-27.697760924120907,-0.0693359375,0.30419921875,0.89404296875,1.64794921875,22.76611328125,-74.462890625,0.0,0.0,0.0,-0.023321598768234253,-0.017768267542123795,0.2389540672302246,0.970588207244873
8.063478231430054,2.8446811548696926,-1.0654215718364253,-26.209597600211236,-0.13525390625,0.3408203125,0.96875,-1.3427734375,9.1552734375,-73.974609375,0.0,0.0,0.0,-0.022067110985517502,-0.01468021422624588,0.22642843425273895,0.9736671447753906
8.084925174713135,2.7042420068070636,-0.935889702269778,-24.735487390518866,-0.15966796875,0.37255859375,1.05859375,-5.126953125,9.033203125,-71.83837890625,0.0,0.0,0.0,-0.021299609914422035,-0.013029249384999275,0.2139304131269455,0.9765297770500183
8.104236602783203,2.53052446956084,-0.8596295196086748,-23.32846329885436,-0.13818359375,0.31787109375,1.1396484375,3.41796875,2.13623046875,-69.15283203125,0.0,0.0,0.0,-0.020108317956328392,-0.011809068731963634,0.2019587606191635,0.9791163802146912
8.123658657073975,2.3594918369886666,-0.7672083089585283,-22.051281103311798,-0.1396484375,0.2978515625,0.99169921875,1.0986328125,0.6103515625,-61.21826171875,0.0,0.0,0.0,-0.018928347155451775,-0.01050765160471201,0.1910681128501892,0.9813380837440491
8.14320158958435,2.2051255063215587,-0.748011261883414,-20.891100048251555,-0.14892578125,0.328125,0.966796875,-1.220703125,0.6103515625,-55.7861328125,0.0,0.0,0.0,-0.017739631235599518,-0.009906766936182976,0.18114006519317627,0.9832473993301392
8.164090156555176,2.0400003470512114,-0.7781482442964789,-19.824458433874636,-0.1298828125,0.3232421875,1.001953125,-0.91552734375,-2.197265625,-51.513671875,0.0,0.0,0.0,-0.01636654883623123,-0.00975240208208561,0.17198903858661652,0.9849146008491516
8.18317174911499,1.871292540117781,-0.7760360616565053,-18.847065193834982,-0.10791015625,0.31201171875,1.00732421875,0.732421875,-2.8076171875,-46.9970703125,0.0,0.0,0.0,-0.014999986626207829,-0.009353427216410637,0.1635964810848236,0.9863689541816711
8.203263998031616,1.6497053019084058,-0.7434107025905874,-17.77278230532411,-0.078125,0.302734375,1.01806640625,1.28173828125,-0.732421875,-39.4287109375,0.0,0.0,0.0,-0.013220750726759434,-0.008632670156657696,0.1543641835451126,0.9878879189491272
8.223526000976562,1.500202599538876,-0.7267958405477082,-17.201961198271345,-0.0556640625,0.30419921875,1.03076171875,1.46484375,1.220703125,-36.92626953125,0.0,0.0,0.0,-0.011995428241789341,-0.008228384889662266,0.14945432543754578,0.9886617064476013
8.24356746673584,1.3403794813334569,-0.7330082177629522,-16.515487913097335,-0.060546875,0.326171875,1.00634765625,-2.3193359375,-1.708984375,-32.89794921875,0.0,0.0,0.0,-0.010656575672328472,-0.0080098332837224,0.14353956282138824,0.9895548224449158
8.263088464736938,1.2077439311192735,-0.7430444870571983,-15.889625726618018,-0.041015625,0.31298828125,1.01806640625,-1.77001953125,-2.685546875,-29.78515625,0.0,0.0,0.0,-0.009541780687868595,-0.007878356613218784,0.13814093172550201,0.9903354048728943
8.278356552124023,1.0504608962331585,-0.7765791684172271,-15.328701563672599,-0.02392578125,0.28759765625,0.99462890625,-0.79345703125,-1.03759765625,-26.55029296875,0.0,0.0,0.0,-0.008180978707969189,-0.007938608527183533,0.133299320936203,0.991010308265686
8.303516626358032,0.8747065752320963,-0.7883103918426942,-14.845901104453786,-0.0263671875,0.27001953125,1.01171875,0.1220703125,-0.48828125,-22.5830078125,0.0,0.0,0.0,-0.006680307909846306,-0.0078075299970805645,0.1291339099407196,0.9915739297866821
8.324222087860107,0.6905700646546944,-0.7493417080285385,-14.448515575900565,-0.0458984375,0.265625,1.033203125,0.79345703125,-1.3427734375,-18.06640625,0.0,0.0,0.0,-0.005156046710908413,-0.007244978100061417,0.1257091909646988,0.9920272827148438
8.343374490737915,0.5207686804021213,-0.7337150889811956,-14.115297113278677,-0.0166015625,0.26220703125,1.00537109375,-1.15966796875,1.46484375,-15.07568359375,0.0,0.0,0.0,-0.0037233280017971992,-0.006912616081535816,0.12283526360988617,0.9923959970474243
8.363941669464111,0.34633133193082855,-0.7339189808000911,-13.817535016411972,0.01171875,0.2373046875,1.01318359375,0.30517578125,-0.30517578125,-14.6484375,0.0,0.0,0.0,-0.0022299010306596756,-0.006721615791320801,0.12026651948690414,0.9927164316177368
8.384511232376099,0.16541614934137366,-0.72037460895425,-13.557922941154372,0.0009765625,0.2138671875,0.990234375,-1.0986328125,0.54931640625,-11.962890625,0.0,0.0,0.0,-0.000691364286467433,-0.006412846501916647,0.11802787333726883,0.9929894208908081
8.403336524963379,0.0023345371055283706,-0.6817113093011878,-13.359054299506635,-0.029296875,0.19140625,0.99853515625,-0.48828125,0.3662109375,-8.9111328125,0.0,0.0,0.0,0.0006717310170643032,-0.005911007523536682,0.11631366610527039,0.9931947588920593
8.424020528793335,-0.18811851086351924,-0.6321431857513773,-13.204343684616676,-0.03076171875,0.1806640625,1.0283203125,0.8544921875,0.1220703125,-7.01904296875,0.0,0.0,0.0,0.0022649846505373716,-0.005291127134114504,0.11498189717531204,0.9933509230613708
8.440229654312134,-0.31755662541163754,-0.6110519351203482,-13.053480173776727,0.0244140625,0.10009765625,0.9560546875,-5.79833984375,4.2724609375,-7.38525390625,0.0,0.0,0.0,0.0033593173138797283,-0.004982839338481426,0.11367953568696976,0.9934992790222168
8.463087320327759,-0.13741836350005837,-0.43981004796356354,-12.925720631577992,-0.0517578125,-0.09765625,0.95556640625,-14.34326171875,12.8173828125,-3.60107421875,0.0,0.0,0.0,0.0016235793009400368,-0.003678683191537857,0.11256279051303864,0.9936366081237793
8.483312129974365,0.25672688062222465,-0.21562129475299371,-12.806306726771366,-0.08544921875,-0.18310546875,1.06396484375,-4.82177734375,1.52587890625,-8.30078125,0.0,0.0,0.0,-0.0020165350288152695,-0.0021197597961872816,0.11151894927024841,0.9937580227851868
8.503255605697632,0.6057609931128213,0.07007469931571605,-12.66600439593555,-0.08984375,-0.2099609375,1.009765625,-7.87353515625,12.02392578125,-8.48388671875,0.0,0.0,0.0,-0.00532143097370863,2.4668954210937954e-05,0.1103084608912468,0.9938831329345703
8.52324104309082,0.8328853803049611,0.2191352536581934,-12.471324367796322,-0.1103515625,-0.1494140625,1.0244140625,3.84521484375,2.0751953125,-9.3994140625,0.0,0.0,0.0,-0.007432923186570406,0.0011114900698885322,0.10862886160612106,0.9940540194511414
8.543150186538696,0.630608100735417,0.14179300628195898,-12.162387227673829,0.02783203125,0.09423828125,0.99755859375,0.42724609375,-1.40380859375,-14.83154296875,0.0,0.0,0.0,-0.005603177472949028,0.0006474138353951275,0.10594276338815689,0.9943562746047974
8.56008505821228,1.0235651053855293,0.2531420985250257,-11.82782065646451,0.01123046875,-0.267578125,0.9326171875,-17.2119140625,3.41796875,-17.39501953125,0.0,0.0,0.0,-0.009112211875617504,0.0012769195018336177,0.10304928570985794,0.9946337938308716
8.583147287368774,1.4569829767400335,0.3749823746734453,-11.402530390057203,-0.05517578125,-0.35693359375,1.1044921875,-9.94873046875,4.150390625,-23.98681640625,0.0,0.0,0.0,-0.012976324185729027,0.0019928356632590294,0.09937455505132675,0.994963526725769
8.604521036148071,1.7072202971966735,0.5197736072174151,-10.88081065917401,-0.06591796875,-0.330078125,1.07373046875,-0.06103515625,5.92041015625,-27.52685546875,0.0,0.0,0.0,-0.015260493382811546,0.003102483693510294,0.09486613422632217,0.9953683018684387
8.624449729919434,1.882959356993809,0.5981373814211763,-10.244600736102125,-0.0849609375,-0.29052734375,0.97119140625,-2.86865234375,2.685546875,-32.3486328125,0.0,0.0,0.0,-0.016831299290060997,0.0037311739288270473,0.08935412019491196,0.9958507418632507
8.645033121109009,2.052738649853285,0.5686380078393029,-9.496687338022912,-0.083984375,-0.275390625,0.94970703125,2.685546875,-11.29150390625,-42.17529296875,0.0,0.0,0.0,-0.01826157607138157,0.0034616843331605196,0.08285368233919144,0.9963884353637695
8.663211822509766,2.309855571629715,0.6142044943091322,-8.682486954048727,-0.0556640625,-0.29931640625,0.9638671875,-3.7841796875,2.3193359375,-42.66357421875,0.0,0.0,0.0,-0.02050345577299595,0.003817744320258498,0.07578776776790619,0.9969058632850647
8.685813188552856,2.4871531952180828,0.8768187045112169,-7.793883611898299,-0.04248046875,-0.3212890625,1.001953125,-2.197265625,18.61572265625,-43.76220703125,0.0,0.0,0.0,-0.022171886637806892,0.006157199386507273,0.06810972094535828,0.9974124431610107
8.703076839447021,2.780243015805677,0.9895647438623232,-6.808214317018704,-0.11962890625,-0.205078125,0.82470703125,-10.1318359375,2.685546875,-50.59814453125,0.0,0.0,0.0,-0.024728713557124138,0.007177256513386965,0.05956736207008362,0.9978922009468079
8.723385572433472,3.225897704666788,1.0358169706526512,-5.688917920556511,-0.1005859375,-0.291015625,0.98583984375,-9.94873046875,-5.37109375,-59.63134765625,0.0,0.0,0.0,-0.028560105711221695,0.007627611979842186,0.049857206642627716,0.9983188509941101
8.743959903717041,3.460070526917263,0.9166469249437365,-4.424965801436264,-0.11669921875,-0.39892578125,1.154296875,1.15966796875,-3.2958984375,-64.88037109375,0.0,0.0,0.0,-0.030475422739982605,0.006824089214205742,0.03882799670100212,0.9987578392028809
8.764824151992798,3.4433626035469427,0.9318373723795506,-3.111343692898038,-0.13232421875,-0.3251953125,1.0673828125,11.04736328125,5.43212890625,-65.36865234375,0.0,0.0,0.0,-0.030253078788518906,0.007309429347515106,0.02737933024764061,0.9991405010223389
8.784788608551025,3.4414988156771753,1.2299498366063368,-1.8428928269922795,-0.24609375,-0.2041015625,1.0009765625,4.7607421875,10.80322265625,-61.46240234375,0.0,0.0,0.0,-0.030195143073797226,0.010244029574096203,0.016395658254623413,0.9993570446968079
8.80025839805603,3.4286779102748266,1.3586652851237562,-0.6460353102755072,-0.359375,-0.11279296875,0.99267578125,3.90625,-1.953125,-59.38720703125,0.0,0.0,0.0,-0.029980627819895744,0.011682169511914253,0.005989464465528727,0.9994643330574036
8.823659181594849,3.4507718646925256,1.5485260811950103,0.5789202173045224,-0.1787109375,-0.11474609375,1.00732421875,3.2958984375,8.48388671875,-61.82861328125,0.0,0.0,0.0,-0.03003774583339691,0.013658827170729637,-0.004642399027943611,0.9994446039199829
8.843561172485352,3.436717469814755,1.8056388408249142,1.8367938949502811,-0.14599609375,-0.07861328125,0.95166015625,5.18798828125,7.14111328125,-63.1103515625,0.0,0.0,0.0,-0.029726510867476463,0.01622798666357994,-0.01554674468934536,0.9993053674697876
8.863427877426147,3.2927530903667535,1.9075535875345555,3.1386806712773674,-0.16259765625,-0.01953125,0.97998046875,8.056640625,-4.45556640625,-66.10107421875,0.0,0.0,0.0,-0.02826029621064663,0.017419395968317986,-0.02689356729388237,0.9990869164466858
8.88468599319458,3.089197017957683,1.9153564383310604,4.488617188085259,-0.1240234375,0.03564453125,1.0361328125,7.14111328125,-3.5400390625,-69.27490234375,0.0,0.0,0.0,-0.02627633698284626,0.017750397324562073,-0.038690678775310516,0.9987480640411377
8.903639316558838,2.8672670963510436,1.898189398182468,5.870980454864609,-0.13037109375,0.076171875,0.98681640625,6.89697265625,-3.173828125,-69.64111328125,0.0,0.0,0.0,-0.024134749546647072,0.017818240448832512,-0.050774626433849335,0.9982595443725586
8.918086767196655,2.625226109620125,2.0323488276335047,7.288830396363584,-0.06005859375,0.10595703125,1.01171875,4.638671875,11.3525390625,-71.533203125,0.0,0.0,0.0,-0.02173050306737423,0.019150013104081154,-0.06313205510377884,0.9975847601890564
8.941567659378052,2.3903672802448863,2.2339632053275875,9.07279726039546,-0.15966796875,0.10888671875,1.00390625,3.23486328125,1.28173828125,-71.4111328125,0.0,0.0,0.0,-0.01924761012196541,0.021077901124954224,-0.07865483313798904,0.9964931607246399
8.961280584335327,2.2402941503579545,2.3244664134814297,10.133240478100591,-0.1474609375,0.1279296875,1.005859375,6.28662109375,5.43212890625,-70.49560546875,0.0,0.0,0.0,-0.01767764985561371,0.021926384419202805,-0.08788397163152695,0.9957325458526611
8.983336687088013,1.7923692773714606,2.4362574002874977,11.863784163765565,-0.1494140625,0.27392578125,1.017578125,11.29150390625,1.220703125,-68.17626953125,0.0,0.0,0.0,-0.013356726616621017,0.022758381441235542,-0.10297947376966476,0.9943334460258484
9.003456592559814,1.5627775910633595,2.3531053966712934,12.896985171966103,-0.15185546875,0.3232421875,0.9716796875,6.77490234375,-5.4931640625,-67.81005859375,0.0,0.0,0.0,-0.011242369189858437,0.021932758390903473,-0.11199759691953659,0.9934028387069702
9.023073196411133,1.4114196385605247,2.291039681126799,14.21588189409087,-0.1142578125,0.33154296875,0.96337890625,1.220703125,-3.90625,-65.12451171875,0.0,0.0,0.0,-0.009745975956320763,0.021360358223319054,-0.1234605461359024,0.992071807384491
9.043818473815918,1.2708273448500997,2.2865078506124954,15.390796520964477,-0.1142578125,0.2666015625,1.02734375,1.52587890625,-2.0751953125,-55.48095703125,0.0,0.0,0.0,-0.008316201157867908,0.021256018429994583,-0.13365241885185242,0.9907654523849487
9.06365156173706,1.0317847044431108,2.216197456409561,16.307800643457465,-0.1181640625,0.24609375,1.02294921875,6.2255859375,-3.173828125,-40.10009765625,0.0,0.0,0.0,-0.0061684525571763515,0.020419292151927948,-0.14162787795066833,0.9896902441978455
9.08454155921936,0.8194491175470766,2.1206277419954502,16.95762484109248,-0.08251953125,0.291015625,1.00439453125,0.732421875,-4.21142578125,-27.9541015625,0.0,0.0,0.0,-0.0043432507663965225,0.01935637928545475,-0.14728377759456635,0.9888953566551208
9.103128671646118,0.677880907198133,2.020263448227402,17.345676916144875,-0.0732421875,0.2958984375,1.017578125,0.06103515625,-6.591796875,-16.41845703125,0.0,0.0,0.0,-0.0031887406948953867,0.018319210037589073,-0.15066303312778473,0.9884103536605835
9.123488187789917,0.5064317931691472,1.9142983993399432,17.540217779179763,-0.0634765625,0.27294921875,1.02294921875,1.64794921875,-8.11767578125,-6.40869140625,0.0,0.0,0.0,-0.0018202217761427164,0.01718289405107498,-0.1523745208978653,0.9881718754768372
9.143099784851074,0.2809215984573783,1.8362351000988095,17.620849869879056,-0.02685546875,0.2939453125,1.01904296875,2.9296875,-1.77001953125,-3.11279296875,0.0,0.0,0.0,3.197621845174581e-05,0.016209807246923447,-0.1531066745519638,0.9880768060684204
9.163574695587158,0.036575302819661266,1.792489659455582,17.663786146549047,-0.01416015625,0.30712890625,1.02001953125,2.44140625,1.5869140625,-2.74658203125,0.0,0.0,0.0,0.0020862186793237925,0.015505319461226463,-0.15351217985153198,0.9880229234695435
9.183463335037231,-0.14906048764141122,1.7956776502506855,17.694416129881972,-0.037109375,0.29833984375,0.9912109375,0.42724609375,-0.244140625,-1.77001953125,0.0,0.0,0.0,0.003695145947858691,0.015283113345503807,-0.15380114316940308,0.9879767298698425
9.203109502792358,-0.3414268559003627,1.7992758792828127,17.728223858726242,-0.03759765625,0.2939453125,1.013671875,0.67138671875,-0.8544921875,-1.52587890625,0.0,0.0,0.0,0.0053629386238753796,0.015054346062242985,-0.15411807596683502,0.9879232048988342
9.223695278167725,-0.5119570426817173,1.788309156796711,17.757673926880045,-0.0439453125,0.287109375,1.0146484375,-0.30517578125,-1.708984375,-2.3193359375,0.0,0.0,0.0,0.006822163239121437,0.014728676527738571,-0.1543940007686615,0.9878760576248169
9.243131637573242,-0.6820213892173359,1.7421280066624334,17.796535995710123,-0.03955078125,0.2607421875,1.0048828125,-0.732421875,-2.44140625,-1.89208984375,0.0,0.0,0.0,0.008230878971517086,0.014098607003688812,-0.1547493040561676,0.9878188967704773
9.263134241104126,-0.8399425665431709,1.7248982141508415,17.816756770747947,-0.0458984375,0.24658203125,1.00341796875,-0.8544921875,-1.220703125,-1.03759765625,0.0,0.0,0.0,0.00957139115780592,0.013735109940171242,-0.15494215488433838,0.9877817630767822
9.284384489059448,-1.0095519050861903,1.6959521926134449,17.82935163957745,-0.03564453125,0.2353515625,1.01806640625,-0.8544921875,-1.220703125,-0.732421875,0.0,0.0,0.0,0.010995795018970966,0.013255031779408455,-0.1550692468881607,0.9877535104751587
9.303520679473877,-1.1717378418576108,1.6727963572232207,17.849444348568333,-0.02392578125,0.22021484375,1.01904296875,-0.48828125,-1.40380859375,-1.5869140625,0.0,0.0,0.0,0.012364761903882027,0.012833770364522934,-0.15525947511196136,0.9877129793167114
9.323089122772217,-1.3471680490382147,1.6652002263708146,17.866895481897718,-0.03466796875,0.201171875,0.998046875,-0.30517578125,-0.48828125,-0.79345703125,0.0,0.0,0.0,0.013868491165339947,0.012528477236628532,-0.15542873740196228,0.9876703023910522
9.34397840499878,-1.5194081309895997,1.6739595170945327,17.867044038512166,-0.04248046875,0.18310546875,1.0009765625,-1.28173828125,0.9765625,0.244140625,0.0,0.0,0.0,0.015364889986813068,0.012370322830975056,-0.1554494947195053,0.9876468777656555
9.363123178482056,-1.6961729998227066,1.6827902046394188,17.86545089688826,-0.03369140625,0.171875,1.00390625,-2.0751953125,2.0751953125,0.3662109375,0.0,0.0,0.0,0.016900155693292618,0.012206864543259144,-0.1554556041955948,0.9876229763031006
9.38343596458435,-1.8963832400338227,1.66318862893854,17.87464774660568,-0.03369140625,0.18505859375,1.029296875,1.220703125,-0.18310546875,0.0,0.0,0.0,0.0,0.0186001006513834,0.011764800176024437,-0.15555354952812195,0.9875823259353638
9.403404951095581,-2.0410980865168793,1.67485437859751,17.875815708953755,-0.03466796875,0.13134765625,0.984375,-3.0517578125,-0.30517578125,-0.18310546875,0.0,0.0,0.0,0.019863184541463852,0.011668688617646694,-0.15557992458343506,0.9875546097755432
9.423124551773071,-2.2022011181397354,1.6893732263388417,17.872636255895113,-0.0380859375,0.0908203125,1.00927734375,-2.3193359375,1.46484375,0.48828125,0.0,0.0,0.0,0.021270880475640297,0.01157566998153925,-0.1555708795785904,0.9875278472900391
9.443453311920166,-1.9475592861637896,1.699328333775841,17.874227689971725,-0.0458984375,-0.10986328125,0.90380859375,-13.00048828125,0.1220703125,1.64794921875,0.0,0.0,0.0,0.019090009853243828,0.012006883509457111,-0.1555597484111786,0.9875690340995789
9.463774919509888,-1.5754315837178658,1.6829596787081997,17.91506368347194,-0.0185546875,-0.17822265625,1.068359375,0.06103515625,-3.173828125,-3.35693359375,0.0,0.0,0.0,0.015865106135606766,0.01236524898558855,-0.155870258808136,0.9875727891921997
9.483559846878052,-1.3459355200581449,1.689083476907645,17.923907070899816,-0.0537109375,-0.16064453125,1.04345703125,-2.50244140625,-4.94384765625,-2.25830078125,0.0,0.0,0.0,0.013896524906158447,0.012729099951684475,-0.15592190623283386,0.9875896573066711
9.503279209136963,-1.099717552484646,1.6210106099881245,17.965533658796456,-0.01025390625,-0.18359375,0.9755859375,-0.06103515625,-3.11279296875,-2.197265625,0.0,0.0,0.0,0.011686592362821102,0.01247312780469656,-0.15624865889549255,0.9875698685646057
9.523108005523682,-0.7388784451894608,1.672290816502934,17.973581329186025,-0.01220703125,-0.25634765625,1.02587890625,-8.11767578125,-1.953125,-3.41796875,0.0,0.0,0.0,0.008647528477013111,0.013406437821686268,-0.1562798023223877,0.9875840544700623
9.543171882629395,-0.41964252705692573,1.720982274600603,17.992895396611527,-0.0810546875,-0.2724609375,0.9306640625,-4.5166015625,9.21630859375,1.3427734375,0.0,0.0,0.0,0.005964977201074362,0.01426040567457676,-0.1564088612794876,0.9875714182853699
9.563164472579956,-0.39556064074520947,1.6144544821585585,18.05820737300248,-0.033203125,-0.009765625,1.1611328125,17.39501953125,-8.544921875,-3.0517578125,0.0,0.0,0.0,0.0056197503581643105,0.013371977023780346,-0.1569676548242569,0.9874972105026245
9.583445310592651,-0.3814654514954039,1.731232894440911,18.04566202304446,-0.01953125,-0.09423828125,0.8466796875,0.79345703125,2.99072265625,-0.06103515625,0.0,0.0,0.0,0.00565657252445817,0.014398254454135895,-0.1568589210510254,0.9874998927116394
9.598392724990845,-0.4627600972246146,1.575132656219972,18.106162131165142,-0.05908203125,0.14990234375,1.04296875,-0.1220703125,4.21142578125,2.0751953125,0.0,0.0,0.0,0.006150430534034967,0.012938488274812698,-0.1573880910873413,0.9874329566955566
9.623178482055664,-0.7137567426178895,1.5745724739863252,18.1463048604646,-0.00634765625,0.08349609375,1.025390625,6.7138671875,-2.38037109375,-2.86865234375,0.0,0.0,0.0,0.008316888473927975,0.012585981748998165,-0.15776194632053375,0.9873619079589844
9.643444299697876,-0.9505531579224433,1.5864091918179573,18.142852199839158,-0.064453125,0.1435546875,1.01025390625,3.2958984375,-3.662109375,-0.30517578125,0.0,0.0,0.0,0.010373094119131565,0.012362252920866013,-0.15775847434997559,0.9873458743095398
9.66336441040039,-1.1155263454837578,1.6445087018887898,18.134350321869785,-0.03125,0.1044921875,0.958984375,-2.8076171875,2.44140625,-0.06103515625,0.0,0.0,0.0,0.011873447336256504,0.012636612169444561,-0.1577066034078598,0.9873337745666504
9.67901611328125,-1.3307599069394342,1.6059432126790762,18.155593917735818,-0.03271484375,0.0634765625,1.03173828125,1.52587890625,-1.708984375,-1.15966796875,0.0,0.0,0.0,0.013677154667675495,0.012005544267594814,-0.15790997445583344,0.987285852432251
9.704181432723999,-1.5554596836979253,1.6831450543111421,18.19082915611662,-0.0400390625,0.0986328125,1.01123046875,0.9765625,4.39453125,-3.47900390625,0.0,0.0,0.0,0.01572301797568798,0.012356212362647057,-0.1582442820072174,0.9871974587440491
9.723247766494751,-1.84554507482436,1.777322584073334,18.295418135329733,-0.0771484375,0.1904296875,1.052734375,7.01904296875,0.48828125,-7.01904296875,0.0,0.0,0.0,0.018363360315561295,0.012750180438160896,-0.15918707847595215,0.9869953393936157
9.73824954032898,-2.0247523766159814,1.8594735380893086,18.447548646260717,-0.06591796875,0.11474609375,0.927734375,-2.197265625,-1.40380859375,-9.1552734375,0.0,0.0,0.0,0.020038142800331116,0.013182242400944233,-0.16052764654159546,0.9867398142814636
9.764153718948364,-2.1987693749686272,1.8865925907454326,18.650956802385576,-0.02099609375,0.0771484375,1.013671875,-1.15966796875,4.8828125,-10.92529296875,0.0,0.0,0.0,0.021597757935523987,0.013133671134710312,-0.16230253875255585,0.986417293548584
9.783380270004272,-2.402325660821109,1.8541415082250559,18.894775772734814,-0.0439453125,0.0751953125,1.03759765625,1.77001953125,-1.03759765625,-11.77978515625,0.0,0.0,0.0,0.023330869153141975,0.012516366317868233,-0.16441889107227325,0.9860352277755737
9.804592370986938,-2.597155739678665,1.9515419267801417,19.095108636185874,-0.0625,0.08935546875,1.00390625,2.38037109375,-1.03759765625,-8.97216796875,0.0,0.0,0.0,0.02516927197575569,0.013030990026891232,-0.1661800891160965,0.9856880307197571
9.818432331085205,-2.841497006055997,2.0030936333144593,19.22242336231491,-0.05615234375,0.14306640625,1.0107421875,4.7607421875,-3.35693359375,-5.859375,0.0,0.0,0.0,0.02735992707312107,0.013089700601994991,-0.1673121601343155,0.9854373931884766
9.843092441558838,-3.037560574388975,1.9472273816588093,19.290962603088698,-0.01220703125,0.12890625,0.93896484375,-3.96728515625,-2.13623046875,-3.23486328125,0.0,0.0,0.0,0.02897217497229576,0.012305608950555325,-0.1679123342037201,0.9852993488311768
9.863418102264404,-3.038837179433533,1.7512801399851332,19.363386513952925,0.0322265625,0.05517578125,1.03564453125,-1.03759765625,1.8310546875,-4.08935546875,0.0,0.0,0.0,0.028704211115837097,0.0106004998087883,-0.16849510371685028,0.9852274656295776
9.8864426612854,-3.099660013992496,1.6403908448712126,19.45560260548456,-0.041015625,0.06689453125,1.06103515625,3.47900390625,-0.79345703125,-4.21142578125,0.0,0.0,0.0,0.02907254546880722,0.009534151293337345,-0.1692701280117035,0.9850946664810181
9.898716449737549,-3.2077417811924245,1.79680633901103,19.503371240992337,-0.08203125,0.0830078125,0.97607421875,-0.91552734375,-0.8544921875,-1.8310546875,0.0,0.0,0.0,0.03023608587682247,0.010706664994359016,-0.16972383856773376,0.9849695563316345
9.922984838485718,-3.3213897256790896,1.9074067384674003,19.51604807209188,-0.04736328125,0.0849609375,0.984375,-0.732421875,-2.3193359375,-0.91552734375,0.0,0.0,0.0,0.031377144157886505,0.011485639028251171,-0.16986824572086334,0.9849002361297607
9.940176725387573,-3.48999102435015,1.7380809061357894,19.5374999887276,-0.01025390625,0.07763671875,1.01806640625,1.15966796875,-1.52587890625,-1.0986328125,0.0,0.0,0.0,0.03257846087217331,0.00977406743913889,-0.17002898454666138,0.9848518967628479
