time,orientation.x,orientation.y,orientation.z,orientation.w,orientation_covariance,angular_velocity.x,angular_velocity.y,angular_velocity.z,angular_velocity_covariance,linear_acceleration.x,linear_acceleration.y,linear_acceleration.z,linear_acceleration_covariance
0.34562158584594727,0.022483492270112038,0.004518582485616207,-0.4760866165161133,0.8790993690490723,[0. 0. 0. 0. 0. 0. 0. 0. 0.],0.18310546875,-0.48828125,-0.1220703125,[0. 0. 0. 0. 0. 0. 0. 0. 0.],-0.029296875,0.0361328125,1.00634765625,[0. 0. 0. 0. 0. 0. 0. 0. 0.]
0.36300063133239746,0.022074371576309204,0.004134233109652996,-0.47611162066459656,0.8790980577468872,[0. 0. 0. 0. 0. 0. 0. 0. 0.],0.06103515625,-0.79345703125,-0.244140625,[0. 0. 0. 0. 0. 0. 0. 0. 0.],-0.0283203125,0.03515625,1.00341796875,[0. 0. 0. 0. 0. 0. 0. 0. 0.]
0.383134126663208,0.02273944579064846,0.004074988886713982,-0.4761222004890442,0.8790756464004517,[0. 0. 0. 0. 0. 0. 0. 0. 0.],-0.18310546875,-1.03759765625,-0.18310546875,[0. 0. 0. 0. 0. 0. 0. 0. 0.],-0.02880859375,0.0361328125,1.00537109375,[0. 0. 0. 0. 0. 0. 0. 0. 0.]
0.40303921699523926,0.021984798833727837,0.004813076928257942,-0.47617384791374207,0.8790631890296936,[0. 0. 0. 0. 0. 0. 0. 0. 0.],-0.1220703125,-0.3662109375,-0.30517578125,[0. 0. 0. 0. 0. 0. 0. 0. 0.],-0.029296875,0.0341796875,1.00537109375,[0. 0. 0. 0. 0. 0. 0. 0. 0.]
0.42557215690612793,0.021413253620266914,0.0053692772053182125,-0.47621506452560425,0.8790517449378967,[0. 0. 0. 0. 0. 0. 0. 0. 0.],-0.06103515625,-0.18310546875,-0.06103515625,[0. 0. 0. 0. 0. 0. 0. 0. 0.],-0.0302734375,0.033203125,1.0048828125,[0. 0. 0. 0. 0. 0. 0. 0. 0.]
0.4438927173614502,0.022475825622677803,0.004104200750589371,-0.4762159287929535,0.8790314793586731,[0. 0. 0. 0. 0. 0. 0. 0. 0.],-0.1220703125,-0.8544921875,-0.18310546875,[0. 0. 0. 0. 0. 0. 0. 0. 0.],-0.029296875,0.03564453125,1.0048828125,[0. 0. 0. 0. 0. 0. 0. 0. 0.]
0.4692037105560303,0.02176842838525772,0.004392815753817558,-0.47627487778663635,0.8790159821510315,[0. 0. 0. 0. 0. 0. 0. 0. 0.],0.1220703125,-0.79345703125,-0.1220703125,[0. 0. 0. 0. 0. 0. 0. 0. 0.],-0.02880859375,0.03466796875,1.00390625,[0. 0. 0. 0. 0. 0. 0. 0. 0.]
0.4831981658935547,0.022182567045092583,0.004228236153721809,-0.47627711296081543,0.8790052533149719,[0. 0. 0. 0. 0. 0. 0. 0. 0.],0.1220703125,-0.54931640625,-0.244140625,[0. 0. 0. 0. 0. 0. 0. 0. 0.],-0.029296875,0.03466796875,1.00341796875,[0. 0. 0. 0. 0. 0. 0. 0. 0.]
0.503227949142456,0.023046966642141342,0.005119705572724342,-0.4762963652610779,0.878967821598053,[0. 0. 0. 0. 0. 0. 0. 0. 0.],-0.18310546875,-0.30517578125,-0.1220703125,[0. 0. 0. 0. 0. 0. 0. 0. 0.],-0.03125,0.0361328125,1.00537109375,[0. 0. 0. 0. 0. 0. 0. 0. 0.]
0.522998571395874,0.022351158782839775,0.003650812665000558,-0.4763171374797821,0.8789818286895752,[0. 0. 0. 0. 0. 0. 0. 0. 0.],-0.30517578125,-0.6103515625,-0.06103515625,[0. 0. 0. 0. 0. 0. 0. 0. 0.],-0.02783203125,0.0361328125,1.00341796875,[0. 0. 0. 0. 0. 0. 0. 0. 0.]
0.5433075428009033,0.022410299628973007,0.004016362130641937,-0.47636333107948303,0.8789536952972412,[0. 0. 0. 0. 0. 0. 0. 0. 0.],0.06103515625,-0.67138671875,-0.1220703125,[0. 0. 0. 0. 0. 0. 0. 0. 0.],-0.029296875,0.0361328125,1.00439453125,[0. 0. 0. 0. 0. 0. 0. 0. 0.]
0.562964916229248,0.022310471162199974,0.004959074780344963,-0.476401150226593,0.8789309859275818,[0. 0. 0. 0. 0. 0. 0. 0. 0.],0.06103515625,-0.8544921875,-0.244140625,[0. 0. 0. 0. 0. 0. 0. 0. 0.],-0.0302734375,0.03466796875,1.00634765625,[0. 0. 0. 0. 0. 0. 0. 0. 0.]
0.5831878185272217,0.022749245166778564,0.004542977549135685,-0.47640591859817505,0.8789193630218506,[0. 0. 0. 0. 0. 0. 0. 0. 0.],-0.244140625,-0.732421875,-0.30517578125,[0. 0. 0. 0. 0. 0. 0. 0. 0.],-0.0302734375,0.03564453125,1.0029296875,[0. 0. 0. 0. 0. 0. 0. 0. 0.]
0.6034233570098877,0.022488895803689957,0.003133197780698538,-0.47640734910964966,0.8789314031600952,[0. 0. 0. 0. 0. 0. 0. 0. 0.],-0.3662109375,-0.42724609375,-0.06103515625,[0. 0. 0. 0. 0. 0. 0. 0. 0.],-0.02734375,0.0361328125,1.00439453125,[0. 0. 0. 0. 0. 0. 0. 0. 0.]
0.626953125,0.02369895949959755,0.0043020667508244514,-0.4764404594898224,0.8788766860961914,[0. 0. 0. 0. 0. 0. 0. 0. 0.],-0.1220703125,-0.1220703125,-0.06103515625,[0. 0. 0. 0. 0. 0. 0. 0. 0.],-0.02978515625,0.037109375,1.001953125,[0. 0. 0. 0. 0. 0. 0. 0. 0.]
0.6430244445800781,0.02234792523086071,0.004166201688349247,-0.4764769673347473,0.8788930177688599,[0. 0. 0. 0. 0. 0. 0. 0. 0.],0.06103515625,-0.732421875,-0.1220703125,[0. 0. 0. 0. 0. 0. 0. 0. 0.],-0.02880859375,0.03515625,1.0048828125,[0. 0. 0. 0. 0. 0. 0. 0. 0.]
0.6678438186645508,0.02221956104040146,0.004773962311446667,-0.4765171408653259,0.8788713812828064,[0. 0. 0. 0. 0. 0. 0. 0. 0.],0.0,-0.91552734375,-0.06103515625,[0. 0. 0. 0. 0. 0. 0. 0. 0.],-0.02978515625,0.03515625,1.00341796875,[0. 0. 0. 0. 0. 0. 0. 0. 0.]
0.683164119720459,0.022438405081629753,0.004444874823093414,-0.4765166640281677,0.8788678646087646,[0. 0. 0. 0. 0. 0. 0. 0. 0.],-0.42724609375,-0.732421875,-0.1220703125,[0. 0. 0. 0. 0. 0. 0. 0. 0.],-0.029296875,0.03564453125,1.0029296875,[0. 0. 0. 0. 0. 0. 0. 0. 0.]
0.703932523727417,0.022441813722252846,0.004354332573711872,-0.476533979177475,0.8788588047027588,[0. 0. 0. 0. 0. 0. 0. 0. 0.],-0.1220703125,-0.1220703125,0.0,[0. 0. 0. 0. 0. 0. 0. 0. 0.],-0.029296875,0.03564453125,1.0048828125,[0. 0. 0. 0. 0. 0. 0. 0. 0.]
0.7229337692260742,0.022842826321721077,0.004842197522521019,-0.47657978534698486,0.878821074962616,[0. 0. 0. 0. 0. 0. 0. 0. 0.],0.0,-0.48828125,-0.18310546875,[0. 0. 0. 0. 0. 0. 0. 0. 0.],-0.02978515625,0.03564453125,1.00439453125,[0. 0. 0. 0. 0. 0. 0. 0. 0.]
0.7435398101806641,0.02298932895064354,0.004173489287495613,-0.47660914063453674,0.8788048028945923,[0. 0. 0. 0. 0. 0. 0. 0. 0.],-0.244140625,-0.6103515625,-0.06103515625,[0. 0. 0. 0. 0. 0. 0. 0. 0.],-0.029296875,0.0361328125,1.0029296875,[0. 0. 0. 0. 0. 0. 0. 0. 0.]
0.7632083892822266,0.022237753495573997,0.0036580830346792936,-0.4766506850719452,0.8788038492202759,[0. 0. 0. 0. 0. 0. 0. 0. 0.],0.244140625,-0.67138671875,-0.30517578125,[0. 0. 0. 0. 0. 0. 0. 0. 0.],-0.02783203125,0.0361328125,1.0048828125,[0. 0. 0. 0. 0. 0. 0. 0. 0.]
0.7830667495727539,0.022988740354776382,0.004106368403881788,-0.4766765236854553,0.8787686228752136,[0. 0. 0. 0. 0. 0. 0. 0. 0.],-0.06103515625,-0.732421875,-0.18310546875,[0. 0. 0. 0. 0. 0. 0. 0. 0.],-0.029296875,0.03662109375,1.0029296875,[0. 0. 0. 0. 0. 0. 0. 0. 0.]
0.8039941787719727,0.023348812013864517,0.0035117489751428366,-0.4766850471496582,0.8787570595741272,[0. 0. 0. 0. 0. 0. 0. 0. 0.],-0.30517578125,-0.67138671875,-0.18310546875,[0. 0. 0. 0. 0. 0. 0. 0. 0.],-0.0283203125,0.03759765625,1.00390625,[0. 0. 0. 0. 0. 0. 0. 0. 0.]
0.823094367980957,0.022684132680296898,0.004592593293637037,-0.4767317473888397,0.8787440657615662,[0. 0. 0. 0. 0. 0. 0. 0. 0.],-0.30517578125,-0.54931640625,0.06103515625,[0. 0. 0. 0. 0. 0. 0. 0. 0.],-0.02978515625,0.03564453125,1.00390625,[0. 0. 0. 0. 0. 0. 0. 0. 0.]
0.8446786403656006,0.021935947239398956,0.005240326281636953,-0.4767872393131256,0.8787294626235962,[0. 0. 0. 0. 0. 0. 0. 0. 0.],0.3662109375,-0.48828125,-0.1220703125,[0. 0. 0. 0. 0. 0. 0. 0. 0.],-0.02978515625,0.0341796875,1.00390625,[0. 0. 0. 0. 0. 0. 0. 0. 0.]
0.8633623123168945,0.0218149833381176,0.00451589934527874,-0.47680729627609253,0.8787256479263306,[0. 0. 0. 0. 0. 0. 0. 0. 0.],0.1220703125,-1.0986328125,-0.30517578125,[0. 0. 0. 0. 0. 0. 0. 0. 0.],-0.029296875,0.03466796875,1.005859375,[0. 0. 0. 0. 0. 0. 0. 0. 0.]
0.8783347606658936,0.02337091788649559,0.004840892739593983,-0.4768139719963074,0.8786802291870117,[0. 0. 0. 0. 0. 0. 0. 0. 0.],-0.18310546875,-0.91552734375,-0.18310546875,[0. 0. 0. 0. 0. 0. 0. 0. 0.],-0.03076171875,0.03662109375,1.00537109375,[0. 0. 0. 0. 0. 0. 0. 0. 0.]
0.9032106399536133,0.022735320031642914,0.004128695465624332,-0.4768418073654175,0.8786854147911072,[0. 0. 0. 0. 0. 0. 0. 0. 0.],-0.3662109375,-0.42724609375,-0.18310546875,[0. 0. 0. 0. 0. 0. 0. 0. 0.],-0.02978515625,0.0361328125,1.00390625,[0. 0. 0. 0. 0. 0. 0. 0. 0.]
0.923149824142456,0.021918226033449173,0.005473934579640627,-0.4768800139427185,0.878678023815155,[0. 0. 0. 0. 0. 0. 0. 0. 0.],0.1220703125,-0.30517578125,0.1220703125,[0. 0. 0. 0. 0. 0. 0. 0. 0.],-0.0302734375,0.03369140625,1.00439453125,[0. 0. 0. 0. 0. 0. 0. 0. 0.]
0.9446110725402832,0.022257229313254356,0.0046834987588226795,-0.4768887758255005,0.8786693811416626,[0. 0. 0. 0. 0. 0. 0. 0. 0.],0.06103515625,-0.79345703125,-0.30517578125,[0. 0. 0. 0. 0. 0. 0. 0. 0.],-0.029296875,0.03466796875,1.0029296875,[0. 0. 0. 0. 0. 0. 0. 0. 0.]
0.9632689952850342,0.022356895729899406,0.004869904834777117,-0.4769097566604614,0.878654420375824,[0. 0. 0. 0. 0. 0. 0. 0. 0.],-0.3662109375,-1.03759765625,-0.1220703125,[0. 0. 0. 0. 0. 0. 0. 0. 0.],-0.0302734375,0.03466796875,1.0048828125,[0. 0. 0. 0. 0. 0. 0. 0. 0.]
0.9830465316772461,0.022396886721253395,0.004676278680562973,-0.47692200541496277,0.8786478638648987,[0. 0. 0. 0. 0. 0. 0. 0. 0.],0.0,-0.54931640625,-0.244140625,[0. 0. 0. 0. 0. 0. 0. 0. 0.],-0.02978515625,0.03515625,1.00341796875,[0. 0. 0. 0. 0. 0. 0. 0. 0.]
1.0039665699005127,0.021492712199687958,0.004204932134598494,-0.47695162892341614,0.8786566853523254,[0. 0. 0. 0. 0. 0. 0. 0. 0.],-0.06103515625,-0.42724609375,-0.06103515625,[0. 0. 0. 0. 0. 0. 0. 0. 0.],-0.0283203125,0.0341796875,1.0029296875,[0. 0. 0. 0. 0. 0. 0. 0. 0.]
1.024808645248413,0.02214784361422062,0.0038418362382799387,-0.47696349024772644,0.878635585308075,[0. 0. 0. 0. 0. 0. 0. 0. 0.],-0.1220703125,-0.54931640625,-0.06103515625,[0. 0. 0. 0. 0. 0. 0. 0. 0.],-0.029296875,0.03662109375,1.00439453125,[0. 0. 0. 0. 0. 0. 0. 0. 0.]
1.043929100036621,0.022406304255127907,0.004721174016594887,-0.47700241208076477,0.8786036372184753,[0. 0. 0. 0. 0. 0. 0. 0. 0.],-0.06103515625,-0.8544921875,-0.18310546875,[0. 0. 0. 0. 0. 0. 0. 0. 0.],-0.02978515625,0.03515625,1.00390625,[0. 0. 0. 0. 0. 0. 0. 0. 0.]
1.0615568161010742,0.022847117856144905,0.005060881841927767,-0.47701364755630493,0.8785843849182129,[0. 0. 0. 0. 0. 0. 0. 0. 0.],0.18310546875,-0.732421875,-0.18310546875,[0. 0. 0. 0. 0. 0. 0. 0. 0.],-0.03076171875,0.03515625,1.005859375,[0. 0. 0. 0. 0. 0. 0. 0. 0.]
1.0801563262939453,0.022376304492354393,0.004168793559074402,-0.4770309627056122,0.8785917162895203,[0. 0. 0. 0. 0. 0. 0. 0. 0.],-0.18310546875,-0.67138671875,-0.18310546875,[0. 0. 0. 0. 0. 0. 0. 0. 0.],-0.029296875,0.03564453125,1.005859375,[0. 0. 0. 0. 0. 0. 0. 0. 0.]
1.1040151119232178,0.02305031567811966,0.004826047923415899,-0.477042555809021,0.878564715385437,[0. 0. 0. 0. 0. 0. 0. 0. 0.],-0.3662109375,-0.48828125,0.0,[0. 0. 0. 0. 0. 0. 0. 0. 0.],-0.03125,0.03662109375,1.00537109375,[0. 0. 0. 0. 0. 0. 0. 0. 0.]
1.1204502582550049,0.023202624171972275,0.004790988750755787,-0.47706618905067444,0.8785480260848999,[0. 0. 0. 0. 0. 0. 0. 0. 0.],-0.06103515625,-0.42724609375,0.0,[0. 0. 0. 0. 0. 0. 0. 0. 0.],-0.03076171875,0.0361328125,1.00439453125,[0. 0. 0. 0. 0. 0. 0. 0. 0.]
1.1433439254760742,0.02191160060465336,0.0037308905739337206,-0.47710028290748596,0.8785678148269653,[0. 0. 0. 0. 0. 0. 0. 0. 0.],0.30517578125,-0.8544921875,-0.18310546875,[0. 0. 0. 0. 0. 0. 0. 0. 0.],-0.0283203125,0.03515625,1.00341796875,[0. 0. 0. 0. 0. 0. 0. 0. 0.]
1.1662843227386475,0.022723205387592316,0.0038053952157497406,-0.4771164655685425,0.8785380125045776,[0. 0. 0. 0. 0. 0. 0. 0. 0.],-0.244140625,-1.0986328125,-0.18310546875,[0. 0. 0. 0. 0. 0. 0. 0. 0.],-0.0283203125,0.0361328125,1.00390625,[0. 0. 0. 0. 0. 0. 0. 0. 0.]
1.184502363204956,0.022718006744980812,0.004278286825865507,-0.47715258598327637,0.8785164952278137,[0. 0. 0. 0. 0. 0. 0. 0. 0.],0.0,-0.67138671875,-0.1220703125,[0. 0. 0. 0. 0. 0. 0. 0. 0.],-0.0283203125,0.03515625,1.0048828125,[0. 0. 0. 0. 0. 0. 0. 0. 0.]
1.2022392749786377,0.02354145236313343,0.003227467881515622,-0.47714295983314514,0.8785044550895691,[0. 0. 0. 0. 0. 0. 0. 0. 0.],-0.1220703125,-0.732421875,-0.244140625,[0. 0. 0. 0. 0. 0. 0. 0. 0.],-0.0283203125,0.0380859375,1.00341796875,[0. 0. 0. 0. 0. 0. 0. 0. 0.]
1.219367504119873,0.02341984212398529,0.004399138502776623,-0.4771878719329834,0.8784781694412231,[0. 0. 0. 0. 0. 0. 0. 0. 0.],-0.06103515625,-0.30517578125,-0.1220703125,[0. 0. 0. 0. 0. 0. 0. 0. 0.],-0.0302734375,0.037109375,1.0029296875,[0. 0. 0. 0. 0. 0. 0. 0. 0.]
1.2432849407196045,0.022933989763259888,0.005687456578016281,-0.4772569537162781,0.878446102142334,[0. 0. 0. 0. 0. 0. 0. 0. 0.],-0.06103515625,-0.67138671875,-0.1220703125,[0. 0. 0. 0. 0. 0. 0. 0. 0.],-0.03173828125,0.03515625,1.0048828125,[0. 0. 0. 0. 0. 0. 0. 0. 0.]
1.2629632949829102,0.021950790658593178,0.0040825530886650085,-0.4772670567035675,0.8784745931625366,[0. 0. 0. 0. 0. 0. 0. 0. 0.],0.0,-0.732421875,-0.06103515625,[0. 0. 0. 0. 0. 0. 0. 0. 0.],-0.02783203125,0.03466796875,1.005859375,[0. 0. 0. 0. 0. 0. 0. 0. 0.]
1.278921127319336,0.0222567617893219,0.003889150684699416,-0.4772789180278778,0.8784613609313965,[0. 0. 0. 0. 0. 0. 0. 0. 0.],0.06103515625,-0.732421875,-0.18310546875,[0. 0. 0. 0. 0. 0. 0. 0. 0.],-0.0283203125,0.03564453125,1.00537109375,[0. 0. 0. 0. 0. 0. 0. 0. 0.]
1.3043866157531738,0.022032056003808975,0.005062497686594725,-0.4773273169994354,0.8784347176551819,[0. 0. 0. 0. 0. 0. 0. 0. 0.],-0.18310546875,-0.9765625,-0.18310546875,[0. 0. 0. 0. 0. 0. 0. 0. 0.],-0.0302734375,0.0341796875,1.0048828125,[0. 0. 0. 0. 0. 0. 0. 0. 0.]
1.32293701171875,0.02251710183918476,0.005016098730266094,-0.47734513878822327,0.8784131407737732,[0. 0. 0. 0. 0. 0. 0. 0. 0.],0.0,-0.48828125,-0.18310546875,[0. 0. 0. 0. 0. 0. 0. 0. 0.],-0.03076171875,0.03564453125,1.00439453125,[0. 0. 0. 0. 0. 0. 0. 0. 0.]
1.3431482315063477,0.02318914234638214,0.004547404125332832,-0.47737234830856323,0.8783833384513855,[0. 0. 0. 0. 0. 0. 0. 0. 0.],0.30517578125,-0.48828125,-0.1220703125,[0. 0. 0. 0. 0. 0. 0. 0. 0.],-0.0302734375,0.03662109375,1.00439453125,[0. 0. 0. 0. 0. 0. 0. 0. 0.]
1.364621877670288,0.022462373599410057,0.00401967391371727,-0.47739964723587036,0.8783899545669556,[0. 0. 0. 0. 0. 0. 0. 0. 0.],0.0,-0.9765625,-0.30517578125,[0. 0. 0. 0. 0. 0. 0. 0. 0.],-0.02880859375,0.03515625,1.00390625,[0. 0. 0. 0. 0. 0. 0. 0. 0.]
1.383270502090454,0.023175038397312164,0.004418580327183008,-0.47742539644241333,0.8783555030822754,[0. 0. 0. 0. 0. 0. 0. 0. 0.],-0.244140625,-0.9765625,-0.244140625,[0. 0. 0. 0. 0. 0. 0. 0. 0.],-0.03076171875,0.03662109375,1.001953125,[0. 0. 0. 0. 0. 0. 0. 0. 0.]
1.4035139083862305,0.02293330244719982,0.004400974605232477,-0.47744131088256836,0.8783533573150635,[0. 0. 0. 0. 0. 0. 0. 0. 0.],-0.244140625,-0.48828125,-0.06103515625,[0. 0. 0. 0. 0. 0. 0. 0. 0.],-0.0302734375,0.0361328125,1.00439453125,[0. 0. 0. 0. 0. 0. 0. 0. 0.]
1.426959753036499,0.023099858313798904,0.005223438609391451,-0.4774770736694336,0.8783250451087952,[0. 0. 0. 0. 0. 0. 0. 0. 0.],-0.244140625,-0.1220703125,-0.06103515625,[0. 0. 0. 0. 0. 0. 0. 0. 0.],-0.03125,0.03564453125,1.00390625,[0. 0. 0. 0. 0. 0. 0. 0. 0.]
1.4473953247070312,0.022418351843953133,0.003637020941823721,-0.47747644782066345,0.8783510327339172,[0. 0. 0. 0. 0. 0. 0. 0. 0.],-0.18310546875,-0.54931640625,-0.06103515625,[0. 0. 0. 0. 0. 0. 0. 0. 0.],-0.02783203125,0.0361328125,1.0029296875,[0. 0. 0. 0. 0. 0. 0. 0. 0.]
1.4601609706878662,0.022507119923830032,0.003212711540982127,-0.4775029420852661,0.8783360123634338,[0. 0. 0. 0. 0. 0. 0. 0. 0.],-0.30517578125,-1.15966796875,-0.244140625,[0. 0. 0. 0. 0. 0. 0. 0. 0.],-0.02734375,0.03564453125,1.00439453125,[0. 0. 0. 0. 0. 0. 0. 0. 0.]
1.483093023300171,0.02318853698670864,0.004008113872259855,-0.47752636671066284,0.8783022165298462,[0. 0. 0. 0. 0. 0. 0. 0. 0.],0.06103515625,-0.42724609375,-0.1220703125,[0. 0. 0. 0. 0. 0. 0. 0. 0.],-0.029296875,0.03662109375,1.001953125,[0. 0. 0. 0. 0. 0. 0. 0. 0.]
1.5035426616668701,0.022489117458462715,0.004320416133850813,-0.4775761663913727,0.8782919645309448,[0. 0. 0. 0. 0. 0. 0. 0. 0.],-0.06103515625,-0.30517578125,-0.06103515625,[0. 0. 0. 0. 0. 0. 0. 0. 0.],-0.029296875,0.03564453125,1.005859375,[0. 0. 0. 0. 0. 0. 0. 0. 0.]
1.5232439041137695,0.021787455305457115,0.005386012140661478,-0.4776338040828705,0.8782723546028137,[0. 0. 0. 0. 0. 0. 0. 0. 0.],-0.18310546875,-0.732421875,0.0,[0. 0. 0. 0. 0. 0. 0. 0. 0.],-0.0302734375,0.033203125,1.00244140625,[0. 0. 0. 0. 0. 0. 0. 0. 0.]
1.543152093887329,0.022288238629698753,0.003864702768623829,-0.47762271761894226,0.8782737255096436,[0. 0. 0. 0. 0. 0. 0. 0. 0.],-0.18310546875,-1.0986328125,-0.18310546875,[0. 0. 0. 0. 0. 0. 0. 0. 0.],-0.0283203125,0.03564453125,1.00439453125,[0. 0. 0. 0. 0. 0. 0. 0. 0.]
1.5631191730499268,0.022365137934684753,0.0033303212840110064,-0.47763311862945557,0.8782684206962585,[0. 0. 0. 0. 0. 0. 0. 0. 0.],0.0,-0.732421875,-0.244140625,[0. 0. 0. 0. 0. 0. 0. 0. 0.],-0.02734375,0.0361328125,1.00390625,[0. 0. 0. 0. 0. 0. 0. 0. 0.]
1.5830938816070557,0.02270863577723503,0.003703510155901313,-0.4776516258716583,0.8782479763031006,[0. 0. 0. 0. 0. 0. 0. 0. 0.],-0.18310546875,-0.48828125,-0.06103515625,[0. 0. 0. 0. 0. 0. 0. 0. 0.],-0.0283203125,0.0361328125,1.00439453125,[0. 0. 0. 0. 0. 0. 0. 0. 0.]
1.6030089855194092,0.022497709840536118,0.004124497063457966,-0.4776821434497833,0.8782349824905396,[0. 0. 0. 0. 0. 0. 0. 0. 0.],-0.42724609375,-0.54931640625,-0.06103515625,[0. 0. 0. 0. 0. 0. 0. 0. 0.],-0.02978515625,0.0361328125,1.00537109375,[0. 0. 0. 0. 0. 0. 0. 0. 0.]
1.6229910850524902,0.022370189428329468,0.004115029703825712,-0.47771531343460083,0.87822026014328,[0. 0. 0. 0. 0. 0. 0. 0. 0.],0.06103515625,-0.6103515625,-0.06103515625,[0. 0. 0. 0. 0. 0. 0. 0. 0.],-0.02880859375,0.03515625,1.00634765625,[0. 0. 0. 0. 0. 0. 0. 0. 0.]
1.6433029174804688,0.02233775518834591,0.003826614934951067,-0.4777340292930603,0.8782122135162354,[0. 0. 0. 0. 0. 0. 0. 0. 0.],0.1220703125,-0.67138671875,-0.18310546875,[0. 0. 0. 0. 0. 0. 0. 0. 0.],-0.0283203125,0.03564453125,1.00634765625,[0. 0. 0. 0. 0. 0. 0. 0. 0.]
1.6631419658660889,0.021834300830960274,0.005197896622121334,-0.4777969419956207,0.8781836032867432,[0. 0. 0. 0. 0. 0. 0. 0. 0.],0.0,-0.9765625,-0.18310546875,[0. 0. 0. 0. 0. 0. 0. 0. 0.],-0.02978515625,0.0341796875,1.00439453125,[0. 0. 0. 0. 0. 0. 0. 0. 0.]
1.6828856468200684,0.023403700441122055,0.004345092922449112,-0.4777699112892151,0.8781624436378479,[0. 0. 0. 0. 0. 0. 0. 0. 0.],-0.3662109375,-0.91552734375,-0.18310546875,[0. 0. 0. 0. 0. 0. 0. 0. 0.],-0.0302734375,0.03759765625,1.00439453125,[0. 0. 0. 0. 0. 0. 0. 0. 0.]
1.7031974792480469,0.023760700598359108,0.004094525706022978,-0.4777790307998657,0.8781490921974182,[0. 0. 0. 0. 0. 0. 0. 0. 0.],0.0,-0.244140625,-0.1220703125,[0. 0. 0. 0. 0. 0. 0. 0. 0.],-0.0302734375,0.0380859375,1.00439453125,[0. 0. 0. 0. 0. 0. 0. 0. 0.]
1.7217049598693848,0.022928234189748764,0.0044255307875573635,-0.477817565202713,0.8781486749649048,[0. 0. 0. 0. 0. 0. 0. 0. 0.],0.0,-0.244140625,0.0,[0. 0. 0. 0. 0. 0. 0. 0. 0.],-0.02978515625,0.03564453125,1.00439453125,[0. 0. 0. 0. 0. 0. 0. 0. 0.]
1.7433741092681885,0.022390108555555344,0.003656822256743908,-0.47784560918807983,0.8781509399414062,[0. 0. 0. 0. 0. 0. 0. 0. 0.],0.0,-0.91552734375,-0.1220703125,[0. 0. 0. 0. 0. 0. 0. 0. 0.],-0.0283203125,0.03662109375,1.0048828125,[0. 0. 0. 0. 0. 0. 0. 0. 0.]
1.7635438442230225,0.0240891482681036,0.003527623601257801,-0.47784966230392456,0.8781042695045471,[0. 0. 0. 0. 0. 0. 0. 0. 0.],-0.06103515625,-0.79345703125,-0.1220703125,[0. 0. 0. 0. 0. 0. 0. 0. 0.],-0.029296875,0.0390625,1.00732421875,[0. 0. 0. 0. 0. 0. 0. 0. 0.]
1.7832376956939697,0.022695032879710197,0.003490827977657318,-0.47788387537002563,0.8781229257583618,[0. 0. 0. 0. 0. 0. 0. 0. 0.],0.0,-0.54931640625,-0.18310546875,[0. 0. 0. 0. 0. 0. 0. 0. 0.],-0.02783203125,0.03662109375,1.00390625,[0. 0. 0. 0. 0. 0. 0. 0. 0.]
1.8036079406738281,0.022653475403785706,0.004175038542598486,-0.47792068123817444,0.8781009912490845,[0. 0. 0. 0. 0. 0. 0. 0. 0.],-0.30517578125,-0.42724609375,-0.1220703125,[0. 0. 0. 0. 0. 0. 0. 0. 0.],-0.02880859375,0.0361328125,1.0048828125,[0. 0. 0. 0. 0. 0. 0. 0. 0.]
1.8241822719573975,0.021560510620474815,0.004663281608372927,-0.47796860337257385,0.8780999183654785,[0. 0. 0. 0. 0. 0. 0. 0. 0.],-0.30517578125,-0.6103515625,0.06103515625,[0. 0. 0. 0. 0. 0. 0. 0. 0.],-0.02880859375,0.03369140625,1.0029296875,[0. 0. 0. 0. 0. 0. 0. 0. 0.]
1.8437538146972656,0.021920546889305115,0.003700526664033532,-0.47797852754592896,0.8780902624130249,[0. 0. 0. 0. 0. 0. 0. 0. 0.],0.54931640625,-0.54931640625,-0.1220703125,[0. 0. 0. 0. 0. 0. 0. 0. 0.],-0.0283203125,0.03466796875,1.00537109375,[0. 0. 0. 0. 0. 0. 0. 0. 0.]
1.863926887512207,0.022558560594916344,0.004105972591787577,-0.47800785303115845,0.8780562877655029,[0. 0. 0. 0. 0. 0. 0. 0. 0.],0.0,-0.91552734375,-0.30517578125,[0. 0. 0. 0. 0. 0. 0. 0. 0.],-0.02880859375,0.03466796875,1.005859375,[0. 0. 0. 0. 0. 0. 0. 0. 0.]
1.8886990547180176,0.02259059250354767,0.0045206667855381966,-0.4780518412590027,0.878029465675354,[0. 0. 0. 0. 0. 0. 0. 0. 0.],-0.06103515625,-0.79345703125,-0.244140625,[0. 0. 0. 0. 0. 0. 0. 0. 0.],-0.029296875,0.03515625,1.00732421875,[0. 0. 0. 0. 0. 0. 0. 0. 0.]
1.905562400817871,0.02273731678724289,0.004351291339844465,-0.47805190086364746,0.8780264258384705,[0. 0. 0. 0. 0. 0. 0. 0. 0.],-0.48828125,-0.3662109375,-0.1220703125,[0. 0. 0. 0. 0. 0. 0. 0. 0.],-0.02978515625,0.0361328125,1.005859375,[0. 0. 0. 0. 0. 0. 0. 0. 0.]
1.9230492115020752,0.022784404456615448,0.003364445408806205,-0.4780605733394623,0.8780248761177063,[0. 0. 0. 0. 0. 0. 0. 0. 0.],0.18310546875,-0.30517578125,0.06103515625,[0. 0. 0. 0. 0. 0. 0. 0. 0.],-0.02783203125,0.03662109375,1.00634765625,[0. 0. 0. 0. 0. 0. 0. 0. 0.]
1.9432251453399658,0.022043870761990547,0.0035395491868257523,-0.4781045615673065,0.8780191540718079,[0. 0. 0. 0. 0. 0. 0. 0. 0.],-0.06103515625,-0.91552734375,-0.1220703125,[0. 0. 0. 0. 0. 0. 0. 0. 0.],-0.02734375,0.03564453125,1.0048828125,[0. 0. 0. 0. 0. 0. 0. 0. 0.]
1.9629640579223633,0.022477027028799057,0.00375150959007442,-0.47813016176223755,0.8779932856559753,[0. 0. 0. 0. 0. 0. 0. 0. 0.],-0.244140625,-0.9765625,-0.244140625,[0. 0. 0. 0. 0. 0. 0. 0. 0.],-0.0283203125,0.0361328125,1.005859375,[0. 0. 0. 0. 0. 0. 0. 0. 0.]
1.9843177795410156,0.023906240239739418,0.004343403037637472,-0.47814393043518066,0.8779454231262207,[0. 0. 0. 0. 0. 0. 0. 0. 0.],-0.18310546875,-0.48828125,-0.18310546875,[0. 0. 0. 0. 0. 0. 0. 0. 0.],-0.03076171875,0.0380859375,1.00439453125,[0. 0. 0. 0. 0. 0. 0. 0. 0.]
2.003969669342041,0.02263062447309494,0.004064604640007019,-0.4781753122806549,0.8779634833335876,[0. 0. 0. 0. 0. 0. 0. 0. 0.],-0.18310546875,-0.30517578125,-0.1220703125,[0. 0. 0. 0. 0. 0. 0. 0. 0.],-0.029296875,0.03662109375,1.0048828125,[0. 0. 0. 0. 0. 0. 0. 0. 0.]
2.023242473602295,0.021960683166980743,0.0037642652168869972,-0.47820329666137695,0.8779665231704712,[0. 0. 0. 0. 0. 0. 0. 0. 0.],-0.18310546875,-0.6103515625,-0.06103515625,[0. 0. 0. 0. 0. 0. 0. 0. 0.],-0.02783203125,0.03515625,1.00439453125,[0. 0. 0. 0. 0. 0. 0. 0. 0.]
2.043362617492676,0.02257240191102028,0.005004248581826687,-0.4782399535179138,0.8779248595237732,[0. 0. 0. 0. 0. 0. 0. 0. 0.],-0.06103515625,-0.9765625,-0.244140625,[0. 0. 0. 0. 0. 0. 0. 0. 0.],-0.0302734375,0.03466796875,1.00244140625,[0. 0. 0. 0. 0. 0. 0. 0. 0.]
2.0583744049072266,0.022891942411661148,0.004040964413434267,-0.4782394468784332,0.8779218792915344,[0. 0. 0. 0. 0. 0. 0. 0. 0.],0.18310546875,-0.67138671875,-0.30517578125,[0. 0. 0. 0. 0. 0. 0. 0. 0.],-0.02880859375,0.0361328125,1.0029296875,[0. 0. 0. 0. 0. 0. 0. 0. 0.]
2.083360195159912,0.022213691845536232,0.00504346052184701,-0.4782911241054535,0.8779058456420898,[0. 0. 0. 0. 0. 0. 0. 0. 0.],-0.06103515625,-0.42724609375,-0.1220703125,[0. 0. 0. 0. 0. 0. 0. 0. 0.],-0.0302734375,0.0341796875,1.00341796875,[0. 0. 0. 0. 0. 0. 0. 0. 0.]
2.098099708557129,0.021855872124433517,0.005201030522584915,-0.478325754404068,0.877895176410675,[0. 0. 0. 0. 0. 0. 0. 0. 0.],-0.18310546875,-0.6103515625,-0.06103515625,[0. 0. 0. 0. 0. 0. 0. 0. 0.],-0.0302734375,0.03369140625,1.00439453125,[0. 0. 0. 0. 0. 0. 0. 0. 0.]
2.1234071254730225,0.022895872592926025,0.003987541887909174,-0.47831159830093384,0.8778825998306274,[0. 0. 0. 0. 0. 0. 0. 0. 0.],-0.18310546875,-0.42724609375,0.0,[0. 0. 0. 0. 0. 0. 0. 0. 0.],-0.029296875,0.037109375,1.001953125,[0. 0. 0. 0. 0. 0. 0. 0. 0.]
2.143113851547241,0.0231714379042387,0.0035279621370136738,-0.4783329963684082,0.8778656721115112,[0. 0. 0. 0. 0. 0. 0. 0. 0.],0.30517578125,-0.6103515625,-0.06103515625,[0. 0. 0. 0. 0. 0. 0. 0. 0.],-0.02880859375,0.037109375,1.0048828125,[0. 0. 0. 0. 0. 0. 0. 0. 0.]
2.1633784770965576,0.02254275605082512,0.004470041021704674,-0.47838810086250305,0.8778477907180786,[0. 0. 0. 0. 0. 0. 0. 0. 0.],-0.18310546875,-0.8544921875,-0.3662109375,[0. 0. 0. 0. 0. 0. 0. 0. 0.],-0.02978515625,0.03515625,1.005859375,[0. 0. 0. 0. 0. 0. 0. 0. 0.]
2.188382148742676,0.02296539768576622,0.004501625429838896,-0.47842296957969666,0.8778175711631775,[0. 0. 0. 0. 0. 0. 0. 0. 0.],-0.1220703125,-0.91552734375,-0.30517578125,[0. 0. 0. 0. 0. 0. 0. 0. 0.],-0.0302734375,0.0361328125,1.0048828125,[0. 0. 0. 0. 0. 0. 0. 0. 0.]
2.2039918899536133,0.023757992312312126,0.0036958665587008,-0.4784092903137207,0.8778078556060791,[0. 0. 0. 0. 0. 0. 0. 0. 0.],-0.06103515625,-0.18310546875,-0.06103515625,[0. 0. 0. 0. 0. 0. 0. 0. 0.],-0.02978515625,0.0380859375,1.0029296875,[0. 0. 0. 0. 0. 0. 0. 0. 0.]
2.2236039638519287,0.02261553332209587,0.003923317417502403,-0.4784449338912964,0.8778176307678223,[0. 0. 0. 0. 0. 0. 0. 0. 0.],0.06103515625,-0.244140625,0.0,[0. 0. 0. 0. 0. 0. 0. 0. 0.],-0.02880859375,0.0361328125,1.00634765625,[0. 0. 0. 0. 0. 0. 0. 0. 0.]
2.2449533939361572,0.02147531881928444,0.0038192830979824066,-0.4784904420375824,0.8778219223022461,[0. 0. 0. 0. 0. 0. 0. 0. 0.],-0.06103515625,-0.8544921875,-0.18310546875,[0. 0. 0. 0. 0. 0. 0. 0. 0.],-0.02734375,0.0341796875,1.00537109375,[0. 0. 0. 0. 0. 0. 0. 0. 0.]
2.2645983695983887,0.021489255130290985,0.003601056057959795,-0.4785221219062805,0.8778051733970642,[0. 0. 0. 0. 0. 0. 0. 0. 0.],-0.244140625,-0.9765625,-0.244140625,[0. 0. 0. 0. 0. 0. 0. 0. 0.],-0.02685546875,0.03515625,1.0048828125,[0. 0. 0. 0. 0. 0. 0. 0. 0.]
2.283057928085327,0.022746892645955086,0.004835077561438084,-0.4785490334033966,0.8777528405189514,[0. 0. 0. 0. 0. 0. 0. 0. 0.],0.0,-0.3662109375,-0.18310546875,[0. 0. 0. 0. 0. 0. 0. 0. 0.],-0.03076171875,0.03564453125,1.00439453125,[0. 0. 0. 0. 0. 0. 0. 0. 0.]
2.3036701679229736,0.0235783439129591,0.0042787413112819195,-0.4785507023334503,0.8777328729629517,[0. 0. 0. 0. 0. 0. 0. 0. 0.],-0.3662109375,-0.42724609375,-0.06103515625,[0. 0. 0. 0. 0. 0. 0. 0. 0.],-0.0302734375,0.0380859375,1.0029296875,[0. 0. 0. 0. 0. 0. 0. 0. 0.]
2.318580150604248,0.022572945803403854,0.004282286390662193,-0.47858381271362305,0.8777411580085754,[0. 0. 0. 0. 0. 0. 0. 0. 0.],-0.1220703125,-0.6103515625,0.0,[0. 0. 0. 0. 0. 0. 0. 0. 0.],-0.029296875,0.03564453125,1.00439453125,[0. 0. 0. 0. 0. 0. 0. 0. 0.]
2.3436942100524902,0.02149658463895321,0.004260627552866936,-0.47863703966140747,0.8777393102645874,[0. 0. 0. 0. 0. 0. 0. 0. 0.],0.1220703125,-0.8544921875,-0.244140625,[0. 0. 0. 0. 0. 0. 0. 0. 0.],-0.0283203125,0.0341796875,1.005859375,[0. 0. 0. 0. 0. 0. 0. 0. 0.]
2.3632631301879883,0.022018011659383774,0.004157769028097391,-0.4786485433578491,0.8777207136154175,[0. 0. 0. 0. 0. 0. 0. 0. 0.],0.06103515625,-0.79345703125,-0.18310546875,[0. 0. 0. 0. 0. 0. 0. 0. 0.],-0.0283203125,0.03466796875,1.00439453125,[0. 0. 0. 0. 0. 0. 0. 0. 0.]
2.3860208988189697,0.022865774109959602,0.0042327940464019775,-0.478651762008667,0.8776968717575073,[0. 0. 0. 0. 0. 0. 0. 0. 0.],-0.30517578125,-0.67138671875,-0.244140625,[0. 0. 0. 0. 0. 0. 0. 0. 0.],-0.02978515625,0.03662109375,1.0048828125,[0. 0. 0. 0. 0. 0. 0. 0. 0.]
2.403460741043091,0.022419795393943787,0.004463423043489456,-0.4786827266216278,0.8776904344558716,[0. 0. 0. 0. 0. 0. 0. 0. 0.],-0.244140625,-0.6103515625,0.06103515625,[0. 0. 0. 0. 0. 0. 0. 0. 0.],-0.02978515625,0.03564453125,1.00439453125,[0. 0. 0. 0. 0. 0. 0. 0. 0.]
2.423203468322754,0.022248821333050728,0.0038600992411375046,-0.47870364785194397,0.8776861429214478,[0. 0. 0. 0. 0. 0. 0. 0. 0.],0.18310546875,-0.42724609375,0.0,[0. 0. 0. 0. 0. 0. 0. 0. 0.],-0.0283203125,0.03564453125,1.00341796875,[0. 0. 0. 0. 0. 0. 0. 0. 0.]
2.4431087970733643,0.02239631675183773,0.0041770003736019135,-0.47873109579086304,0.8776660561561584,[0. 0. 0. 0. 0. 0. 0. 0. 0.],0.0,-0.79345703125,-0.18310546875,[0. 0. 0. 0. 0. 0. 0. 0. 0.],-0.029296875,0.03515625,1.005859375,[0. 0. 0. 0. 0. 0. 0. 0. 0.]
2.459174156188965,0.02239467203617096,0.0036682712379842997,-0.4787408411502838,0.8776630163192749,[0. 0. 0. 0. 0. 0. 0. 0. 0.],-0.18310546875,-1.0986328125,-0.244140625,[0. 0. 0. 0. 0. 0. 0. 0. 0.],-0.0283203125,0.0361328125,1.005859375,[0. 0. 0. 0. 0. 0. 0. 0. 0.]
2.482264757156372,0.022543691098690033,0.0033791542518883944,-0.47876474261283875,0.8776472806930542,[0. 0. 0. 0. 0. 0. 0. 0. 0.],-0.244140625,-0.54931640625,-0.3662109375,[0. 0. 0. 0. 0. 0. 0. 0. 0.],-0.02783203125,0.03662109375,1.00634765625,[0. 0. 0. 0. 0. 0. 0. 0. 0.]
2.503542900085449,0.022108348086476326,0.004080003127455711,-0.4788026809692383,0.8776347041130066,[0. 0. 0. 0. 0. 0. 0. 0. 0.],0.1220703125,-0.18310546875,0.0,[0. 0. 0. 0. 0. 0. 0. 0. 0.],-0.029296875,0.03515625,1.00732421875,[0. 0. 0. 0. 0. 0. 0. 0. 0.]
2.522976875305176,0.022746095433831215,0.00421444047242403,-0.47883492708206177,0.8776001930236816,[0. 0. 0. 0. 0. 0. 0. 0. 0.],0.06103515625,-0.79345703125,-0.1220703125,[0. 0. 0. 0. 0. 0. 0. 0. 0.],-0.029296875,0.03564453125,1.0029296875,[0. 0. 0. 0. 0. 0. 0. 0. 0.]
2.5430550575256348,0.022579021751880646,0.003755720565095544,-0.4788532853126526,0.8775965571403503,[0. 0. 0. 0. 0. 0. 0. 0. 0.],-0.18310546875,-1.0986328125,-0.06103515625,[0. 0. 0. 0. 0. 0. 0. 0. 0.],-0.0283203125,0.0361328125,1.00439453125,[0. 0. 0. 0. 0. 0. 0. 0. 0.]
2.563048839569092,0.02251451648771763,0.003732989775016904,-0.47887498140335083,0.8775864839553833,[0. 0. 0. 0. 0. 0. 0. 0. 0.],-0.06103515625,-0.6103515625,-0.244140625,[0. 0. 0. 0. 0. 0. 0. 0. 0.],-0.0283203125,0.0361328125,1.00439453125,[0. 0. 0. 0. 0. 0. 0. 0. 0.]
2.585341691970825,0.0222853384912014,0.0043886941857635975,-0.4789162576198578,0.8775667548179626,[0. 0. 0. 0. 0. 0. 0. 0. 0.],-0.1220703125,-0.6103515625,-0.30517578125,[0. 0. 0. 0. 0. 0. 0. 0. 0.],-0.029296875,0.03515625,1.005859375,[0. 0. 0. 0. 0. 0. 0. 0. 0.]
2.6030964851379395,0.02312116138637066,0.004244519863277674,-0.4789208769798279,0.8775432705879211,[0. 0. 0. 0. 0. 0. 0. 0. 0.],-0.42724609375,-0.67138671875,0.0,[0. 0. 0. 0. 0. 0. 0. 0. 0.],-0.02978515625,0.03662109375,1.00390625,[0. 0. 0. 0. 0. 0. 0. 0. 0.]
2.6236026287078857,0.022403664886951447,0.004610635340213776,-0.47897160053253174,0.8775323033332825,[0. 0. 0. 0. 0. 0. 0. 0. 0.],0.0,-0.48828125,0.0,[0. 0. 0. 0. 0. 0. 0. 0. 0.],-0.02978515625,0.03515625,1.0048828125,[0. 0. 0. 0. 0. 0. 0. 0. 0.]
2.6430389881134033,0.02243516780436039,0.003538724733516574,-0.47897425293922424,0.8775350451469421,[0. 0. 0. 0. 0. 0. 0. 0. 0.],0.30517578125,-0.48828125,-0.1220703125,[0. 0. 0. 0. 0. 0. 0. 0. 0.],-0.02783203125,0.0361328125,1.00634765625,[0. 0. 0. 0. 0. 0. 0. 0. 0.]
2.6632111072540283,0.022152919322252274,0.004734755028039217,-0.4790331721305847,0.8775044679641724,[0. 0. 0. 0. 0. 0. 0. 0. 0.],-0.1220703125,-0.9765625,-0.244140625,[0. 0. 0. 0. 0. 0. 0. 0. 0.],-0.02978515625,0.03466796875,1.00390625,[0. 0. 0. 0. 0. 0. 0. 0. 0.]
2.6789700984954834,0.023615438491106033,0.004358784761279821,-0.47903046011924744,0.8774697780609131,[0. 0. 0. 0. 0. 0. 0. 0. 0.],-0.42724609375,-0.8544921875,-0.244140625,[0. 0. 0. 0. 0. 0. 0. 0. 0.],-0.03076171875,0.037109375,1.00341796875,[0. 0. 0. 0. 0. 0. 0. 0. 0.]
2.702981472015381,0.023354513570666313,0.003852059133350849,-0.4790439009666443,0.8774717450141907,[0. 0. 0. 0. 0. 0. 0. 0. 0.],-0.42724609375,-0.18310546875,-0.06103515625,[0. 0. 0. 0. 0. 0. 0. 0. 0.],-0.029296875,0.03759765625,1.0048828125,[0. 0. 0. 0. 0. 0. 0. 0. 0.]
2.7230684757232666,0.02298458106815815,0.004587795585393906,-0.47907397150993347,0.8774616122245789,[0. 0. 0. 0. 0. 0. 0. 0. 0.],0.244140625,-0.48828125,0.06103515625,[0. 0. 0. 0. 0. 0. 0. 0. 0.],-0.0302734375,0.0361328125,1.00439453125,[0. 0. 0. 0. 0. 0. 0. 0. 0.]
2.743474006652832,0.021960539743304253,0.005030323285609484,-0.4791239798069,0.8774580955505371,[0. 0. 0. 0. 0. 0. 0. 0. 0.],-0.06103515625,-0.91552734375,-0.06103515625,[0. 0. 0. 0. 0. 0. 0. 0. 0.],-0.029296875,0.0341796875,1.005859375,[0. 0. 0. 0. 0. 0. 0. 0. 0.]
2.763354778289795,0.02187940664589405,0.003702809102833271,-0.4791111350059509,0.877473771572113,[0. 0. 0. 0. 0. 0. 0. 0. 0.],-0.18310546875,-1.03759765625,-0.244140625,[0. 0. 0. 0. 0. 0. 0. 0. 0.],-0.02783203125,0.03515625,1.00439453125,[0. 0. 0. 0. 0. 0. 0. 0. 0.]
2.7831759452819824,0.022510893642902374,0.004092271439731121,-0.4791208505630493,0.8774506449699402,[0. 0. 0. 0. 0. 0. 0. 0. 0.],-0.06103515625,-0.3662109375,-0.1220703125,[0. 0. 0. 0. 0. 0. 0. 0. 0.],-0.02880859375,0.03564453125,1.00244140625,[0. 0. 0. 0. 0. 0. 0. 0. 0.]
2.80407452583313,0.022513849660754204,0.0043421778827905655,-0.47914525866508484,0.8774362206459045,[0. 0. 0. 0. 0. 0. 0. 0. 0.],0.0,-0.3662109375,0.0,[0. 0. 0. 0. 0. 0. 0. 0. 0.],-0.02880859375,0.03515625,1.001953125,[0. 0. 0. 0. 0. 0. 0. 0. 0.]
2.823172092437744,0.02288474515080452,0.005457473453134298,-0.4791947603225708,0.8773931860923767,[0. 0. 0. 0. 0. 0. 0. 0. 0.],-0.18310546875,-0.732421875,-0.06103515625,[0. 0. 0. 0. 0. 0. 0. 0. 0.],-0.03173828125,0.03515625,1.001953125,[0. 0. 0. 0. 0. 0. 0. 0. 0.]
2.8447439670562744,0.022280825302004814,0.004484898876398802,-0.47922226786613464,0.8773993849754333,[0. 0. 0. 0. 0. 0. 0. 0. 0.],-0.06103515625,-0.8544921875,-0.18310546875,[0. 0. 0. 0. 0. 0. 0. 0. 0.],-0.02978515625,0.03515625,1.00537109375,[0. 0. 0. 0. 0. 0. 0. 0. 0.]
2.8653295040130615,0.022635772824287415,0.004226854536682367,-0.4792463183403015,0.8773784041404724,[0. 0. 0. 0. 0. 0. 0. 0. 0.],0.06103515625,-0.732421875,-0.06103515625,[0. 0. 0. 0. 0. 0. 0. 0. 0.],-0.029296875,0.03564453125,1.00439453125,[0. 0. 0. 0. 0. 0. 0. 0. 0.]
2.883061647415161,0.022907985374331474,0.004400348756462336,-0.4792586863040924,0.8773636817932129,[0. 0. 0. 0. 0. 0. 0. 0. 0.],-0.3662109375,-0.54931640625,-0.244140625,[0. 0. 0. 0. 0. 0. 0. 0. 0.],-0.029296875,0.0361328125,1.001953125,[0. 0. 0. 0. 0. 0. 0. 0. 0.]
2.9033010005950928,0.02210340090095997,0.004458259791135788,-0.4792962074279785,0.8773635029792786,[0. 0. 0. 0. 0. 0. 0. 0. 0.],-0.244140625,-0.48828125,0.0,[0. 0. 0. 0. 0. 0. 0. 0. 0.],-0.029296875,0.03466796875,1.00537109375,[0. 0. 0. 0. 0. 0. 0. 0. 0.]
2.923304557800293,0.022576818242669106,0.004559398163110018,-0.4793223738670349,0.8773366212844849,[0. 0. 0. 0. 0. 0. 0. 0. 0.],0.1220703125,-0.42724609375,-0.06103515625,[0. 0. 0. 0. 0. 0. 0. 0. 0.],-0.02978515625,0.03515625,1.00390625,[0. 0. 0. 0. 0. 0. 0. 0. 0.]
2.9442813396453857,0.021826209500432014,0.0038378264289349318,-0.4793490767478943,0.8773446083068848,[0. 0. 0. 0. 0. 0. 0. 0. 0.],0.1220703125,-0.79345703125,-0.30517578125,[0. 0. 0. 0. 0. 0. 0. 0. 0.],-0.02783203125,0.03466796875,1.0048828125,[0. 0. 0. 0. 0. 0. 0. 0. 0.]
2.963432788848877,0.022640055045485497,0.0030887380708009005,-0.4793454706668854,0.8773288130760193,[0. 0. 0. 0. 0. 0. 0. 0. 0.],-0.244140625,-1.03759765625,-0.244140625,[0. 0. 0. 0. 0. 0. 0. 0. 0.],-0.02783203125,0.037109375,1.00537109375,[0. 0. 0. 0. 0. 0. 0. 0. 0.]
2.9870223999023438,0.022524520754814148,0.003427955787628889,-0.4793987274169922,0.8773015141487122,[0. 0. 0. 0. 0. 0. 0. 0. 0.],0.06103515625,-0.79345703125,-0.18310546875,[0. 0. 0. 0. 0. 0. 0. 0. 0.],-0.02783203125,0.0361328125,1.00439453125,[0. 0. 0. 0. 0. 0. 0. 0. 0.]
3.003093719482422,0.02299352176487446,0.0038227408658713102,-0.4794100821018219,0.8772814869880676,[0. 0. 0. 0. 0. 0. 0. 0. 0.],0.06103515625,-0.30517578125,-0.1220703125,[0. 0. 0. 0. 0. 0. 0. 0. 0.],-0.02880859375,0.03662109375,1.00341796875,[0. 0. 0. 0. 0. 0. 0. 0. 0.]
3.0242011547088623,0.022227223962545395,0.004187874961644411,-0.4794655442237854,0.8772692084312439,[0. 0. 0. 0. 0. 0. 0. 0. 0.],0.0,-0.54931640625,-0.1220703125,[0. 0. 0. 0. 0. 0. 0. 0. 0.],-0.02880859375,0.03515625,1.00341796875,[0. 0. 0. 0. 0. 0. 0. 0. 0.]
3.043889284133911,0.022263040766119957,0.00442044110968709,-0.4794987440109253,0.8772490620613098,[0. 0. 0. 0. 0. 0. 0. 0. 0.],0.1220703125,-0.79345703125,-0.18310546875,[0. 0. 0. 0. 0. 0. 0. 0. 0.],-0.029296875,0.03515625,1.00390625,[0. 0. 0. 0. 0. 0. 0. 0. 0.]
3.063159704208374,0.022266659885644913,0.004202528856694698,-0.4795208275318146,0.8772379159927368,[0. 0. 0. 0. 0. 0. 0. 0. 0.],0.06103515625,-0.732421875,-0.18310546875,[0. 0. 0. 0. 0. 0. 0. 0. 0.],-0.02880859375,0.03515625,1.00537109375,[0. 0. 0. 0. 0. 0. 0. 0. 0.]
3.0834054946899414,0.02238377183675766,0.0035031491424888372,-0.4795255959033966,0.877235472202301,[0. 0. 0. 0. 0. 0. 0. 0. 0.],-0.06103515625,-0.67138671875,-0.18310546875,[0. 0. 0. 0. 0. 0. 0. 0. 0.],-0.0283203125,0.0361328125,1.00390625,[0. 0. 0. 0. 0. 0. 0. 0. 0.]
3.1030404567718506,0.023241713643074036,0.005013126414269209,-0.47955960035324097,0.8771871328353882,[0. 0. 0. 0. 0. 0. 0. 0. 0.],-0.30517578125,-0.54931640625,-0.06103515625,[0. 0. 0. 0. 0. 0. 0. 0. 0.],-0.03076171875,0.0361328125,1.00341796875,[0. 0. 0. 0. 0. 0. 0. 0. 0.]
3.1234142780303955,0.022161085158586502,0.00470992736518383,-0.47960931062698364,0.8771896362304688,[0. 0. 0. 0. 0. 0. 0. 0. 0.],-0.244140625,-0.54931640625,-0.1220703125,[0. 0. 0. 0. 0. 0. 0. 0. 0.],-0.02978515625,0.0341796875,1.00537109375,[0. 0. 0. 0. 0. 0. 0. 0. 0.]
3.1381819248199463,0.022849468514323235,0.0040907789953053,-0.4796193242073059,0.8771695494651794,[0. 0. 0. 0. 0. 0. 0. 0. 0.],0.30517578125,-0.6103515625,-0.1220703125,[0. 0. 0. 0. 0. 0. 0. 0. 0.],-0.029296875,0.03662109375,1.00439453125,[0. 0. 0. 0. 0. 0. 0. 0. 0.]
3.1634082794189453,0.022796088829636574,0.0043344334699213505,-0.479644238948822,0.8771562576293945,[0. 0. 0. 0. 0. 0. 0. 0. 0.],-0.06103515625,-0.91552734375,-0.18310546875,[0. 0. 0. 0. 0. 0. 0. 0. 0.],-0.02978515625,0.0361328125,1.005859375,[0. 0. 0. 0. 0. 0. 0. 0. 0.]
3.1850059032440186,0.023291464895009995,0.004376438912004232,-0.4796518087387085,0.8771389126777649,[0. 0. 0. 0. 0. 0. 0. 0. 0.],-0.3662109375,-0.732421875,-0.1220703125,[0. 0. 0. 0. 0. 0. 0. 0. 0.],-0.0302734375,0.03662109375,1.0029296875,[0. 0. 0. 0. 0. 0. 0. 0. 0.]
3.2039990425109863,0.023156294599175453,0.00420578895136714,-0.47967496514320374,0.8771305680274963,[0. 0. 0. 0. 0. 0. 0. 0. 0.],-0.18310546875,-0.3662109375,-0.06103515625,[0. 0. 0. 0. 0. 0. 0. 0. 0.],-0.02978515625,0.037109375,1.00390625,[0. 0. 0. 0. 0. 0. 0. 0. 0.]
3.2230141162872314,0.02234586700797081,0.0050250994972884655,-0.47972413897514343,0.8771203756332397,[0. 0. 0. 0. 0. 0. 0. 0. 0.],0.244140625,-0.48828125,0.0,[0. 0. 0. 0. 0. 0. 0. 0. 0.],-0.0302734375,0.03515625,1.00390625,[0. 0. 0. 0. 0. 0. 0. 0. 0.]
3.2430098056793213,0.0215185284614563,0.004601042717695236,-0.479755163192749,0.8771264553070068,[0. 0. 0. 0. 0. 0. 0. 0. 0.],0.0,-0.9765625,-0.30517578125,[0. 0. 0. 0. 0. 0. 0. 0. 0.],-0.02880859375,0.033203125,1.00390625,[0. 0. 0. 0. 0. 0. 0. 0. 0.]
3.26302433013916,0.0224005077034235,0.004469121340662241,-0.479763925075531,0.8771002888679504,[0. 0. 0. 0. 0. 0. 0. 0. 0.],-0.244140625,-0.91552734375,-0.30517578125,[0. 0. 0. 0. 0. 0. 0. 0. 0.],-0.029296875,0.03466796875,1.00390625,[0. 0. 0. 0. 0. 0. 0. 0. 0.]
3.278244733810425,0.023161068558692932,0.0046618334017694,-0.4797839820384979,0.8770685791969299,[0. 0. 0. 0. 0. 0. 0. 0. 0.],0.0,-0.3662109375,-0.18310546875,[0. 0. 0. 0. 0. 0. 0. 0. 0.],-0.03076171875,0.03662109375,1.00341796875,[0. 0. 0. 0. 0. 0. 0. 0. 0.]
3.3031740188598633,0.023496558889746666,0.005384482443332672,-0.47981131076812744,0.8770405054092407,[0. 0. 0. 0. 0. 0. 0. 0. 0.],-0.06103515625,-0.1220703125,0.0,[0. 0. 0. 0. 0. 0. 0. 0. 0.],-0.0322265625,0.0361328125,1.00244140625,[0. 0. 0. 0. 0. 0. 0. 0. 0.]
3.3228273391723633,0.02257586270570755,0.003914868459105492,-0.4798395335674286,0.8770570158958435,[0. 0. 0. 0. 0. 0. 0. 0. 0.],-0.18310546875,-0.732421875,-0.06103515625,[0. 0. 0. 0. 0. 0. 0. 0. 0.],-0.029296875,0.03564453125,1.00439453125,[0. 0. 0. 0. 0. 0. 0. 0. 0.]
3.3430566787719727,0.02295892871916294,0.004552260506898165,-0.4798749089241028,0.8770246505737305,[0. 0. 0. 0. 0. 0. 0. 0. 0.],0.0,-1.03759765625,-0.18310546875,[0. 0. 0. 0. 0. 0. 0. 0. 0.],-0.0302734375,0.0361328125,1.0048828125,[0. 0. 0. 0. 0. 0. 0. 0. 0.]
3.362999200820923,0.023742901161313057,0.004047601018100977,-0.47987625002861023,0.8770055174827576,[0. 0. 0. 0. 0. 0. 0. 0. 0.],0.18310546875,-0.48828125,-0.244140625,[0. 0. 0. 0. 0. 0. 0. 0. 0.],-0.02978515625,0.03759765625,1.00341796875,[0. 0. 0. 0. 0. 0. 0. 0. 0.]
3.3830511569976807,0.02284369058907032,0.0043263803236186504,-0.4799211025238037,0.8770034909248352,[0. 0. 0. 0. 0. 0. 0. 0. 0.],-0.244140625,-0.42724609375,-0.18310546875,[0. 0. 0. 0. 0. 0. 0. 0. 0.],-0.02978515625,0.0361328125,1.0068359375,[0. 0. 0. 0. 0. 0. 0. 0. 0.]
3.399322986602783,0.02309325896203518,0.0038226258475333452,-0.47995227575302124,0.8769822716712952,[0. 0. 0. 0. 0. 0. 0. 0. 0.],-0.244140625,-0.6103515625,-0.1220703125,[0. 0. 0. 0. 0. 0. 0. 0. 0.],-0.029296875,0.037109375,1.0048828125,[0. 0. 0. 0. 0. 0. 0. 0. 0.]
3.4240965843200684,0.022202495485544205,0.00416363961994648,-0.4800025224685669,0.8769763112068176,[0. 0. 0. 0. 0. 0. 0. 0. 0.],0.06103515625,-0.6103515625,0.0,[0. 0. 0. 0. 0. 0. 0. 0. 0.],-0.0283203125,0.03466796875,1.00390625,[0. 0. 0. 0. 0. 0. 0. 0. 0.]
3.443525791168213,0.02312544919550419,0.0038696457631886005,-0.48001599311828613,0.8769464492797852,[0. 0. 0. 0. 0. 0. 0. 0. 0.],0.244140625,-0.8544921875,-0.3662109375,[0. 0. 0. 0. 0. 0. 0. 0. 0.],-0.029296875,0.037109375,1.0068359375,[0. 0. 0. 0. 0. 0. 0. 0. 0.]
3.4633665084838867,0.022670233622193336,0.004442999605089426,-0.4800542891025543,0.8769346475601196,[0. 0. 0. 0. 0. 0. 0. 0. 0.],-0.48828125,-0.91552734375,-0.244140625,[0. 0. 0. 0. 0. 0. 0. 0. 0.],-0.02978515625,0.03564453125,1.00390625,[0. 0. 0. 0. 0. 0. 0. 0. 0.]
3.483456611633301,0.023334721103310585,0.004345203284174204,-0.48007357120513916,0.8769070506095886,[0. 0. 0. 0. 0. 0. 0. 0. 0.],-0.30517578125,-0.42724609375,-0.06103515625,[0. 0. 0. 0. 0. 0. 0. 0. 0.],-0.0302734375,0.037109375,1.00244140625,[0. 0. 0. 0. 0. 0. 0. 0. 0.]
3.5029919147491455,0.022710246965289116,0.004676301497966051,-0.4801097810268402,0.8769019842147827,[0. 0. 0. 0. 0. 0. 0. 0. 0.],0.0,-0.30517578125,0.0,[0. 0. 0. 0. 0. 0. 0. 0. 0.],-0.02978515625,0.0361328125,1.00537109375,[0. 0. 0. 0. 0. 0. 0. 0. 0.]
3.520986795425415,0.022846728563308716,0.004861597903072834,-0.48014020919799805,0.8768807649612427,[0. 0. 0. 0. 0. 0. 0. 0. 0.],0.0,-0.48828125,-0.06103515625,[0. 0. 0. 0. 0. 0. 0. 0. 0.],-0.03076171875,0.03564453125,1.00390625,[0. 0. 0. 0. 0. 0. 0. 0. 0.]
3.54335618019104,0.02183179184794426,0.004570517223328352,-0.4801844656467438,0.8768839836120605,[0. 0. 0. 0. 0. 0. 0. 0. 0.],-0.06103515625,-0.91552734375,-0.1220703125,[0. 0. 0. 0. 0. 0. 0. 0. 0.],-0.029296875,0.0341796875,1.00537109375,[0. 0. 0. 0. 0. 0. 0. 0. 0.]
3.559512138366699,0.02345648780465126,0.004188180435448885,-0.48018667101860046,0.8768426775932312,[0. 0. 0. 0. 0. 0. 0. 0. 0.],-0.06103515625,-0.8544921875,-0.30517578125,[0. 0. 0. 0. 0. 0. 0. 0. 0.],-0.0302734375,0.03759765625,1.00244140625,[0. 0. 0. 0. 0. 0. 0. 0. 0.]
3.5825369358062744,0.022742360830307007,0.0035728602670133114,-0.48020461201667786,0.8768543601036072,[0. 0. 0. 0. 0. 0. 0. 0. 0.],-0.06103515625,-0.42724609375,-0.18310546875,[0. 0. 0. 0. 0. 0. 0. 0. 0.],-0.02783203125,0.03662109375,1.00244140625,[0. 0. 0. 0. 0. 0. 0. 0. 0.]
3.6033425331115723,0.02282259799540043,0.003246248932555318,-0.48022228479385376,0.8768438100814819,[0. 0. 0. 0. 0. 0. 0. 0. 0.],-0.3662109375,-0.48828125,-0.244140625,[0. 0. 0. 0. 0. 0. 0. 0. 0.],-0.0283203125,0.03759765625,1.00439453125,[0. 0. 0. 0. 0. 0. 0. 0. 0.]
3.624070644378662,0.02200533263385296,0.0035525939892977476,-0.4802670478820801,0.8768390417098999,[0. 0. 0. 0. 0. 0. 0. 0. 0.],0.0,-0.6103515625,0.1220703125,[0. 0. 0. 0. 0. 0. 0. 0. 0.],-0.02783203125,0.03564453125,1.00537109375,[0. 0. 0. 0. 0. 0. 0. 0. 0.]
3.643246650695801,0.02160579152405262,0.0038877392653375864,-0.4803118109703064,0.8768230676651001,[0. 0. 0. 0. 0. 0. 0. 0. 0.],0.30517578125,-0.6103515625,-0.30517578125,[0. 0. 0. 0. 0. 0. 0. 0. 0.],-0.02783203125,0.03466796875,1.0048828125,[0. 0. 0. 0. 0. 0. 0. 0. 0.]
3.663532018661499,0.022395560517907143,0.004332915414124727,-0.48033440113067627,0.8767887949943542,[0. 0. 0. 0. 0. 0. 0. 0. 0.],-0.1220703125,-0.91552734375,-0.18310546875,[0. 0. 0. 0. 0. 0. 0. 0. 0.],-0.029296875,0.03466796875,1.00537109375,[0. 0. 0. 0. 0. 0. 0. 0. 0.]
3.6835248470306396,0.022725077345967293,0.0044060517102479935,-0.48036202788352966,0.8767648339271545,[0. 0. 0. 0. 0. 0. 0. 0. 0.],-0.244140625,-0.732421875,-0.244140625,[0. 0. 0. 0. 0. 0. 0. 0. 0.],-0.02978515625,0.0361328125,1.00390625,[0. 0. 0. 0. 0. 0. 0. 0. 0.]
3.7037129402160645,0.02305387333035469,0.003666885197162628,-0.4803762137889862,0.8767518997192383,[0. 0. 0. 0. 0. 0. 0. 0. 0.],-0.18310546875,-0.54931640625,-0.18310546875,[0. 0. 0. 0. 0. 0. 0. 0. 0.],-0.02880859375,0.037109375,1.00390625,[0. 0. 0. 0. 0. 0. 0. 0. 0.]
3.718909978866577,0.023125318810343742,0.004712601657956839,-0.48041531443595886,0.8767236471176147,[0. 0. 0. 0. 0. 0. 0. 0. 0.],0.3662109375,-0.54931640625,0.0,[0. 0. 0. 0. 0. 0. 0. 0. 0.],-0.03076171875,0.0361328125,1.00341796875,[0. 0. 0. 0. 0. 0. 0. 0. 0.]
3.7433857917785645,0.022779133170843124,0.00437246635556221,-0.48043593764305115,0.8767231106758118,[0. 0. 0. 0. 0. 0. 0. 0. 0.],0.0,-0.91552734375,-0.244140625,[0. 0. 0. 0. 0. 0. 0. 0. 0.],-0.02978515625,0.0361328125,1.00439453125,[0. 0. 0. 0. 0. 0. 0. 0. 0.]
3.7630062103271484,0.022645428776741028,0.004016903229057789,-0.4804627597332001,0.8767135739326477,[0. 0. 0. 0. 0. 0. 0. 0. 0.],-0.30517578125,-1.0986328125,-0.3662109375,[0. 0. 0. 0. 0. 0. 0. 0. 0.],-0.029296875,0.0361328125,1.0048828125,[0. 0. 0. 0. 0. 0. 0. 0. 0.]
3.783562421798706,0.02362734079360962,0.00420951284468174,-0.48047029972076416,0.8766825199127197,[0. 0. 0. 0. 0. 0. 0. 0. 0.],-0.1220703125,-0.3662109375,-0.1220703125,[0. 0. 0. 0. 0. 0. 0. 0. 0.],-0.0302734375,0.03759765625,1.00390625,[0. 0. 0. 0. 0. 0. 0. 0. 0.]
3.8033080101013184,0.023100731894373894,0.004020783584564924,-0.4804992079734802,0.8766816854476929,[0. 0. 0. 0. 0. 0. 0. 0. 0.],0.0,-0.30517578125,-0.1220703125,[0. 0. 0. 0. 0. 0. 0. 0. 0.],-0.02978515625,0.037109375,1.0048828125,[0. 0. 0. 0. 0. 0. 0. 0. 0.]
3.823068141937256,0.023023217916488647,0.004138062708079815,-0.4805339276790619,0.8766642212867737,[0. 0. 0. 0. 0. 0. 0. 0. 0.],-0.18310546875,-0.9765625,-0.1220703125,[0. 0. 0. 0. 0. 0. 0. 0. 0.],-0.02880859375,0.03662109375,1.00439453125,[0. 0. 0. 0. 0. 0. 0. 0. 0.]
3.8439152240753174,0.02249697595834732,0.003530004993081093,-0.48055601119995117,0.8766683340072632,[0. 0. 0. 0. 0. 0. 0. 0. 0.],-0.18310546875,-0.9765625,-0.18310546875,[0. 0. 0. 0. 0. 0. 0. 0. 0.],-0.02880859375,0.03515625,1.0068359375,[0. 0. 0. 0. 0. 0. 0. 0. 0.]
3.858309745788574,0.022722067311406136,0.0036542725283652544,-0.4805496037006378,0.8766655921936035,[0. 0. 0. 0. 0. 0. 0. 0. 0.],-0.06103515625,-0.244140625,0.0,[0. 0. 0. 0. 0. 0. 0. 0. 0.],-0.0283203125,0.03662109375,1.00537109375,[0. 0. 0. 0. 0. 0. 0. 0. 0.]
3.882910966873169,0.022526567801833153,0.0040769390761852264,-0.48055604100227356,0.8766651749610901,[0. 0. 0. 0. 0. 0. 0. 0. 0.],-0.18310546875,-0.48828125,0.0,[0. 0. 0. 0. 0. 0. 0. 0. 0.],-0.02978515625,0.03564453125,1.00341796875,[0. 0. 0. 0. 0. 0. 0. 0. 0.]
3.9034430980682373,0.022166511043906212,0.004443228244781494,-0.4805748164653778,0.8766623139381409,[0. 0. 0. 0. 0. 0. 0. 0. 0.],-0.30517578125,-0.30517578125,-0.06103515625,[0. 0. 0. 0. 0. 0. 0. 0. 0.],-0.029296875,0.03515625,1.00439453125,[0. 0. 0. 0. 0. 0. 0. 0. 0.]
3.9236533641815186,0.022208988666534424,0.005452481564134359,-0.48064276576042175,0.8766183257102966,[0. 0. 0. 0. 0. 0. 0. 0. 0.],-0.06103515625,-0.67138671875,-0.30517578125,[0. 0. 0. 0. 0. 0. 0. 0. 0.],-0.03125,0.03466796875,1.005859375,[0. 0. 0. 0. 0. 0. 0. 0. 0.]
3.9434142112731934,0.022652678191661835,0.004414775408804417,-0.4806455373764038,0.8766112327575684,[0. 0. 0. 0. 0. 0. 0. 0. 0.],0.06103515625,-0.79345703125,-0.1220703125,[0. 0. 0. 0. 0. 0. 0. 0. 0.],-0.02978515625,0.03564453125,1.00390625,[0. 0. 0. 0. 0. 0. 0. 0. 0.]
3.9640865325927734,0.022047581151127815,0.002683080965653062,-0.4806613326072693,0.8766250610351562,[0. 0. 0. 0. 0. 0. 0. 0. 0.],-0.06103515625,-0.91552734375,-0.3662109375,[0. 0. 0. 0. 0. 0. 0. 0. 0.],-0.02587890625,0.0361328125,1.00244140625,[0. 0. 0. 0. 0. 0. 0. 0. 0.]
3.9833998680114746,0.022375380620360374,0.0030671418644487858,-0.48068299889564514,0.8766035437583923,[0. 0. 0. 0. 0. 0. 0. 0. 0.],-0.30517578125,-0.67138671875,-0.30517578125,[0. 0. 0. 0. 0. 0. 0. 0. 0.],-0.02734375,0.03662109375,1.00537109375,[0. 0. 0. 0. 0. 0. 0. 0. 0.]
4.003769397735596,0.02348301000893116,0.004433210473507643,-0.4806973934173584,0.8765608668327332,[0. 0. 0. 0. 0. 0. 0. 0. 0.],0.0,-0.1220703125,0.30517578125,[0. 0. 0. 0. 0. 0. 0. 0. 0.],-0.03466796875,0.0380859375,1.00537109375,[0. 0. 0. 0. 0. 0. 0. 0. 0.]
4.023320913314819,0.023611638695001602,0.004318963270634413,-0.48065805435180664,0.8765795230865479,[0. 0. 0. 0. 0. 0. 0. 0. 0.],-0.1220703125,0.06103515625,0.1220703125,[0. 0. 0. 0. 0. 0. 0. 0. 0.],-0.0283203125,0.0380859375,1.00244140625,[0. 0. 0. 0. 0. 0. 0. 0. 0.]
4.0450286865234375,0.02288770116865635,0.0026513037737458944,-0.4806514382362366,0.8766090273857117,[0. 0. 0. 0. 0. 0. 0. 0. 0.],-0.06103515625,0.6103515625,-0.42724609375,[0. 0. 0. 0. 0. 0. 0. 0. 0.],-0.01953125,0.03759765625,1.00390625,[0. 0. 0. 0. 0. 0. 0. 0. 0.]
4.06063437461853,0.023645734414458275,0.0020786174573004246,-0.48098307847976685,0.8764085173606873,[0. 0. 0. 0. 0. 0. 0. 0. 0.],0.1220703125,1.708984375,-4.0283203125,[0. 0. 0. 0. 0. 0. 0. 0. 0.],-0.02978515625,0.0419921875,1.0009765625,[0. 0. 0. 0. 0. 0. 0. 0. 0.]
4.080803871154785,0.024927759543061256,0.003775441087782383,-0.481777161359787,0.8759309649467468,[0. 0. 0. 0. 0. 0. 0. 0. 0.],-0.8544921875,1.0986328125,-5.31005859375,[0. 0. 0. 0. 0. 0. 0. 0. 0.],-0.05810546875,0.0419921875,0.99169921875,[0. 0. 0. 0. 0. 0. 0. 0. 0.]
4.0984461307525635,0.02530304715037346,0.0059641520492732525,-0.482474684715271,0.8755240440368652,[0. 0. 0. 0. 0. 0. 0. 0. 0.],-1.0986328125,2.44140625,-4.21142578125,[0. 0. 0. 0. 0. 0. 0. 0. 0.],-0.04638671875,0.0302734375,1.0048828125,[0. 0. 0. 0. 0. 0. 0. 0. 0.]
4.1186182498931885,0.023871295154094696,0.005668511614203453,-0.48322606086730957,0.8751518726348877,[0. 0. 0. 0. 0. 0. 0. 0. 0.],-0.67138671875,1.28173828125,-5.67626953125,[0. 0. 0. 0. 0. 0. 0. 0. 0.],-0.005859375,0.033203125,1.00537109375,[0. 0. 0. 0. 0. 0. 0. 0. 0.]
4.143312692642212,0.022946005687117577,0.004532191436737776,-0.48411571979522705,0.874691367149353,[0. 0. 0. 0. 0. 0. 0. 0. 0.],-0.79345703125,3.0517578125,-5.79833984375,[0. 0. 0. 0. 0. 0. 0. 0. 0.],-0.0146484375,0.0341796875,1.00048828125,[0. 0. 0. 0. 0. 0. 0. 0. 0.]
4.163731336593628,0.022622637450695038,0.006239020731300116,-0.484860897064209,0.8742763996124268,[0. 0. 0. 0. 0. 0. 0. 0. 0.],-1.89208984375,1.708984375,-4.45556640625,[0. 0. 0. 0. 0. 0. 0. 0. 0.],-0.046875,0.02490234375,1.00341796875,[0. 0. 0. 0. 0. 0. 0. 0. 0.]
4.191951274871826,0.01879437267780304,0.00946524553000927,-0.4856518805027008,0.8738991022109985,[0. 0. 0. 0. 0. 0. 0. 0. 0.],-6.28662109375,-2.3193359375,-6.53076171875,[0. 0. 0. 0. 0. 0. 0. 0. 0.],-0.01904296875,-0.2041015625,1.0068359375,[0. 0. 0. 0. 0. 0. 0. 0. 0.]
4.19870138168335,0.01755574904382229,0.01055519375950098,-0.4859054386615753,0.8737713098526001,[0. 0. 0. 0. 0. 0. 0. 0. 0.],-8.85009765625,8.60595703125,-2.50244140625,[0. 0. 0. 0. 0. 0. 0. 0. 0.],-0.013671875,-0.2529296875,1.0185546875,[0. 0. 0. 0. 0. 0. 0. 0. 0.]
4.2236058712005615,0.01579834707081318,0.01249203085899353,-0.4869481325149536,0.8731987476348877,[0. 0. 0. 0. 0. 0. 0. 0. 0.],-0.1220703125,4.5166015625,-7.080078125,[0. 0. 0. 0. 0. 0. 0. 0. 0.],-0.0390625,-0.24755859375,1.1083984375,[0. 0. 0. 0. 0. 0. 0. 0. 0.]
4.23798942565918,0.014136671088635921,0.014173615723848343,-0.48858022689819336,0.8722892999649048,[0. 0. 0. 0. 0. 0. 0. 0. 0.],-5.859375,4.638671875,-11.77978515625,[0. 0. 0. 0. 0. 0. 0. 0. 0.],-0.0546875,-0.22607421875,0.9775390625,[0. 0. 0. 0. 0. 0. 0. 0. 0.]
4.264782428741455,0.012577791698276997,0.016478512436151505,-0.49091440439224243,0.8709612488746643,[0. 0. 0. 0. 0. 0. 0. 0. 0.],-3.72314453125,8.36181640625,-17.63916015625,[0. 0. 0. 0. 0. 0. 0. 0. 0.],-0.02294921875,-0.283203125,1.013671875,[0. 0. 0. 0. 0. 0. 0. 0. 0.]
4.283583402633667,0.011239519342780113,0.018477115780115128,-0.4939457178115845,0.8692237138748169,[0. 0. 0. 0. 0. 0. 0. 0. 0.],-3.23486328125,5.06591796875,-20.751953125,[0. 0. 0. 0. 0. 0. 0. 0. 0.],-0.0849609375,-0.24365234375,0.9541015625,[0. 0. 0. 0. 0. 0. 0. 0. 0.]
4.303335905075073,0.009587269276380539,0.02078108675777912,-0.4971919357776642,0.8673387765884399,[0. 0. 0. 0. 0. 0. 0. 0. 0.],-4.33349609375,5.9814453125,-21.728515625,[0. 0. 0. 0. 0. 0. 0. 0. 0.],-0.10986328125,-0.22607421875,0.953125,[0. 0. 0. 0. 0. 0. 0. 0. 0.]
4.326897859573364,0.0082970280200243,0.022713107988238335,-0.5006542801856995,0.8653096556663513,[0. 0. 0. 0. 0. 0. 0. 0. 0.],-0.732421875,2.8076171875,-23.0712890625,[0. 0. 0. 0. 0. 0. 0. 0. 0.],-0.1181640625,-0.2294921875,1.02783203125,[0. 0. 0. 0. 0. 0. 0. 0. 0.]
4.3435070514678955,0.00751214986667037,0.024845635518431664,-0.5043206810951233,0.8631262183189392,[0. 0. 0. 0. 0. 0. 0. 0. 0.],0.732421875,6.16455078125,-26.0009765625,[0. 0. 0. 0. 0. 0. 0. 0. 0.],-0.0947265625,-0.248046875,1.0126953125,[0. 0. 0. 0. 0. 0. 0. 0. 0.]
4.3639514446258545,0.006406382191926241,0.025704076513648033,-0.5087314248085022,0.8605176210403442,[0. 0. 0. 0. 0. 0. 0. 0. 0.],2.685546875,-0.67138671875,-29.47998046875,[0. 0. 0. 0. 0. 0. 0. 0. 0.],-0.09130859375,-0.22412109375,1.00732421875,[0. 0. 0. 0. 0. 0. 0. 0. 0.]
4.381608247756958,0.004855471197515726,0.02695312350988388,-0.5146833062171936,0.856942892074585,[0. 0. 0. 0. 0. 0. 0. 0. 0.],0.1220703125,-0.79345703125,-32.71484375,[0. 0. 0. 0. 0. 0. 0. 0. 0.],-0.11328125,-0.158203125,1.01953125,[0. 0. 0. 0. 0. 0. 0. 0. 0.]
4.403073310852051,0.0040573012083768845,0.02808418497443199,-0.5183725357055664,0.8546839952468872,[0. 0. 0. 0. 0. 0. 0. 0. 0.],-1.220703125,0.48828125,-33.63037109375,[0. 0. 0. 0. 0. 0. 0. 0. 0.],-0.1103515625,-0.1630859375,1.00732421875,[0. 0. 0. 0. 0. 0. 0. 0. 0.]
4.423320770263672,0.0029066153801977634,0.029784895479679108,-0.5235428214073181,0.8514736890792847,[0. 0. 0. 0. 0. 0. 0. 0. 0.],0.67138671875,2.25830078125,-35.888671875,[0. 0. 0. 0. 0. 0. 0. 0. 0.],-0.09423828125,-0.21142578125,0.97802734375,[0. 0. 0. 0. 0. 0. 0. 0. 0.]
4.438838481903076,0.0018290223088115454,0.030570708215236664,-0.5291382670402527,0.8479828238487244,[0. 0. 0. 0. 0. 0. 0. 0. 0.],1.64794921875,4.39453125,-37.04833984375,[0. 0. 0. 0. 0. 0. 0. 0. 0.],-0.08740234375,-0.16650390625,0.98486328125,[0. 0. 0. 0. 0. 0. 0. 0. 0.]
4.458510398864746,0.0013251734199002385,0.031832970678806305,-0.5346596240997314,0.8444666862487793,[0. 0. 0. 0. 0. 0. 0. 0. 0.],3.662109375,1.03759765625,-35.7666015625,[0. 0. 0. 0. 0. 0. 0. 0. 0.],-0.1435546875,-0.15966796875,0.93408203125,[0. 0. 0. 0. 0. 0. 0. 0. 0.]
4.483860492706299,0.00041295119444839656,0.03354346752166748,-0.5402452349662781,0.8408387303352356,[0. 0. 0. 0. 0. 0. 0. 0. 0.],-0.18310546875,-2.13623046875,-40.8935546875,[0. 0. 0. 0. 0. 0. 0. 0. 0.],-0.1044921875,-0.16162109375,1.0341796875,[0. 0. 0. 0. 0. 0. 0. 0. 0.]
4.500080108642578,-0.0005431426106952131,0.034113530069589615,-0.5466574430465698,0.8366610407829285,[0. 0. 0. 0. 0. 0. 0. 0. 0.],3.90625,0.67138671875,-46.93603515625,[0. 0. 0. 0. 0. 0. 0. 0. 0.],-0.02783203125,-0.11572265625,1.1376953125,[0. 0. 0. 0. 0. 0. 0. 0. 0.]
4.523536443710327,-0.0011035691713914275,0.03490046039223671,-0.5535148978233337,0.8321070075035095,[0. 0. 0. 0. 0. 0. 0. 0. 0.],2.13623046875,2.25830078125,-47.4853515625,[0. 0. 0. 0. 0. 0. 0. 0. 0.],-0.10302734375,-0.09326171875,1.013671875,[0. 0. 0. 0. 0. 0. 0. 0. 0.]
4.53903865814209,-0.0006543815834447742,0.037056807428598404,-0.5602699518203735,0.8274805545806885,[0. 0. 0. 0. 0. 0. 0. 0. 0.],0.8544921875,7.568359375,-46.32568359375,[0. 0. 0. 0. 0. 0. 0. 0. 0.],-0.15185546875,-0.09423828125,0.85595703125,[0. 0. 0. 0. 0. 0. 0. 0. 0.]
4.5640034675598145,-0.0002831447054632008,0.03931250795722008,-0.5668978691101074,0.8228495717048645,[0. 0. 0. 0. 0. 0. 0. 0. 0.],0.91552734375,2.5634765625,-45.71533203125,[0. 0. 0. 0. 0. 0. 0. 0. 0.],-0.1484375,-0.10302734375,0.89208984375,[0. 0. 0. 0. 0. 0. 0. 0. 0.]
4.579899787902832,-0.0002537198306526989,0.040543824434280396,-0.5737146735191345,0.8180512189865112,[0. 0. 0. 0. 0. 0. 0. 0. 0.],0.6103515625,-2.50244140625,-49.31640625,[0. 0. 0. 0. 0. 0. 0. 0. 0.],-0.11962890625,-0.0595703125,1.00439453125,[0. 0. 0. 0. 0. 0. 0. 0. 0.]
4.603219509124756,0.00028863962506875396,0.041011035442352295,-0.5810099244117737,0.8128625750541687,[0. 0. 0. 0. 0. 0. 0. 0. 0.],2.197265625,0.91552734375,-53.77197265625,[0. 0. 0. 0. 0. 0. 0. 0. 0.],-0.0712890625,-0.05029296875,1.12890625,[0. 0. 0. 0. 0. 0. 0. 0. 0.]
4.623767614364624,0.0013209804892539978,0.040898796170949936,-0.5887284278869629,0.807294487953186,[0. 0. 0. 0. 0. 0. 0. 0. 0.],1.708984375,-2.5634765625,-55.60302734375,[0. 0. 0. 0. 0. 0. 0. 0. 0.],-0.12451171875,-0.04296875,1.0263671875,[0. 0. 0. 0. 0. 0. 0. 0. 0.]
4.643750429153442,0.0019655777141451836,0.04178785905241966,-0.5962952971458435,0.801674485206604,[0. 0. 0. 0. 0. 0. 0. 0. 0.],1.3427734375,-2.3193359375,-54.931640625,[0. 0. 0. 0. 0. 0. 0. 0. 0.],-0.162109375,-0.05517578125,0.94775390625,[0. 0. 0. 0. 0. 0. 0. 0. 0.]
4.6676225662231445,0.003663561772555113,0.04419942945241928,-0.6058165431022644,0.7943673133850098,[0. 0. 0. 0. 0. 0. 0. 0. 0.],-3.7841796875,8.7890625,-55.908203125,[0. 0. 0. 0. 0. 0. 0. 0. 0.],-0.078125,-0.01806640625,0.9052734375,[0. 0. 0. 0. 0. 0. 0. 0. 0.]
4.683645248413086,0.003944444935768843,0.04496597871184349,-0.6114109754562378,0.7900248169898987,[0. 0. 0. 0. 0. 0. 0. 0. 0.],-2.3193359375,-8.23974609375,-54.87060546875,[0. 0. 0. 0. 0. 0. 0. 0. 0.],-0.21728515625,-0.009765625,0.9658203125,[0. 0. 0. 0. 0. 0. 0. 0. 0.]
4.705647945404053,0.004706949461251497,0.045182570815086365,-0.6193000078201294,0.783839225769043,[0. 0. 0. 0. 0. 0. 0. 0. 0.],7.75146484375,8.6669921875,-60.36376953125,[0. 0. 0. 0. 0. 0. 0. 0. 0.],-0.04931640625,-0.0390625,1.13427734375,[0. 0. 0. 0. 0. 0. 0. 0. 0.]
4.723097324371338,0.006275253836065531,0.04314514622092247,-0.627892017364502,0.7770784497261047,[0. 0. 0. 0. 0. 0. 0. 0. 0.],15.93017578125,1.77001953125,-61.21826171875,[0. 0. 0. 0. 0. 0. 0. 0. 0.],-0.06982421875,-0.04150390625,1.15380859375,[0. 0. 0. 0. 0. 0. 0. 0. 0.]
4.740009784698486,0.008026751689612865,0.042784858494997025,-0.6360283493995667,0.7704368829727173,[0. 0. 0. 0. 0. 0. 0. 0. 0.],0.54931640625,0.8544921875,-59.38720703125,[0. 0. 0. 0. 0. 0. 0. 0. 0.],-0.19873046875,0.0517578125,0.93115234375,[0. 0. 0. 0. 0. 0. 0. 0. 0.]
4.764035701751709,0.009357603266835213,0.043208688497543335,-0.6442006826400757,0.7635777592658997,[0. 0. 0. 0. 0. 0. 0. 0. 0.],0.732421875,3.47900390625,-63.41552734375,[0. 0. 0. 0. 0. 0. 0. 0. 0.],-0.11474609375,0.03466796875,0.9736328125,[0. 0. 0. 0. 0. 0. 0. 0. 0.]
4.783104419708252,0.011410153470933437,0.04405897110700607,-0.6526166796684265,0.7563201189041138,[0. 0. 0. 0. 0. 0. 0. 0. 0.],2.685546875,5.859375,-64.3310546875,[0. 0. 0. 0. 0. 0. 0. 0. 0.],-0.1279296875,-0.01171875,0.994140625,[0. 0. 0. 0. 0. 0. 0. 0. 0.]
4.803030252456665,0.013264945708215237,0.044849950820207596,-0.6609402298927307,0.7489796280860901,[0. 0. 0. 0. 0. 0. 0. 0. 0.],4.82177734375,-0.06103515625,-63.8427734375,[0. 0. 0. 0. 0. 0. 0. 0. 0.],-0.19677734375,-0.00634765625,0.982421875,[0. 0. 0. 0. 0. 0. 0. 0. 0.]
4.820534706115723,0.014998202212154865,0.04507312551140785,-0.6691191792488098,0.741635262966156,[0. 0. 0. 0. 0. 0. 0. 0. 0.],2.197265625,-0.8544921875,-64.3310546875,[0. 0. 0. 0. 0. 0. 0. 0. 0.],-0.16357421875,0.033203125,0.98681640625,[0. 0. 0. 0. 0. 0. 0. 0. 0.]
4.843839645385742,0.01618662290275097,0.044855665415525436,-0.6773039698600769,0.7341561913490295,[0. 0. 0. 0. 0. 0. 0. 0. 0.],4.08935546875,-4.82177734375,-64.453125,[0. 0. 0. 0. 0. 0. 0. 0. 0.],-0.17529296875,0.0068359375,1.03173828125,[0. 0. 0. 0. 0. 0. 0. 0. 0.]
4.863476514816284,0.017852013930678368,0.04493136331439018,-0.6854789853096008,0.7264853715896606,[0. 0. 0. 0. 0. 0. 0. 0. 0.],3.60107421875,2.0751953125,-64.697265625,[0. 0. 0. 0. 0. 0. 0. 0. 0.],-0.11669921875,0.0009765625,0.923828125,[0. 0. 0. 0. 0. 0. 0. 0. 0.]
4.882921934127808,0.019798416644334793,0.044413283467292786,-0.6938424110412598,0.7184833288192749,[0. 0. 0. 0. 0. 0. 0. 0. 0.],2.13623046875,5.55419921875,-68.115234375,[0. 0. 0. 0. 0. 0. 0. 0. 0.],-0.1005859375,0.033203125,1.05126953125,[0. 0. 0. 0. 0. 0. 0. 0. 0.]
4.9034812450408936,0.021595420315861702,0.04410771653056145,-0.702218234539032,0.7102659940719604,[0. 0. 0. 0. 0. 0. 0. 0. 0.],3.90625,-0.91552734375,-68.29833984375,[0. 0. 0. 0. 0. 0. 0. 0. 0.],-0.17041015625,0.021484375,1.12841796875,[0. 0. 0. 0. 0. 0. 0. 0. 0.]
4.923460006713867,0.022900085896253586,0.043681371957063675,-0.710650622844696,0.7018142938613892,[0. 0. 0. 0. 0. 0. 0. 0. 0.],3.7841796875,-2.74658203125,-68.78662109375,[0. 0. 0. 0. 0. 0. 0. 0. 0.],-0.162109375,0.02392578125,0.962890625,[0. 0. 0. 0. 0. 0. 0. 0. 0.]
4.94335675239563,0.023928767070174217,0.043865758925676346,-0.7189886569976807,0.6932232975959778,[0. 0. 0. 0. 0. 0. 0. 0. 0.],-1.0986328125,1.40380859375,-70.1904296875,[0. 0. 0. 0. 0. 0. 0. 0. 0.],-0.13427734375,0.0302734375,0.8701171875,[0. 0. 0. 0. 0. 0. 0. 0. 0.]
4.963523864746094,0.02506648562848568,0.045137837529182434,-0.7273158431053162,0.6843580603599548,[0. 0. 0. 0. 0. 0. 0. 0. 0.],-6.89697265625,3.90625,-69.7021484375,[0. 0. 0. 0. 0. 0. 0. 0. 0.],-0.158203125,0.03076171875,0.86376953125,[0. 0. 0. 0. 0. 0. 0. 0. 0.]
4.978651762008667,0.025255106389522552,0.046415623277425766,-0.7355273962020874,0.6754311323165894,[0. 0. 0. 0. 0. 0. 0. 0. 0.],-1.8310546875,2.74658203125,-70.6787109375,[0. 0. 0. 0. 0. 0. 0. 0. 0.],-0.19677734375,0.00830078125,1.076171875,[0. 0. 0. 0. 0. 0. 0. 0. 0.]
5.007742643356323,0.02759547531604767,0.0474107451736927,-0.7437111735343933,0.6662466526031494,[0. 0. 0. 0. 0. 0. 0. 0. 0.],6.4697265625,1.40380859375,-69.2138671875,[0. 0. 0. 0. 0. 0. 0. 0. 0.],-0.17626953125,-0.013671875,1.08984375,[0. 0. 0. 0. 0. 0. 0. 0. 0.]
5.026964902877808,0.027746351435780525,0.04665886610746384,-0.751712441444397,0.6572529673576355,[0. 0. 0. 0. 0. 0. 0. 0. 0.],-0.54931640625,-7.01904296875,-68.359375,[0. 0. 0. 0. 0. 0. 0. 0. 0.],-0.25048828125,0.05029296875,0.998046875,[0. 0. 0. 0. 0. 0. 0. 0. 0.]
5.044671058654785,0.02844727598130703,0.047119881957769394,-0.7593204379081726,0.6483849883079529,[0. 0. 0. 0. 0. 0. 0. 0. 0.],-4.39453125,0.732421875,-68.29833984375,[0. 0. 0. 0. 0. 0. 0. 0. 0.],-0.14501953125,0.064453125,1.068359375,[0. 0. 0. 0. 0. 0. 0. 0. 0.]
5.06355881690979,0.028964467346668243,0.047145288437604904,-0.7668458223342896,0.6394418478012085,[0. 0. 0. 0. 0. 0. 0. 0. 0.],3.662109375,-7.2021484375,-67.3828125,[0. 0. 0. 0. 0. 0. 0. 0. 0.],-0.20263671875,-0.009765625,0.99853515625,[0. 0. 0. 0. 0. 0. 0. 0. 0.]
5.087101459503174,0.030777564272284508,0.04609016701579094,-0.7761833071708679,0.628066897392273,[0. 0. 0. 0. 0. 0. 0. 0. 0.],8.72802734375,5.7373046875,-68.78662109375,[0. 0. 0. 0. 0. 0. 0. 0. 0.],-0.1044921875,0.03271484375,0.9970703125,[0. 0. 0. 0. 0. 0. 0. 0. 0.]
5.112237930297852,0.03279947489500046,0.04524274170398712,-0.7870640158653259,0.6143350601196289,[0. 0. 0. 0. 0. 0. 0. 0. 0.],0.54931640625,-2.25830078125,-65.97900390625,[0. 0. 0. 0. 0. 0. 0. 0. 0.],-0.20849609375,0.0537109375,1.0322265625,[0. 0. 0. 0. 0. 0. 0. 0. 0.]
5.131645917892456,0.033061910420656204,0.04533131420612335,-0.7888010740280151,0.6120823621749878,[0. 0. 0. 0. 0. 0. 0. 0. 0.],0.06103515625,-0.18310546875,-66.46728515625,[0. 0. 0. 0. 0. 0. 0. 0. 0.],-0.21240234375,0.044921875,1.0380859375,[0. 0. 0. 0. 0. 0. 0. 0. 0.]
5.14302659034729,0.035019103437662125,0.045679379254579544,-0.7957189083099365,0.6029250621795654,[0. 0. 0. 0. 0. 0. 0. 0. 0.],1.5869140625,8.30078125,-66.40625,[0. 0. 0. 0. 0. 0. 0. 0. 0.],-0.12646484375,0.0185546875,0.99853515625,[0. 0. 0. 0. 0. 0. 0. 0. 0.]
5.1639416217803955,0.03725079074501991,0.04569916054606438,-0.8042728304862976,0.5913282632827759,[0. 0. 0. 0. 0. 0. 0. 0. 0.],2.13623046875,-2.50244140625,-66.46728515625,[0. 0. 0. 0. 0. 0. 0. 0. 0.],-0.20947265625,0.03662109375,0.947265625,[0. 0. 0. 0. 0. 0. 0. 0. 0.]
5.185078382492065,0.038415323942899704,0.045566391199827194,-0.8093400001525879,0.5843087434768677,[0. 0. 0. 0. 0. 0. 0. 0. 0.],4.57763671875,0.0,-66.46728515625,[0. 0. 0. 0. 0. 0. 0. 0. 0.],-0.189453125,0.03271484375,1.03662109375,[0. 0. 0. 0. 0. 0. 0. 0. 0.]
5.2119410037994385,0.04051143303513527,0.043868813663721085,-0.8194490075111389,0.5700329542160034,[0. 0. 0. 0. 0. 0. 0. 0. 0.],4.45556640625,-0.91552734375,-67.0166015625,[0. 0. 0. 0. 0. 0. 0. 0. 0.],-0.16015625,0.03271484375,0.984375,[0. 0. 0. 0. 0. 0. 0. 0. 0.]
5.2243382930755615,0.04106222093105316,0.04351860657334328,-0.8227003216743469,0.5653178095817566,[0. 0. 0. 0. 0. 0. 0. 0. 0.],3.72314453125,-3.2958984375,-66.22314453125,[0. 0. 0. 0. 0. 0. 0. 0. 0.],-0.17529296875,0.03173828125,0.935546875,[0. 0. 0. 0. 0. 0. 0. 0. 0.]
5.244441747665405,0.04259056597948074,0.04354187846183777,-0.8307010531425476,0.5533769726753235,[0. 0. 0. 0. 0. 0. 0. 0. 0.],-4.39453125,5.2490234375,-66.46728515625,[0. 0. 0. 0. 0. 0. 0. 0. 0.],-0.10986328125,0.03759765625,0.876953125,[0. 0. 0. 0. 0. 0. 0. 0. 0.]
5.262986421585083,0.042943090200424194,0.04341758415102959,-0.8354235887527466,0.54620361328125,[0. 0. 0. 0. 0. 0. 0. 0. 0.],-1.8310546875,1.3427734375,-66.46728515625,[0. 0. 0. 0. 0. 0. 0. 0. 0.],-0.119140625,0.0283203125,1.05810546875,[0. 0. 0. 0. 0. 0. 0. 0. 0.]
5.2864015102386475,0.04291733354330063,0.04225432872772217,-0.8431383967399597,0.5343130230903625,[0. 0. 0. 0. 0. 0. 0. 0. 0.],8.056640625,6.53076171875,-62.80517578125,[0. 0. 0. 0. 0. 0. 0. 0. 0.],-0.091796875,-0.0263671875,1.08154296875,[0. 0. 0. 0. 0. 0. 0. 0. 0.]
5.303782939910889,0.0434078723192215,0.04138651117682457,-0.8471726179122925,0.5279217958450317,[0. 0. 0. 0. 0. 0. 0. 0. 0.],4.0283203125,-12.20703125,-55.2978515625,[0. 0. 0. 0. 0. 0. 0. 0. 0.],-0.19287109375,0.00146484375,0.9609375,[0. 0. 0. 0. 0. 0. 0. 0. 0.]
5.323371648788452,0.04340270161628723,0.041166458278894424,-0.8515313267707825,0.5208802223205566,[0. 0. 0. 0. 0. 0. 0. 0. 0.],-4.8828125,-2.197265625,-44.12841796875,[0. 0. 0. 0. 0. 0. 0. 0. 0.],-0.11669921875,0.03515625,0.9658203125,[0. 0. 0. 0. 0. 0. 0. 0. 0.]
5.344071626663208,0.04147717356681824,0.040082626044750214,-0.8548257946968079,0.515699565410614,[0. 0. 0. 0. 0. 0. 0. 0. 0.],-0.6103515625,-6.89697265625,-30.21240234375,[0. 0. 0. 0. 0. 0. 0. 0. 0.],-0.10546875,-0.0283203125,1.02099609375,[0. 0. 0. 0. 0. 0. 0. 0. 0.]
5.363032341003418,0.03914196789264679,0.03893551602959633,-0.856936514377594,0.5124566555023193,[0. 0. 0. 0. 0. 0. 0. 0. 0.],5.79833984375,-4.82177734375,-17.08984375,[0. 0. 0. 0. 0. 0. 0. 0. 0.],-0.076171875,-0.02978515625,0.99365234375,[0. 0. 0. 0. 0. 0. 0. 0. 0.]
5.384177923202515,0.037803616374731064,0.036535028368234634,-0.8581775426864624,0.5106539726257324,[0. 0. 0. 0. 0. 0. 0. 0. 0.],-4.69970703125,-2.8076171875,-9.521484375,[0. 0. 0. 0. 0. 0. 0. 0. 0.],-0.0634765625,0.04638671875,0.92529296875,[0. 0. 0. 0. 0. 0. 0. 0. 0.]
5.404267072677612,0.036909572780132294,0.035429585725069046,-0.8587426543235779,0.5098464488983154,[0. 0. 0. 0. 0. 0. 0. 0. 0.],-3.84521484375,-3.84521484375,-5.06591796875,[0. 0. 0. 0. 0. 0. 0. 0. 0.],-0.05224609375,0.029296875,1.04248046875,[0. 0. 0. 0. 0. 0. 0. 0. 0.]
5.423121929168701,0.03490343317389488,0.0326567068696022,-0.8592450618743896,0.5093263983726501,[0. 0. 0. 0. 0. 0. 0. 0. 0.],6.9580078125,-9.46044921875,-3.7841796875,[0. 0. 0. 0. 0. 0. 0. 0. 0.],-0.0751953125,-0.01806640625,1.09033203125,[0. 0. 0. 0. 0. 0. 0. 0. 0.]
5.443357467651367,0.03466254845261574,0.030572781339287758,-0.8596764206886292,0.508743941783905,[0. 0. 0. 0. 0. 0. 0. 0. 0.],2.01416015625,9.46044921875,-4.57763671875,[0. 0. 0. 0. 0. 0. 0. 0. 0.],0.013671875,0.0556640625,0.94287109375,[0. 0. 0. 0. 0. 0. 0. 0. 0.]
5.463177442550659,0.03511368855834007,0.029395410791039467,-0.8602070212364197,0.5078847408294678,[0. 0. 0. 0. 0. 0. 0. 0. 0.],0.54931640625,-0.42724609375,-5.55419921875,[0. 0. 0. 0. 0. 0. 0. 0. 0.],-0.02978515625,0.05859375,1.03759765625,[0. 0. 0. 0. 0. 0. 0. 0. 0.]
5.483171224594116,0.03535173460841179,0.028353944420814514,-0.8606497645378113,0.50717693567276,[0. 0. 0. 0. 0. 0. 0. 0. 0.],-3.84521484375,0.1220703125,-4.69970703125,[0. 0. 0. 0. 0. 0. 0. 0. 0.],-0.08544921875,0.06005859375,1.041015625,[0. 0. 0. 0. 0. 0. 0. 0. 0.]
5.503092527389526,0.03528789430856705,0.026591282337903976,-0.8611310124397278,0.5064594149589539,[0. 0. 0. 0. 0. 0. 0. 0. 0.],4.7607421875,-1.708984375,-5.2490234375,[0. 0. 0. 0. 0. 0. 0. 0. 0.],-0.056640625,0.0146484375,1.08935546875,[0. 0. 0. 0. 0. 0. 0. 0. 0.]
5.5302698612213135,0.035458385944366455,0.02381070889532566,-0.8617096543312073,0.5056010484695435,[0. 0. 0. 0. 0. 0. 0. 0. 0.],4.08935546875,-4.150390625,-5.43212890625,[0. 0. 0. 0. 0. 0. 0. 0. 0.],-0.0703125,0.03076171875,0.92041015625,[0. 0. 0. 0. 0. 0. 0. 0. 0.]
5.543521881103516,0.035079315304756165,0.022045399993658066,-0.8621315360069275,0.504987895488739,[0. 0. 0. 0. 0. 0. 0. 0. 0.],2.99072265625,1.03759765625,-6.04248046875,[0. 0. 0. 0. 0. 0. 0. 0. 0.],-0.01123046875,0.0263671875,0.943359375,[0. 0. 0. 0. 0. 0. 0. 0. 0.]
5.5634379386901855,0.0345194935798645,0.020651113241910934,-0.862673282623291,0.5041596293449402,[0. 0. 0. 0. 0. 0. 0. 0. 0.],-1.220703125,-3.7841796875,-5.859375,[0. 0. 0. 0. 0. 0. 0. 0. 0.],-0.04736328125,0.0439453125,0.9228515625,[0. 0. 0. 0. 0. 0. 0. 0. 0.]
5.5832507610321045,0.03408632427453995,0.019687149673700333,-0.8631507158279419,0.5034099817276001,[0. 0. 0. 0. 0. 0. 0. 0. 0.],-6.2255859375,3.7841796875,-6.591796875,[0. 0. 0. 0. 0. 0. 0. 0. 0.],-0.01904296875,0.05029296875,1.0166015625,[0. 0. 0. 0. 0. 0. 0. 0. 0.]
5.603228569030762,0.03445760905742645,0.019773827865719795,-0.8637456297874451,0.5023596286773682,[0. 0. 0. 0. 0. 0. 0. 0. 0.],3.47900390625,10.31494140625,-6.65283203125,[0. 0. 0. 0. 0. 0. 0. 0. 0.],0.025390625,0.00830078125,1.123046875,[0. 0. 0. 0. 0. 0. 0. 0. 0.]
5.623203992843628,0.034622903913259506,0.017672203481197357,-0.8643441200256348,0.5013961791992188,[0. 0. 0. 0. 0. 0. 0. 0. 0.],6.2255859375,-7.38525390625,-6.16455078125,[0. 0. 0. 0. 0. 0. 0. 0. 0.],-0.11962890625,0.03955078125,1.06787109375,[0. 0. 0. 0. 0. 0. 0. 0. 0.]
5.643454313278198,0.035183463245630264,0.016439244151115417,-0.8648855090141296,0.5004647374153137,[0. 0. 0. 0. 0. 0. 0. 0. 0.],-4.0283203125,-0.54931640625,-7.32421875,[0. 0. 0. 0. 0. 0. 0. 0. 0.],-0.05712890625,0.08544921875,0.943359375,[0. 0. 0. 0. 0. 0. 0. 0. 0.]
5.658351182937622,0.03519061207771301,0.016081877052783966,-0.8654530048370361,0.4994938373565674,[0. 0. 0. 0. 0. 0. 0. 0. 0.],-9.521484375,-1.708984375,-7.14111328125,[0. 0. 0. 0. 0. 0. 0. 0. 0.],-0.0849609375,0.04931640625,0.91748046875,[0. 0. 0. 0. 0. 0. 0. 0. 0.]
5.687123775482178,0.035454247146844864,0.01729995384812355,-0.8659283518791199,0.4986099600791931,[0. 0. 0. 0. 0. 0. 0. 0. 0.],-0.18310546875,-0.6103515625,-5.31005859375,[0. 0. 0. 0. 0. 0. 0. 0. 0.],-0.083984375,-0.00830078125,0.99658203125,[0. 0. 0. 0. 0. 0. 0. 0. 0.]
5.703433036804199,0.0354510098695755,0.017481354996562004,-0.8663550019264221,0.4978622496128082,[0. 0. 0. 0. 0. 0. 0. 0. 0.],1.3427734375,-7.38525390625,-5.31005859375,[0. 0. 0. 0. 0. 0. 0. 0. 0.],-0.099609375,0.02392578125,1.0087890625,[0. 0. 0. 0. 0. 0. 0. 0. 0.]
5.7256059646606445,0.03569977357983589,0.01681124046444893,-0.866632342338562,0.4973844289779663,[0. 0. 0. 0. 0. 0. 0. 0. 0.],-8.9111328125,-2.9296875,-4.150390625,[0. 0. 0. 0. 0. 0. 0. 0. 0.],-0.07958984375,0.06884765625,0.9775390625,[0. 0. 0. 0. 0. 0. 0. 0. 0.]
5.743424892425537,0.03452502563595772,0.015836374834179878,-0.8668708801269531,0.4970836639404297,[0. 0. 0. 0. 0. 0. 0. 0. 0.],-0.3662109375,-8.056640625,-2.99072265625,[0. 0. 0. 0. 0. 0. 0. 0. 0.],-0.07958984375,0.005859375,1.13037109375,[0. 0. 0. 0. 0. 0. 0. 0. 0.]
5.765597820281982,0.03263842687010765,0.015476200729608536,-0.8671882152557373,0.4966689348220825,[0. 0. 0. 0. 0. 0. 0. 0. 0.],3.11279296875,-8.30078125,-2.99072265625,[0. 0. 0. 0. 0. 0. 0. 0. 0.],-0.06298828125,0.00341796875,0.98828125,[0. 0. 0. 0. 0. 0. 0. 0. 0.]
5.784728527069092,0.032534319907426834,0.014175835065543652,-0.8675029277801514,0.4961646497249603,[0. 0. 0. 0. 0. 0. 0. 0. 0.],3.23486328125,7.99560546875,-3.84521484375,[0. 0. 0. 0. 0. 0. 0. 0. 0.],0.07470703125,0.05078125,0.9931640625,[0. 0. 0. 0. 0. 0. 0. 0. 0.]
5.802605628967285,0.032476767897605896,0.012901886366307735,-0.8677000999450684,0.4958581328392029,[0. 0. 0. 0. 0. 0. 0. 0. 0.],-3.41796875,-2.0751953125,-1.46484375,[0. 0. 0. 0. 0. 0. 0. 0. 0.],-0.080078125,0.05615234375,1.02099609375,[0. 0. 0. 0. 0. 0. 0. 0. 0.]
5.8243889808654785,0.032134298235177994,0.0117062171921134,-0.8679396510124207,0.4954907298088074,[0. 0. 0. 0. 0. 0. 0. 0. 0.],1.03759765625,1.8310546875,-3.23486328125,[0. 0. 0. 0. 0. 0. 0. 0. 0.],-0.0185546875,0.02734375,1.09765625,[0. 0. 0. 0. 0. 0. 0. 0. 0.]
5.838391065597534,0.03143671900033951,0.010234558954834938,-0.8682426810264587,0.4950369894504547,[0. 0. 0. 0. 0. 0. 0. 0. 0.],1.40380859375,-5.126953125,-3.35693359375,[0. 0. 0. 0. 0. 0. 0. 0. 0.],-0.06494140625,0.02734375,0.95263671875,[0. 0. 0. 0. 0. 0. 0. 0. 0.]
5.863487958908081,0.03063094988465309,0.008246297016739845,-0.8686844706535339,0.49434924125671387,[0. 0. 0. 0. 0. 0. 0. 0. 0.],2.0751953125,-1.15966796875,-5.859375,[0. 0. 0. 0. 0. 0. 0. 0. 0.],-0.01025390625,0.02294921875,0.9296875,[0. 0. 0. 0. 0. 0. 0. 0. 0.]
5.883409261703491,0.029599331319332123,0.0072840373031795025,-0.8692386746406555,0.49345219135284424,[0. 0. 0. 0. 0. 0. 0. 0. 0.],-0.18310546875,-0.3662109375,-5.9814453125,[0. 0. 0. 0. 0. 0. 0. 0. 0.],-0.0185546875,0.021484375,0.91015625,[0. 0. 0. 0. 0. 0. 0. 0. 0.]
5.903093338012695,0.029020581394433975,0.006089454982429743,-0.8697564005851746,0.4925895631313324,[0. 0. 0. 0. 0. 0. 0. 0. 0.],-2.99072265625,-4.39453125,-6.4697265625,[0. 0. 0. 0. 0. 0. 0. 0. 0.],-0.04638671875,0.03662109375,1.00634765625,[0. 0. 0. 0. 0. 0. 0. 0. 0.]
5.923151731491089,0.028589310124516487,0.006045395042747259,-0.8704723119735718,0.491349458694458,[0. 0. 0. 0. 0. 0. 0. 0. 0.],0.48828125,11.29150390625,-9.33837890625,[0. 0. 0. 0. 0. 0. 0. 0. 0.],0.07763671875,0.0234375,1.11669921875,[0. 0. 0. 0. 0. 0. 0. 0. 0.]
5.944216251373291,0.02840898185968399,0.0053036329336464405,-0.8711986541748047,0.4900793731212616,[0. 0. 0. 0. 0. 0. 0. 0. 0.],9.70458984375,-7.01904296875,-8.11767578125,[0. 0. 0. 0. 0. 0. 0. 0. 0.],-0.08056640625,0.00732421875,1.11865234375,[0. 0. 0. 0. 0. 0. 0. 0. 0.]
5.958346128463745,0.029524579644203186,0.004317766521126032,-0.8718008995056152,0.4889507591724396,[0. 0. 0. 0. 0. 0. 0. 0. 0.],-0.48828125,-0.67138671875,-7.2021484375,[0. 0. 0. 0. 0. 0. 0. 0. 0.],-0.07861328125,0.07177734375,0.9453125,[0. 0. 0. 0. 0. 0. 0. 0. 0.]
5.983587741851807,0.03000592067837715,0.0034547289833426476,-0.8724722862243652,0.48772934079170227,[0. 0. 0. 0. 0. 0. 0. 0. 0.],-5.9814453125,-3.60107421875,-8.6669921875,[0. 0. 0. 0. 0. 0. 0. 0. 0.],-0.06982421875,0.05908203125,0.91064453125,[0. 0. 0. 0. 0. 0. 0. 0. 0.]
6.004193067550659,0.030613426119089127,0.004768404643982649,-0.8731078505516052,0.48654159903526306,[0. 0. 0. 0. 0. 0. 0. 0. 0.],-1.52587890625,-1.220703125,-7.568359375,[0. 0. 0. 0. 0. 0. 0. 0. 0.],-0.07666015625,0.0029296875,0.9912109375,[0. 0. 0. 0. 0. 0. 0. 0. 0.]
6.0230324268341064,0.030807044357061386,0.005747877527028322,-0.8735846281051636,0.4856622815132141,[0. 0. 0. 0. 0. 0. 0. 0. 0.],6.28662109375,-6.34765625,-4.8828125,[0. 0. 0. 0. 0. 0. 0. 0. 0.],-0.09765625,-0.013671875,1.056640625,[0. 0. 0. 0. 0. 0. 0. 0. 0.]
6.043067455291748,0.031381089240312576,0.0051758913323283195,-0.8739501237869263,0.4849739968776703,[0. 0. 0. 0. 0. 0. 0. 0. 0.],-1.3427734375,-6.4697265625,-4.33349609375,[0. 0. 0. 0. 0. 0. 0. 0. 0.],-0.1005859375,0.05517578125,0.94287109375,[0. 0. 0. 0. 0. 0. 0. 0. 0.]
6.071683406829834,0.031416505575180054,0.0041709900833666325,-0.8743841052055359,0.48419836163520813,[0. 0. 0. 0. 0. 0. 0. 0. 0.],2.38037109375,-8.544921875,-2.01416015625,[0. 0. 0. 0. 0. 0. 0. 0. 0.],-0.09716796875,-0.00146484375,1.091796875,[0. 0. 0. 0. 0. 0. 0. 0. 0.]
6.081917762756348,0.03121090680360794,0.004122360143810511,-0.8744285702705383,0.484131783246994,[0. 0. 0. 0. 0. 0. 0. 0. 0.],3.60107421875,-12.5732421875,-1.3427734375,[0. 0. 0. 0. 0. 0. 0. 0. 0.],-0.1142578125,-0.0078125,1.0498046875,[0. 0. 0. 0. 0. 0. 0. 0. 0.]
6.098807096481323,0.02967716194689274,0.0032390872947871685,-0.874430239200592,0.48423197865486145,[0. 0. 0. 0. 0. 0. 0. 0. 0.],7.080078125,-2.25830078125,2.13623046875,[0. 0. 0. 0. 0. 0. 0. 0. 0.],0.02001953125,0.00927734375,0.95703125,[0. 0. 0. 0. 0. 0. 0. 0. 0.]
6.123134136199951,0.02856193669140339,0.0011079696705564857,-0.8737910985946655,0.48546090722084045,[0. 0. 0. 0. 0. 0. 0. 0. 0.],3.47900390625,-3.60107421875,11.474609375,[0. 0. 0. 0. 0. 0. 0. 0. 0.],0.07421875,0.052734375,1.02294921875,[0. 0. 0. 0. 0. 0. 0. 0. 0.]
6.148861646652222,0.026519499719142914,-0.0009334049536846578,-0.8725664019584656,0.4877742826938629,[0. 0. 0. 0. 0. 0. 0. 0. 0.],-0.244140625,-6.53076171875,15.625,[0. 0. 0. 0. 0. 0. 0. 0. 0.],0.02392578125,0.05859375,1.03369140625,[0. 0. 0. 0. 0. 0. 0. 0. 0.]
6.162302732467651,0.024006225168704987,-0.003081278409808874,-0.8702313899993896,0.49204835295677185,[0. 0. 0. 0. 0. 0. 0. 0. 0.],1.40380859375,-6.65283203125,27.9541015625,[0. 0. 0. 0. 0. 0. 0. 0. 0.],0.0517578125,0.03515625,1.02587890625,[0. 0. 0. 0. 0. 0. 0. 0. 0.]
6.183932065963745,0.022394327446818352,-0.004500849638134241,-0.8681423664093018,0.4957893490791321,[0. 0. 0. 0. 0. 0. 0. 0. 0.],3.2958984375,-4.5166015625,35.33935546875,[0. 0. 0. 0. 0. 0. 0. 0. 0.],0.03857421875,0.0341796875,0.9951171875,[0. 0. 0. 0. 0. 0. 0. 0. 0.]
6.203973293304443,0.02035960741341114,-0.006727677304297686,-0.8647953271865845,0.5016666054725647,[0. 0. 0. 0. 0. 0. 0. 0. 0.],3.662109375,-4.69970703125,41.32080078125,[0. 0. 0. 0. 0. 0. 0. 0. 0.],0.0830078125,0.04052734375,0.94580078125,[0. 0. 0. 0. 0. 0. 0. 0. 0.]
6.234581470489502,0.018075820058584213,-0.008859607391059399,-0.8606680035591125,0.5087685585021973,[0. 0. 0. 0. 0. 0. 0. 0. 0.],0.0,-6.40869140625,50.048828125,[0. 0. 0. 0. 0. 0. 0. 0. 0.],0.06787109375,0.0458984375,0.9033203125,[0. 0. 0. 0. 0. 0. 0. 0. 0.]
6.2405407428741455,0.016283707693219185,-0.009768777526915073,-0.8562074899673462,0.5162831544876099,[0. 0. 0. 0. 0. 0. 0. 0. 0.],-4.39453125,3.0517578125,49.37744140625,[0. 0. 0. 0. 0. 0. 0. 0. 0.],0.1328125,0.05810546875,1.00439453125,[0. 0. 0. 0. 0. 0. 0. 0. 0.]
6.266774654388428,0.014561093412339687,-0.010492578148841858,-0.8506366610527039,0.5254476070404053,[0. 0. 0. 0. 0. 0. 0. 0. 0.],2.25830078125,0.8544921875,48.15673828125,[0. 0. 0. 0. 0. 0. 0. 0. 0.],0.07666015625,0.02001953125,1.07373046875,[0. 0. 0. 0. 0. 0. 0. 0. 0.]
6.283236503601074,0.013590976595878601,-0.01144215278327465,-0.8474196195602417,0.5306264162063599,[0. 0. 0. 0. 0. 0. 0. 0. 0.],5.4931640625,0.54931640625,45.5322265625,[0. 0. 0. 0. 0. 0. 0. 0. 0.],0.044921875,0.0107421875,1.0390625,[0. 0. 0. 0. 0. 0. 0. 0. 0.]
6.3033647537231445,0.012871552258729935,-0.012813692912459373,-0.8433417677879333,0.5370706915855408,[0. 0. 0. 0. 0. 0. 0. 0. 0.],-5.859375,-5.2490234375,42.41943359375,[0. 0. 0. 0. 0. 0. 0. 0. 0.],-0.0234375,0.06982421875,0.88818359375,[0. 0. 0. 0. 0. 0. 0. 0. 0.]
6.322955369949341,0.012401865795254707,-0.012703138403594494,-0.8396686315536499,0.5428088903427124,[0. 0. 0. 0. 0. 0. 0. 0. 0.],-12.0849609375,0.48828125,35.94970703125,[0. 0. 0. 0. 0. 0. 0. 0. 0.],0.001953125,0.0537109375,0.97900390625,[0. 0. 0. 0. 0. 0. 0. 0. 0.]
6.343557834625244,0.010785330086946487,-0.010929243639111519,-0.8370741605758667,0.5468741059303284,[0. 0. 0. 0. 0. 0. 0. 0. 0.],-3.0517578125,3.90625,23.01025390625,[0. 0. 0. 0. 0. 0. 0. 0. 0.],-0.0087890625,-0.01025390625,1.07861328125,[0. 0. 0. 0. 0. 0. 0. 0. 0.]
6.363291025161743,0.011667512357234955,-0.00933300144970417,-0.8355065584182739,0.5492774248123169,[0. 0. 0. 0. 0. 0. 0. 0. 0.],1.64794921875,1.8310546875,13.0615234375,[0. 0. 0. 0. 0. 0. 0. 0. 0.],-0.076171875,0.00341796875,0.98583984375,[0. 0. 0. 0. 0. 0. 0. 0. 0.]
6.383267164230347,0.013523632660508156,-0.008381670340895653,-0.8346697688102722,0.5505209565162659,[0. 0. 0. 0. 0. 0. 0. 0. 0.],-2.74658203125,-2.74658203125,7.2021484375,[0. 0. 0. 0. 0. 0. 0. 0. 0.],-0.0673828125,0.044921875,0.97021484375,[0. 0. 0. 0. 0. 0. 0. 0. 0.]
6.403213739395142,0.013229398056864738,-0.008283702656626701,-0.8342176675796509,0.551214337348938,[0. 0. 0. 0. 0. 0. 0. 0. 0.],-1.03759765625,-12.63427734375,5.31005859375,[0. 0. 0. 0. 0. 0. 0. 0. 0.],-0.095703125,0.0234375,1.01171875,[0. 0. 0. 0. 0. 0. 0. 0. 0.]
6.423754930496216,0.012475539930164814,-0.008643421344459057,-0.8338390588760376,0.551798939704895,[0. 0. 0. 0. 0. 0. 0. 0. 0.],6.34765625,2.86865234375,4.08935546875,[0. 0. 0. 0. 0. 0. 0. 0. 0.],0.076171875,0.01318359375,1.17822265625,[0. 0. 0. 0. 0. 0. 0. 0. 0.]
6.440138578414917,0.012198539450764656,-0.009869818575680256,-0.8332875370979309,0.5526171922683716,[0. 0. 0. 0. 0. 0. 0. 0. 0.],1.89208984375,-0.48828125,6.77490234375,[0. 0. 0. 0. 0. 0. 0. 0. 0.],0.0068359375,0.0400390625,0.96826171875,[0. 0. 0. 0. 0. 0. 0. 0. 0.]
6.464315176010132,0.013040514662861824,-0.010701632127165794,-0.8325124382972717,0.5537495017051697,[0. 0. 0. 0. 0. 0. 0. 0. 0.],-3.84521484375,5.43212890625,8.6669921875,[0. 0. 0. 0. 0. 0. 0. 0. 0.],0.0078125,0.0556640625,0.89013671875,[0. 0. 0. 0. 0. 0. 0. 0. 0.]
6.483882665634155,0.012322613038122654,-0.010357966646552086,-0.8316552042961121,0.5550590753555298,[0. 0. 0. 0. 0. 0. 0. 0. 0.],-2.74658203125,-0.732421875,10.07080078125,[0. 0. 0. 0. 0. 0. 0. 0. 0.],-0.03173828125,0.0263671875,1.03466796875,[0. 0. 0. 0. 0. 0. 0. 0. 0.]
6.50382661819458,0.01282008271664381,-0.009210381656885147,-0.8308354616165161,0.5562943816184998,[0. 0. 0. 0. 0. 0. 0. 0. 0.],3.84521484375,-0.54931640625,7.99560546875,[0. 0. 0. 0. 0. 0. 0. 0. 0.],-0.021484375,0.01171875,1.1044921875,[0. 0. 0. 0. 0. 0. 0. 0. 0.]
6.523302793502808,0.012208355590701103,-0.009469839744269848,-0.8302124738693237,0.5572329759597778,[0. 0. 0. 0. 0. 0. 0. 0. 0.],3.35693359375,-3.41796875,6.28662109375,[0. 0. 0. 0. 0. 0. 0. 0. 0.],-0.017578125,0.0283203125,0.97412109375,[0. 0. 0. 0. 0. 0. 0. 0. 0.]
6.544075965881348,0.012938194908201694,-0.009643737226724625,-0.8296547532081604,0.5580436587333679,[0. 0. 0. 0. 0. 0. 0. 0. 0.],-1.89208984375,-5.2490234375,6.2255859375,[0. 0. 0. 0. 0. 0. 0. 0. 0.],-0.0322265625,0.0390625,0.876953125,[0. 0. 0. 0. 0. 0. 0. 0. 0.]
6.5637712478637695,0.012412464246153831,-0.009636636823415756,-0.8291750550270081,0.5587682127952576,[0. 0. 0. 0. 0. 0. 0. 0. 0.],-2.99072265625,11.8408203125,3.47900390625,[0. 0. 0. 0. 0. 0. 0. 0. 0.],0.10986328125,0.02880859375,0.98046875,[0. 0. 0. 0. 0. 0. 0. 0. 0.]
6.583322525024414,0.011642253026366234,-0.009649674408137798,-0.8288923501968384,0.5592036843299866,[0. 0. 0. 0. 0. 0. 0. 0. 0.],2.8076171875,-0.48828125,2.13623046875,[0. 0. 0. 0. 0. 0. 0. 0. 0.],0.0078125,0.01220703125,1.1318359375,[0. 0. 0. 0. 0. 0. 0. 0. 0.]
6.6036536693573,0.011040105484426022,-0.009761093184351921,-0.8287549614906311,0.5594175457954407,[0. 0. 0. 0. 0. 0. 0. 0. 0.],-2.74658203125,2.01416015625,0.9765625,[0. 0. 0. 0. 0. 0. 0. 0. 0.],0.01806640625,0.04150390625,0.978515625,[0. 0. 0. 0. 0. 0. 0. 0. 0.]
6.623933553695679,0.010735120624303818,-0.009951693005859852,-0.8285942673683167,0.5596581697463989,[0. 0. 0. 0. 0. 0. 0. 0. 0.],0.48828125,0.18310546875,1.64794921875,[0. 0. 0. 0. 0. 0. 0. 0. 0.],-0.01171875,0.02392578125,0.943359375,[0. 0. 0. 0. 0. 0. 0. 0. 0.]
6.643367052078247,0.011379382573068142,-0.008827616460621357,-0.828345000743866,0.5600332617759705,[0. 0. 0. 0. 0. 0. 0. 0. 0.],-2.9296875,-4.82177734375,3.60107421875,[0. 0. 0. 0. 0. 0. 0. 0. 0.],-0.08642578125,0.03515625,0.97412109375,[0. 0. 0. 0. 0. 0. 0. 0. 0.]
6.663439989089966,0.012424479238688946,-0.007823323830962181,-0.8279595971107483,0.5605954527854919,[0. 0. 0. 0. 0. 0. 0. 0. 0.],-5.55419921875,-0.8544921875,4.0283203125,[0. 0. 0. 0. 0. 0. 0. 0. 0.],-0.06640625,0.04833984375,1.05810546875,[0. 0. 0. 0. 0. 0. 0. 0. 0.]
6.683303117752075,0.012314653024077415,-0.007065467070788145,-0.8276486396789551,0.5610671639442444,[0. 0. 0. 0. 0. 0. 0. 0. 0.],-2.74658203125,-8.36181640625,3.84521484375,[0. 0. 0. 0. 0. 0. 0. 0. 0.],-0.08154296875,0.017578125,1.0234375,[0. 0. 0. 0. 0. 0. 0. 0. 0.]
6.703040599822998,0.011698052287101746,-0.006206800229847431,-0.8273305296897888,0.5615593194961548,[0. 0. 0. 0. 0. 0. 0. 0. 0.],-0.79345703125,3.35693359375,3.0517578125,[0. 0. 0. 0. 0. 0. 0. 0. 0.],0.01953125,0.00537109375,1.0068359375,[0. 0. 0. 0. 0. 0. 0. 0. 0.]
6.723013639450073,0.010293233208358288,-0.003941386938095093,-0.8268197774887085,0.5623589754104614,[0. 0. 0. 0. 0. 0. 0. 0. 0.],-8.30078125,-11.5966796875,6.77490234375,[0. 0. 0. 0. 0. 0. 0. 0. 0.],-0.10986328125,-0.10693359375,0.94140625,[0. 0. 0. 0. 0. 0. 0. 0. 0.]
6.743984699249268,0.008721932768821716,-0.0025374460965394974,-0.8261272311210632,0.5634104609489441,[0. 0. 0. 0. 0. 0. 0. 0. 0.],-0.54931640625,-1.5869140625,5.92041015625,[0. 0. 0. 0. 0. 0. 0. 0. 0.],0.0263671875,-0.18994140625,1.126953125,[0. 0. 0. 0. 0. 0. 0. 0. 0.]
6.7631895542144775,0.007466450333595276,-0.0017450868617743254,-0.8258621096611023,0.5638200640678406,[0. 0. 0. 0. 0. 0. 0. 0. 0.],-2.5634765625,3.662109375,3.0517578125,[0. 0. 0. 0. 0. 0. 0. 0. 0.],0.10009765625,-0.19921875,1.015625,[0. 0. 0. 0. 0. 0. 0. 0. 0.]
6.781555414199829,0.0067908260971307755,0.0005627372884191573,-0.8256544470787048,0.5641350746154785,[0. 0. 0. 0. 0. 0. 0. 0. 0.],-3.35693359375,8.36181640625,1.15966796875,[0. 0. 0. 0. 0. 0. 0. 0. 0.],0.0546875,-0.20849609375,0.9541015625,[0. 0. 0. 0. 0. 0. 0. 0. 0.]
6.7982869148254395,0.0068253460340201855,0.003063718555495143,-0.8253177404403687,0.5646190643310547,[0. 0. 0. 0. 0. 0. 0. 0. 0.],-4.150390625,4.7607421875,5.4931640625,[0. 0. 0. 0. 0. 0. 0. 0. 0.],-0.080078125,-0.20263671875,1.00439453125,[0. 0. 0. 0. 0. 0. 0. 0. 0.]
6.819642782211304,0.005518349353224039,0.00530087947845459,-0.8248459696769714,0.565305769443512,[0. 0. 0. 0. 0. 0. 0. 0. 0.],-6.53076171875,-2.62451171875,4.5166015625,[0. 0. 0. 0. 0. 0. 0. 0. 0.],-0.06201171875,-0.25927734375,0.9833984375,[0. 0. 0. 0. 0. 0. 0. 0. 0.]
6.843344449996948,0.0035643428564071655,0.007192591670900583,-0.8244180083274841,0.5659245848655701,[0. 0. 0. 0. 0. 0. 0. 0. 0.],-4.57763671875,-1.28173828125,3.662109375,[0. 0. 0. 0. 0. 0. 0. 0. 0.],-0.0009765625,-0.2861328125,0.9619140625,[0. 0. 0. 0. 0. 0. 0. 0. 0.]
6.8640806674957275,0.003594441106542945,0.010452892631292343,-0.8240117430686951,0.5664648413658142,[0. 0. 0. 0. 0. 0. 0. 0. 0.],-3.84521484375,11.53564453125,2.9296875,[0. 0. 0. 0. 0. 0. 0. 0. 0.],0.06591796875,-0.2900390625,0.96142578125,[0. 0. 0. 0. 0. 0. 0. 0. 0.]
6.88489556312561,0.002891338197514415,0.013698754832148552,-0.8236441612243652,0.5669340491294861,[0. 0. 0. 0. 0. 0. 0. 0. 0.],-11.474609375,2.44140625,4.21142578125,[0. 0. 0. 0. 0. 0. 0. 0. 0.],-0.07177734375,-0.275390625,0.90869140625,[0. 0. 0. 0. 0. 0. 0. 0. 0.]
6.903790473937988,-1.910131140903104e-05,0.01511217188090086,-0.8232821226119995,0.5674312114715576,[0. 0. 0. 0. 0. 0. 0. 0. 0.],-3.5400390625,-10.1318359375,4.638671875,[0. 0. 0. 0. 0. 0. 0. 0. 0.],-0.1025390625,-0.33837890625,1.04052734375,[0. 0. 0. 0. 0. 0. 0. 0. 0.]
6.923713445663452,-0.0016462967032566667,0.016229450702667236,-0.8226271271705627,0.5683473348617554,[0. 0. 0. 0. 0. 0. 0. 0. 0.],-0.54931640625,-0.48828125,9.033203125,[0. 0. 0. 0. 0. 0. 0. 0. 0.],0.00634765625,-0.34521484375,1.072265625,[0. 0. 0. 0. 0. 0. 0. 0. 0.]
6.94379734992981,-0.0050284042954444885,0.01616457663476467,-0.8210786581039429,0.5705640316009521,[0. 0. 0. 0. 0. 0. 0. 0. 0.],-3.11279296875,-19.47021484375,21.66748046875,[0. 0. 0. 0. 0. 0. 0. 0. 0.],-0.05419921875,-0.31201171875,0.9912109375,[0. 0. 0. 0. 0. 0. 0. 0. 0.]
6.963490009307861,-0.007576446980237961,0.016726359724998474,-0.8178838491439819,0.5750904083251953,[0. 0. 0. 0. 0. 0. 0. 0. 0.],-5.18798828125,5.7373046875,38.87939453125,[0. 0. 0. 0. 0. 0. 0. 0. 0.],0.10009765625,-0.306640625,1.048828125,[0. 0. 0. 0. 0. 0. 0. 0. 0.]
6.98340106010437,-0.008407270535826683,0.017390144988894463,-0.8129827380180359,0.5819674730300903,[0. 0. 0. 0. 0. 0. 0. 0. 0.],9.1552734375,-16.11328125,54.0771484375,[0. 0. 0. 0. 0. 0. 0. 0. 0.],0.02099609375,-0.34130859375,1.0615234375,[0. 0. 0. 0. 0. 0. 0. 0. 0.]
7.003471612930298,-0.011779721826314926,0.015020928345620632,-0.8062570095062256,0.5912573337554932,[0. 0. 0. 0. 0. 0. 0. 0. 0.],3.41796875,-13.5498046875,76.2939453125,[0. 0. 0. 0. 0. 0. 0. 0. 0.],0.017578125,-0.251953125,0.92529296875,[0. 0. 0. 0. 0. 0. 0. 0. 0.]
7.018429279327393,-0.012225911021232605,0.017029987648129463,-0.7971280813217163,0.6034461855888367,[0. 0. 0. 0. 0. 0. 0. 0. 0.],-7.26318359375,6.8359375,91.97998046875,[0. 0. 0. 0. 0. 0. 0. 0. 0.],0.21044921875,-0.18994140625,0.87939453125,[0. 0. 0. 0. 0. 0. 0. 0. 0.]
7.043448209762573,-0.016608046367764473,0.016083020716905594,-0.786558210849762,0.6170831322669983,[0. 0. 0. 0. 0. 0. 0. 0. 0.],2.74658203125,-33.14208984375,101.318359375,[0. 0. 0. 0. 0. 0. 0. 0. 0.],-0.021484375,-0.28955078125,0.95703125,[0. 0. 0. 0. 0. 0. 0. 0. 0.]
7.0640339851379395,-0.02082558535039425,0.014608875848352909,-0.7743134498596191,0.6322907209396362,[0. 0. 0. 0. 0. 0. 0. 0. 0.],2.38037109375,-14.22119140625,116.8212890625,[0. 0. 0. 0. 0. 0. 0. 0. 0.],0.20947265625,-0.28125,0.984375,[0. 0. 0. 0. 0. 0. 0. 0. 0.]
7.078575372695923,-0.022213242948055267,0.014765309169888496,-0.7603709101676941,0.6489412188529968,[0. 0. 0. 0. 0. 0. 0. 0. 0.],0.6103515625,-2.5634765625,128.60107421875,[0. 0. 0. 0. 0. 0. 0. 0. 0.],0.25634765625,-0.302734375,1.056640625,[0. 0. 0. 0. 0. 0. 0. 0. 0.]
7.103554725646973,-0.023802079260349274,0.013136966153979301,-0.7448380589485168,0.6666913032531738,[0. 0. 0. 0. 0. 0. 0. 0. 0.],8.30078125,-7.62939453125,140.0146484375,[0. 0. 0. 0. 0. 0. 0. 0. 0.],0.22802734375,-0.3388671875,1.1484375,[0. 0. 0. 0. 0. 0. 0. 0. 0.]
7.118916034698486,-0.02476903423666954,0.013773046433925629,-0.7274060249328613,0.6856217980384827,[0. 0. 0. 0. 0. 0. 0. 0. 0.],-1.28173828125,4.57763671875,151.4892578125,[0. 0. 0. 0. 0. 0. 0. 0. 0.],0.25341796875,-0.2373046875,0.8896484375,[0. 0. 0. 0. 0. 0. 0. 0. 0.]
7.140002489089966,-0.026633471250534058,0.012374626472592354,-0.7085065245628357,0.7050929069519043,[0. 0. 0. 0. 0. 0. 0. 0. 0.],8.056640625,-31.73828125,157.1044921875,[0. 0. 0. 0. 0. 0. 0. 0. 0.],0.1552734375,-0.31396484375,0.99609375,[0. 0. 0. 0. 0. 0. 0. 0. 0.]
7.163399696350098,-0.03200303018093109,0.008693251758813858,-0.6879053711891174,0.7250424027442932,[0. 0. 0. 0. 0. 0. 0. 0. 0.],0.18310546875,-24.90234375,165.52734375,[0. 0. 0. 0. 0. 0. 0. 0. 0.],0.23974609375,-0.26025390625,0.84716796875,[0. 0. 0. 0. 0. 0. 0. 0. 0.]
7.183258295059204,-0.03297754004597664,0.00974773894995451,-0.6653295755386353,0.7457574605941772,[0. 0. 0. 0. 0. 0. 0. 0. 0.],4.5166015625,0.67138671875,178.64990234375,[0. 0. 0. 0. 0. 0. 0. 0. 0.],0.412109375,-0.3232421875,1.04833984375,[0. 0. 0. 0. 0. 0. 0. 0. 0.]
7.198701620101929,-0.03441736102104187,0.007822367362678051,-0.6414059400558472,0.7663893699645996,[0. 0. 0. 0. 0. 0. 0. 0. 0.],7.4462890625,-15.44189453125,182.373046875,[0. 0. 0. 0. 0. 0. 0. 0. 0.],0.2744140625,-0.33154296875,0.96142578125,[0. 0. 0. 0. 0. 0. 0. 0. 0.]
7.223409414291382,-0.03555924817919731,0.006177846342325211,-0.6159893274307251,0.786927342414856,[0. 0. 0. 0. 0. 0. 0. 0. 0.],6.89697265625,-5.55419921875,188.720703125,[0. 0. 0. 0. 0. 0. 0. 0. 0.],0.396484375,-0.34033203125,1.03759765625,[0. 0. 0. 0. 0. 0. 0. 0. 0.]
7.239615201950073,-0.038723576813936234,0.0030635062139481306,-0.5888733267784119,0.8072913885116577,[0. 0. 0. 0. 0. 0. 0. 0. 0.],1.03759765625,-28.74755859375,196.83837890625,[0. 0. 0. 0. 0. 0. 0. 0. 0.],0.25390625,-0.23583984375,0.77734375,[0. 0. 0. 0. 0. 0. 0. 0. 0.]
7.258451700210571,-0.04283471778035164,0.0014315046137198806,-0.5601633787155151,0.8272727727890015,[0. 0. 0. 0. 0. 0. 0. 0. 0.],2.99072265625,-13.3056640625,202.45361328125,[0. 0. 0. 0. 0. 0. 0. 0. 0.],0.40673828125,-0.35546875,0.98681640625,[0. 0. 0. 0. 0. 0. 0. 0. 0.]
7.2837114334106445,-0.04303906857967377,0.00354879186488688,-0.5298307538032532,0.8470032811164856,[0. 0. 0. 0. 0. 0. 0. 0. 0.],3.5400390625,-0.732421875,208.6181640625,[0. 0. 0. 0. 0. 0. 0. 0. 0.],0.40673828125,-0.39697265625,1.0703125,[0. 0. 0. 0. 0. 0. 0. 0. 0.]
7.3042309284210205,-0.04479140788316727,-0.0006330703035928309,-0.49852845072746277,0.8657152056694031,[0. 0. 0. 0. 0. 0. 0. 0. 0.],11.29150390625,-10.80322265625,212.46337890625,[0. 0. 0. 0. 0. 0. 0. 0. 0.],0.44140625,-0.40576171875,1.07421875,[0. 0. 0. 0. 0. 0. 0. 0. 0.]
7.323094129562378,-0.045665763318538666,-0.0012079976731911302,-0.46573781967163086,0.8837429285049438,[0. 0. 0. 0. 0. 0. 0. 0. 0.],4.33349609375,-24.35302734375,216.73583984375,[0. 0. 0. 0. 0. 0. 0. 0. 0.],0.3896484375,-0.2783203125,0.8134765625,[0. 0. 0. 0. 0. 0. 0. 0. 0.]
7.343121290206909,-0.04806213453412056,-0.004470350220799446,-0.43135979771614075,0.9008877873420715,[0. 0. 0. 0. 0. 0. 0. 0. 0.],11.1083984375,1.77001953125,226.74560546875,[0. 0. 0. 0. 0. 0. 0. 0. 0.],0.34521484375,-0.32421875,0.89599609375,[0. 0. 0. 0. 0. 0. 0. 0. 0.]
7.363686800003052,-0.047159887850284576,-0.004580364562571049,-0.3961952328681946,0.9169428944587708,[0. 0. 0. 0. 0. 0. 0. 0. 0.],23.193359375,-5.7373046875,221.61865234375,[0. 0. 0. 0. 0. 0. 0. 0. 0.],0.61376953125,-0.35498046875,1.13427734375,[0. 0. 0. 0. 0. 0. 0. 0. 0.]
7.383059024810791,-0.04709750786423683,-0.008820271119475365,-0.3602951169013977,0.9316069483757019,[0. 0. 0. 0. 0. 0. 0. 0. 0.],12.02392578125,-16.17431640625,221.923828125,[0. 0. 0. 0. 0. 0. 0. 0. 0.],0.552734375,-0.271484375,0.986328125,[0. 0. 0. 0. 0. 0. 0. 0. 0.]
7.404820442199707,-0.04771879315376282,-0.010739585384726524,-0.3236938714981079,0.9448967576026917,[0. 0. 0. 0. 0. 0. 0. 0. 0.],6.28662109375,-27.4658203125,221.8017578125,[0. 0. 0. 0. 0. 0. 0. 0. 0.],0.57470703125,-0.20458984375,0.89013671875,[0. 0. 0. 0. 0. 0. 0. 0. 0.]
7.423404693603516,-0.04906773567199707,-0.00997118093073368,-0.28641268610954285,0.956797182559967,[0. 0. 0. 0. 0. 0. 0. 0. 0.],-5.31005859375,7.99560546875,224.9755859375,[0. 0. 0. 0. 0. 0. 0. 0. 0.],0.5302734375,-0.2109375,0.75,[0. 0. 0. 0. 0. 0. 0. 0. 0.]
7.443155527114868,-0.05014057829976082,-0.011303224600851536,-0.24954447150230408,0.966998279094696,[0. 0. 0. 0. 0. 0. 0. 0. 0.],5.43212890625,-11.77978515625,214.66064453125,[0. 0. 0. 0. 0. 0. 0. 0. 0.],0.60595703125,-0.38818359375,1.0791015625,[0. 0. 0. 0. 0. 0. 0. 0. 0.]
7.463060140609741,-0.049810875207185745,-0.012499374337494373,-0.2133939117193222,0.9756156206130981,[0. 0. 0. 0. 0. 0. 0. 0. 0.],11.29150390625,-8.72802734375,208.67919921875,[0. 0. 0. 0. 0. 0. 0. 0. 0.],0.76318359375,-0.3720703125,1.15771484375,[0. 0. 0. 0. 0. 0. 0. 0. 0.]
7.478196620941162,-0.049531638622283936,-0.014048303477466106,-0.17802727222442627,0.9826778173446655,[0. 0. 0. 0. 0. 0. 0. 0. 0.],8.056640625,-6.591796875,203.18603515625,[0. 0. 0. 0. 0. 0. 0. 0. 0.],0.6376953125,-0.28515625,0.9423828125,[0. 0. 0. 0. 0. 0. 0. 0. 0.]
7.498392105102539,-0.049050986766815186,-0.016236498951911926,-0.14310981333255768,0.9883572459220886,[0. 0. 0. 0. 0. 0. 0. 0. 0.],10.55908203125,-18.49365234375,204.1015625,[0. 0. 0. 0. 0. 0. 0. 0. 0.],0.5439453125,-0.2822265625,0.89794921875,[0. 0. 0. 0. 0. 0. 0. 0. 0.]
7.523542404174805,-0.051121655851602554,-0.01563987135887146,-0.10750985145568848,0.9927657246589661,[0. 0. 0. 0. 0. 0. 0. 0. 0.],-8.85009765625,6.2255859375,205.74951171875,[0. 0. 0. 0. 0. 0. 0. 0. 0.],0.53564453125,-0.20263671875,0.68603515625,[0. 0. 0. 0. 0. 0. 0. 0. 0.]
7.543770790100098,-0.05250551924109459,-0.017048122361302376,-0.07261105626821518,0.9958314299583435,[0. 0. 0. 0. 0. 0. 0. 0. 0.],2.62451171875,-19.8974609375,195.86181640625,[0. 0. 0. 0. 0. 0. 0. 0. 0.],0.63623046875,-0.359375,1.07421875,[0. 0. 0. 0. 0. 0. 0. 0. 0.]
7.559805870056152,-0.05276428535580635,-0.01958150789141655,-0.039329130202531815,0.9976401329040527,[0. 0. 0. 0. 0. 0. 0. 0. 0.],5.4931640625,-11.71875,186.46240234375,[0. 0. 0. 0. 0. 0. 0. 0. 0.],0.88037109375,-0.34619140625,1.22265625,[0. 0. 0. 0. 0. 0. 0. 0. 0.]
7.583056688308716,-0.051617421209812164,-0.019157014787197113,-0.00795164704322815,0.9984515905380249,[0. 0. 0. 0. 0. 0. 0. 0. 0.],17.08984375,-2.86865234375,177.79541015625,[0. 0. 0. 0. 0. 0. 0. 0. 0.],0.72705078125,-0.2607421875,1.0234375,[0. 0. 0. 0. 0. 0. 0. 0. 0.]
7.604981184005737,-0.05041878670454025,-0.019018344581127167,0.022809522226452827,0.9982864856719971,[0. 0. 0. 0. 0. 0. 0. 0. 0.],7.01904296875,-5.67626953125,175.1708984375,[0. 0. 0. 0. 0. 0. 0. 0. 0.],0.59130859375,-0.22900390625,0.9072265625,[0. 0. 0. 0. 0. 0. 0. 0. 0.]
7.623291492462158,-0.050967320799827576,-0.020158817991614342,0.05353028327226639,0.9970608949661255,[0. 0. 0. 0. 0. 0. 0. 0. 0.],-6.28662109375,-7.38525390625,176.69677734375,[0. 0. 0. 0. 0. 0. 0. 0. 0.],0.5458984375,-0.16748046875,0.79736328125,[0. 0. 0. 0. 0. 0. 0. 0. 0.]
7.645236492156982,-0.05272503197193146,-0.019998975098133087,0.08381389081478119,0.9948846697807312,[0. 0. 0. 0. 0. 0. 0. 0. 0.],-4.638671875,-3.84521484375,170.0439453125,[0. 0. 0. 0. 0. 0. 0. 0. 0.],0.5517578125,-0.20361328125,0.82470703125,[0. 0. 0. 0. 0. 0. 0. 0. 0.]
7.65922999382019,-0.050862714648246765,-0.02251678705215454,0.11182671040296555,0.9921696782112122,[0. 0. 0. 0. 0. 0. 0. 0. 0.],14.70947265625,-9.82666015625,157.04345703125,[0. 0. 0. 0. 0. 0. 0. 0. 0.],0.73193359375,-0.2900390625,1.1396484375,[0. 0. 0. 0. 0. 0. 0. 0. 0.]
7.67842960357666,-0.04816952347755432,-0.023718852549791336,0.1381063014268875,0.9889609813690186,[0. 0. 0. 0. 0. 0. 0. 0. 0.],17.4560546875,-11.16943359375,149.2919921875,[0. 0. 0. 0. 0. 0. 0. 0. 0.],0.7783203125,-0.197265625,1.11328125,[0. 0. 0. 0. 0. 0. 0. 0. 0.]
7.703121185302734,-0.04613694176077843,-0.024455426260828972,0.163350909948349,0.9851852059364319,[0. 0. 0. 0. 0. 0. 0. 0. 0.],11.90185546875,-2.197265625,145.5078125,[0. 0. 0. 0. 0. 0. 0. 0. 0.],0.724609375,-0.16162109375,1.03271484375,[0. 0. 0. 0. 0. 0. 0. 0. 0.]
7.723279714584351,-0.045188650488853455,-0.024400383234024048,0.18811608850955963,0.9808032512664795,[0. 0. 0. 0. 0. 0. 0. 0. 0.],5.79833984375,-8.4228515625,143.1884765625,[0. 0. 0. 0. 0. 0. 0. 0. 0.],0.55126953125,-0.12939453125,0.837890625,[0. 0. 0. 0. 0. 0. 0. 0. 0.]
7.7434210777282715,-0.04338247701525688,-0.024519097059965134,0.21186800301074982,0.9760270118713379,[0. 0. 0. 0. 0. 0. 0. 0. 0.],15.7470703125,2.3193359375,136.16943359375,[0. 0. 0. 0. 0. 0. 0. 0. 0.],0.671875,-0.18896484375,1.0,[0. 0. 0. 0. 0. 0. 0. 0. 0.]
7.763188600540161,-0.04147600755095482,-0.02499663084745407,0.2347216159105301,0.9708556532859802,[0. 0. 0. 0. 0. 0. 0. 0. 0.],9.8876953125,-11.53564453125,132.26318359375,[0. 0. 0. 0. 0. 0. 0. 0. 0.],0.56494140625,-0.12451171875,0.86328125,[0. 0. 0. 0. 0. 0. 0. 0. 0.]
7.785833120346069,-0.040582217276096344,-0.025628089904785156,0.25620320439338684,0.9654306769371033,[0. 0. 0. 0. 0. 0. 0. 0. 0.],5.4931640625,9.70458984375,124.0234375,[0. 0. 0. 0. 0. 0. 0. 0. 0.],0.6181640625,-0.09765625,0.80322265625,[0. 0. 0. 0. 0. 0. 0. 0. 0.]
7.798183441162109,-0.03994021564722061,-0.026145048439502716,0.27564695477485657,0.9600729942321777,[0. 0. 0. 0. 0. 0. 0. 0. 0.],7.50732421875,-18.00537109375,109.7412109375,[0. 0. 0. 0. 0. 0. 0. 0. 0.],0.5625,-0.095703125,0.90576171875,[0. 0. 0. 0. 0. 0. 0. 0. 0.]
7.824157476425171,-0.038353998214006424,-0.02974667027592659,0.29153743386268616,0.9553272128105164,[0. 0. 0. 0. 0. 0. 0. 0. 0.],6.4697265625,-12.3291015625,86.0595703125,[0. 0. 0. 0. 0. 0. 0. 0. 0.],0.7880859375,-0.0771484375,1.16357421875,[0. 0. 0. 0. 0. 0. 0. 0. 0.]
7.8434484004974365,-0.03651956096291542,-0.030130455270409584,0.3025559186935425,0.9519550800323486,[0. 0. 0. 0. 0. 0. 0. 0. 0.],12.14599609375,5.859375,55.23681640625,[0. 0. 0. 0. 0. 0. 0. 0. 0.],0.83984375,-0.0068359375,1.1787109375,[0. 0. 0. 0. 0. 0. 0. 0. 0.]
7.8631203174591064,-0.03405904024839401,-0.029920266941189766,0.30919328331947327,0.9499180316925049,[0. 0. 0. 0. 0. 0. 0. 0. 0.],10.6201171875,-0.3662109375,31.6162109375,[0. 0. 0. 0. 0. 0. 0. 0. 0.],0.6005859375,0.02099609375,0.935546875,[0. 0. 0. 0. 0. 0. 0. 0. 0.]
7.883629560470581,-0.032402824610471725,-0.03092530369758606,0.3123091757297516,0.9489240050315857,[0. 0. 0. 0. 0. 0. 0. 0. 0.],3.173828125,-3.7841796875,11.1083984375,[0. 0. 0. 0. 0. 0. 0. 0. 0.],0.56005859375,0.07275390625,0.845703125,[0. 0. 0. 0. 0. 0. 0. 0. 0.]
7.9035484790802,-0.03158210963010788,-0.0323801226913929,0.3119211494922638,0.9490306973457336,[0. 0. 0. 0. 0. 0. 0. 0. 0.],0.6103515625,-1.3427734375,-10.7421875,[0. 0. 0. 0. 0. 0. 0. 0. 0.],0.60986328125,0.07568359375,0.94775390625,[0. 0. 0. 0. 0. 0. 0. 0. 0.]
7.927269697189331,-0.030971786007285118,-0.032255176454782486,0.30668923258781433,0.9507587552070618,[0. 0. 0. 0. 0. 0. 0. 0. 0.],1.52587890625,10.986328125,-33.69140625,[0. 0. 0. 0. 0. 0. 0. 0. 0.],0.58544921875,0.07177734375,0.9326171875,[0. 0. 0. 0. 0. 0. 0. 0. 0.]
7.943335056304932,-0.030582701787352562,-0.032698556780815125,0.301198273897171,0.952509880065918,[0. 0. 0. 0. 0. 0. 0. 0. 0.],-2.5634765625,-0.79345703125,-49.01123046875,[0. 0. 0. 0. 0. 0. 0. 0. 0.],0.51220703125,0.09521484375,0.912109375,[0. 0. 0. 0. 0. 0. 0. 0. 0.]
7.96387505531311,-0.029366876929998398,-0.033989712595939636,0.2907545864582062,0.9557427167892456,[0. 0. 0. 0. 0. 0. 0. 0. 0.],3.47900390625,8.11767578125,-69.82421875,[0. 0. 0. 0. 0. 0. 0. 0. 0.],0.552734375,0.09912109375,1.13671875,[0. 0. 0. 0. 0. 0. 0. 0. 0.]
7.983573913574219,-0.027803629636764526,-0.030970420688390732,0.2778531312942505,0.9597216248512268,[0. 0. 0. 0. 0. 0. 0. 0. 0.],8.48388671875,28.13720703125,-77.69775390625,[0. 0. 0. 0. 0. 0. 0. 0. 0.],0.318359375,0.224609375,1.1279296875,[0. 0. 0. 0. 0. 0. 0. 0. 0.]
8.003605842590332,-0.026334866881370544,-0.026134975254535675,0.2645110785961151,0.9636687636375427,[0. 0. 0. 0. 0. 0. 0. 0. 0.],8.4228515625,23.49853515625,-79.2236328125,[0. 0. 0. 0. 0. 0. 0. 0. 0.],-0.02294921875,0.26171875,0.9638671875,[0. 0. 0. 0. 0. 0. 0. 0. 0.]
8.023188829421997,-0.02470639906823635,-0.021995529532432556,0.25171083211898804,0.9672370553016663,[0. 0. 0. 0. 0. 0. 0. 0. 0.],6.40869140625,16.17431640625,-75.3173828125,[0. 0. 0. 0. 0. 0. 0. 0. 0.],-0.14892578125,0.29541015625,0.87353515625,[0. 0. 0. 0. 0. 0. 0. 0. 0.]
8.043640613555908,-0.023321598768234253,-0.017768267542123795,0.2389540672302246,0.970588207244873,[0. 0. 0. 0. 0. 0. 0. 0. 0.],1.64794921875,22.76611328125,-74.462890625,[0. 0. 0. 0. 0. 0. 0. 0. 0.],-0.0693359375,0.30419921875,0.89404296875,[0. 0. 0. 0. 0. 0. 0. 0. 0.]
8.06347918510437,-0.022067110985517502,-0.01468021422624588,0.22642843425273895,0.9736671447753906,[0. 0. 0. 0. 0. 0. 0. 0. 0.],-1.3427734375,9.1552734375,-73.974609375,[0. 0. 0. 0. 0. 0. 0. 0. 0.],-0.13525390625,0.3408203125,0.96875,[0. 0. 0. 0. 0. 0. 0. 0. 0.]
8.084925889968872,-0.021299609914422035,-0.013029249384999275,0.2139304131269455,0.9765297770500183,[0. 0. 0. 0. 0. 0. 0. 0. 0.],-5.126953125,9.033203125,-71.83837890625,[0. 0. 0. 0. 0. 0. 0. 0. 0.],-0.15966796875,0.37255859375,1.05859375,[0. 0. 0. 0. 0. 0. 0. 0. 0.]
8.104237794876099,-0.020108317956328392,-0.011809068731963634,0.2019587606191635,0.9791163802146912,[0. 0. 0. 0. 0. 0. 0. 0. 0.],3.41796875,2.13623046875,-69.15283203125,[0. 0. 0. 0. 0. 0. 0. 0. 0.],-0.13818359375,0.31787109375,1.1396484375,[0. 0. 0. 0. 0. 0. 0. 0. 0.]
8.12365984916687,-0.018928347155451775,-0.01050765160471201,0.1910681128501892,0.9813380837440491,[0. 0. 0. 0. 0. 0. 0. 0. 0.],1.0986328125,0.6103515625,-61.21826171875,[0. 0. 0. 0. 0. 0. 0. 0. 0.],-0.1396484375,0.2978515625,0.99169921875,[0. 0. 0. 0. 0. 0. 0. 0. 0.]
8.143202304840088,-0.017739631235599518,-0.009906766936182976,0.18114006519317627,0.9832473993301392,[0. 0. 0. 0. 0. 0. 0. 0. 0.],-1.220703125,0.6103515625,-55.7861328125,[0. 0. 0. 0. 0. 0. 0. 0. 0.],-0.14892578125,0.328125,0.966796875,[0. 0. 0. 0. 0. 0. 0. 0. 0.]
8.164091110229492,-0.01636654883623123,-0.00975240208208561,0.17198903858661652,0.9849146008491516,[0. 0. 0. 0. 0. 0. 0. 0. 0.],-0.91552734375,-2.197265625,-51.513671875,[0. 0. 0. 0. 0. 0. 0. 0. 0.],-0.1298828125,0.3232421875,1.001953125,[0. 0. 0. 0. 0. 0. 0. 0. 0.]
8.183172464370728,-0.014999986626207829,-0.009353427216410637,0.1635964810848236,0.9863689541816711,[0. 0. 0. 0. 0. 0. 0. 0. 0.],0.732421875,-2.8076171875,-46.9970703125,[0. 0. 0. 0. 0. 0. 0. 0. 0.],-0.10791015625,0.31201171875,1.00732421875,[0. 0. 0. 0. 0. 0. 0. 0. 0.]
8.203265905380249,-0.013220750726759434,-0.008632670156657696,0.1543641835451126,0.9878879189491272,[0. 0. 0. 0. 0. 0. 0. 0. 0.],1.28173828125,-0.732421875,-39.4287109375,[0. 0. 0. 0. 0. 0. 0. 0. 0.],-0.078125,0.302734375,1.01806640625,[0. 0. 0. 0. 0. 0. 0. 0. 0.]
8.223526954650879,-0.011995428241789341,-0.008228384889662266,0.14945432543754578,0.9886617064476013,[0. 0. 0. 0. 0. 0. 0. 0. 0.],1.46484375,1.220703125,-36.92626953125,[0. 0. 0. 0. 0. 0. 0. 0. 0.],-0.0556640625,0.30419921875,1.03076171875,[0. 0. 0. 0. 0. 0. 0. 0. 0.]
8.243568420410156,-0.010656575672328472,-0.0080098332837224,0.14353956282138824,0.9895548224449158,[0. 0. 0. 0. 0. 0. 0. 0. 0.],-2.3193359375,-1.708984375,-32.89794921875,[0. 0. 0. 0. 0. 0. 0. 0. 0.],-0.060546875,0.326171875,1.00634765625,[0. 0. 0. 0. 0. 0. 0. 0. 0.]
8.263089418411255,-0.009541780687868595,-0.007878356613218784,0.13814093172550201,0.9903354048728943,[0. 0. 0. 0. 0. 0. 0. 0. 0.],-1.77001953125,-2.685546875,-29.78515625,[0. 0. 0. 0. 0. 0. 0. 0. 0.],-0.041015625,0.31298828125,1.01806640625,[0. 0. 0. 0. 0. 0. 0. 0. 0.]
8.27835726737976,-0.008180978707969189,-0.007938608527183533,0.133299320936203,0.991010308265686,[0. 0. 0. 0. 0. 0. 0. 0. 0.],-0.79345703125,-1.03759765625,-26.55029296875,[0. 0. 0. 0. 0. 0. 0. 0. 0.],-0.02392578125,0.28759765625,0.99462890625,[0. 0. 0. 0. 0. 0. 0. 0. 0.]
8.30351734161377,-0.006680307909846306,-0.0078075299970805645,0.1291339099407196,0.9915739297866821,[0. 0. 0. 0. 0. 0. 0. 0. 0.],0.1220703125,-0.48828125,-22.5830078125,[0. 0. 0. 0. 0. 0. 0. 0. 0.],-0.0263671875,0.27001953125,1.01171875,[0. 0. 0. 0. 0. 0. 0. 0. 0.]
8.324224472045898,-0.005156046710908413,-0.007244978100061417,0.1257091909646988,0.9920272827148438,[0. 0. 0. 0. 0. 0. 0. 0. 0.],0.79345703125,-1.3427734375,-18.06640625,[0. 0. 0. 0. 0. 0. 0. 0. 0.],-0.0458984375,0.265625,1.033203125,[0. 0. 0. 0. 0. 0. 0. 0. 0.]
8.343375444412231,-0.0037233280017971992,-0.006912616081535816,0.12283526360988617,0.9923959970474243,[0. 0. 0. 0. 0. 0. 0. 0. 0.],-1.15966796875,1.46484375,-15.07568359375,[0. 0. 0. 0. 0. 0. 0. 0. 0.],-0.0166015625,0.26220703125,1.00537109375,[0. 0. 0. 0. 0. 0. 0. 0. 0.]
8.363943815231323,-0.0022299010306596756,-0.006721615791320801,0.12026651948690414,0.9927164316177368,[0. 0. 0. 0. 0. 0. 0. 0. 0.],0.30517578125,-0.30517578125,-14.6484375,[0. 0. 0. 0. 0. 0. 0. 0. 0.],0.01171875,0.2373046875,1.01318359375,[0. 0. 0. 0. 0. 0. 0. 0. 0.]
8.384511947631836,-0.000691364286467433,-0.006412846501916647,0.11802787333726883,0.9929894208908081,[0. 0. 0. 0. 0. 0. 0. 0. 0.],-1.0986328125,0.54931640625,-11.962890625,[0. 0. 0. 0. 0. 0. 0. 0. 0.],0.0009765625,0.2138671875,0.990234375,[0. 0. 0. 0. 0. 0. 0. 0. 0.]
8.403338193893433,0.0006717310170643032,-0.005911007523536682,0.11631366610527039,0.9931947588920593,[0. 0. 0. 0. 0. 0. 0. 0. 0.],-0.48828125,0.3662109375,-8.9111328125,[0. 0. 0. 0. 0. 0. 0. 0. 0.],-0.029296875,0.19140625,0.99853515625,[0. 0. 0. 0. 0. 0. 0. 0. 0.]
8.424022436141968,0.0022649846505373716,-0.005291127134114504,0.11498189717531204,0.9933509230613708,[0. 0. 0. 0. 0. 0. 0. 0. 0.],0.8544921875,0.1220703125,-7.01904296875,[0. 0. 0. 0. 0. 0. 0. 0. 0.],-0.03076171875,0.1806640625,1.0283203125,[0. 0. 0. 0. 0. 0. 0. 0. 0.]
8.440230369567871,0.0033593173138797283,-0.004982839338481426,0.11367953568696976,0.9934992790222168,[0. 0. 0. 0. 0. 0. 0. 0. 0.],-5.79833984375,4.2724609375,-7.38525390625,[0. 0. 0. 0. 0. 0. 0. 0. 0.],0.0244140625,0.10009765625,0.9560546875,[0. 0. 0. 0. 0. 0. 0. 0. 0.]
8.463088035583496,0.0016235793009400368,-0.003678683191537857,0.11256279051303864,0.9936366081237793,[0. 0. 0. 0. 0. 0. 0. 0. 0.],-14.34326171875,12.8173828125,-3.60107421875,[0. 0. 0. 0. 0. 0. 0. 0. 0.],-0.0517578125,-0.09765625,0.95556640625,[0. 0. 0. 0. 0. 0. 0. 0. 0.]
8.483312845230103,-0.0020165350288152695,-0.0021197597961872816,0.11151894927024841,0.9937580227851868,[0. 0. 0. 0. 0. 0. 0. 0. 0.],-4.82177734375,1.52587890625,-8.30078125,[0. 0. 0. 0. 0. 0. 0. 0. 0.],-0.08544921875,-0.18310546875,1.06396484375,[0. 0. 0. 0. 0. 0. 0. 0. 0.]
8.503256559371948,-0.00532143097370863,2.4668954210937954e-05,0.1103084608912468,0.9938831329345703,[0. 0. 0. 0. 0. 0. 0. 0. 0.],-7.87353515625,12.02392578125,-8.48388671875,[0. 0. 0. 0. 0. 0. 0. 0. 0.],-0.08984375,-0.2099609375,1.009765625,[0. 0. 0. 0. 0. 0. 0. 0. 0.]
8.523242235183716,-0.007432923186570406,0.0011114900698885322,0.10862886160612106,0.9940540194511414,[0. 0. 0. 0. 0. 0. 0. 0. 0.],3.84521484375,2.0751953125,-9.3994140625,[0. 0. 0. 0. 0. 0. 0. 0. 0.],-0.1103515625,-0.1494140625,1.0244140625,[0. 0. 0. 0. 0. 0. 0. 0. 0.]
8.543151378631592,-0.005603177472949028,0.0006474138353951275,0.10594276338815689,0.9943562746047974,[0. 0. 0. 0. 0. 0. 0. 0. 0.],0.42724609375,-1.40380859375,-14.83154296875,[0. 0. 0. 0. 0. 0. 0. 0. 0.],0.02783203125,0.09423828125,0.99755859375,[0. 0. 0. 0. 0. 0. 0. 0. 0.]
8.560085773468018,-0.009112211875617504,0.0012769195018336177,0.10304928570985794,0.9946337938308716,[0. 0. 0. 0. 0. 0. 0. 0. 0.],-17.2119140625,3.41796875,-17.39501953125,[0. 0. 0. 0. 0. 0. 0. 0. 0.],0.01123046875,-0.267578125,0.9326171875,[0. 0. 0. 0. 0. 0. 0. 0. 0.]
8.583148002624512,-0.012976324185729027,0.0019928356632590294,0.09937455505132675,0.994963526725769,[0. 0. 0. 0. 0. 0. 0. 0. 0.],-9.94873046875,4.150390625,-23.98681640625,[0. 0. 0. 0. 0. 0. 0. 0. 0.],-0.05517578125,-0.35693359375,1.1044921875,[0. 0. 0. 0. 0. 0. 0. 0. 0.]
8.604522943496704,-0.015260493382811546,0.003102483693510294,0.09486613422632217,0.9953683018684387,[0. 0. 0. 0. 0. 0. 0. 0. 0.],-0.06103515625,5.92041015625,-27.52685546875,[0. 0. 0. 0. 0. 0. 0. 0. 0.],-0.06591796875,-0.330078125,1.07373046875,[0. 0. 0. 0. 0. 0. 0. 0. 0.]
8.624450445175171,-0.016831299290060997,0.0037311739288270473,0.08935412019491196,0.9958507418632507,[0. 0. 0. 0. 0. 0. 0. 0. 0.],-2.86865234375,2.685546875,-32.3486328125,[0. 0. 0. 0. 0. 0. 0. 0. 0.],-0.0849609375,-0.29052734375,0.97119140625,[0. 0. 0. 0. 0. 0. 0. 0. 0.]
8.645064115524292,-0.01826157607138157,0.0034616843331605196,0.08285368233919144,0.9963884353637695,[0. 0. 0. 0. 0. 0. 0. 0. 0.],2.685546875,-11.29150390625,-42.17529296875,[0. 0. 0. 0. 0. 0. 0. 0. 0.],-0.083984375,-0.275390625,0.94970703125,[0. 0. 0. 0. 0. 0. 0. 0. 0.]
8.663213968276978,-0.02050345577299595,0.003817744320258498,0.07578776776790619,0.9969058632850647,[0. 0. 0. 0. 0. 0. 0. 0. 0.],-3.7841796875,2.3193359375,-42.66357421875,[0. 0. 0. 0. 0. 0. 0. 0. 0.],-0.0556640625,-0.29931640625,0.9638671875,[0. 0. 0. 0. 0. 0. 0. 0. 0.]
8.685814142227173,-0.022171886637806892,0.006157199386507273,0.06810972094535828,0.9974124431610107,[0. 0. 0. 0. 0. 0. 0. 0. 0.],-2.197265625,18.61572265625,-43.76220703125,[0. 0. 0. 0. 0. 0. 0. 0. 0.],-0.04248046875,-0.3212890625,1.001953125,[0. 0. 0. 0. 0. 0. 0. 0. 0.]
8.703077793121338,-0.024728713557124138,0.007177256513386965,0.05956736207008362,0.9978922009468079,[0. 0. 0. 0. 0. 0. 0. 0. 0.],-10.1318359375,2.685546875,-50.59814453125,[0. 0. 0. 0. 0. 0. 0. 0. 0.],-0.11962890625,-0.205078125,0.82470703125,[0. 0. 0. 0. 0. 0. 0. 0. 0.]
8.723386287689209,-0.028560105711221695,0.007627611979842186,0.049857206642627716,0.9983188509941101,[0. 0. 0. 0. 0. 0. 0. 0. 0.],-9.94873046875,-5.37109375,-59.63134765625,[0. 0. 0. 0. 0. 0. 0. 0. 0.],-0.1005859375,-0.291015625,0.98583984375,[0. 0. 0. 0. 0. 0. 0. 0. 0.]
8.743960618972778,-0.030475422739982605,0.006824089214205742,0.03882799670100212,0.9987578392028809,[0. 0. 0. 0. 0. 0. 0. 0. 0.],1.15966796875,-3.2958984375,-64.88037109375,[0. 0. 0. 0. 0. 0. 0. 0. 0.],-0.11669921875,-0.39892578125,1.154296875,[0. 0. 0. 0. 0. 0. 0. 0. 0.]
8.76482629776001,-0.030253078788518906,0.007309429347515106,0.02737933024764061,0.9991405010223389,[0. 0. 0. 0. 0. 0. 0. 0. 0.],11.04736328125,5.43212890625,-65.36865234375,[0. 0. 0. 0. 0. 0. 0. 0. 0.],-0.13232421875,-0.3251953125,1.0673828125,[0. 0. 0. 0. 0. 0. 0. 0. 0.]
8.784790754318237,-0.030195143073797226,0.010244029574096203,0.016395658254623413,0.9993570446968079,[0. 0. 0. 0. 0. 0. 0. 0. 0.],4.7607421875,10.80322265625,-61.46240234375,[0. 0. 0. 0. 0. 0. 0. 0. 0.],-0.24609375,-0.2041015625,1.0009765625,[0. 0. 0. 0. 0. 0. 0. 0. 0.]
8.800259351730347,-0.029980627819895744,0.011682169511914253,0.005989464465528727,0.9994643330574036,[0. 0. 0. 0. 0. 0. 0. 0. 0.],3.90625,-1.953125,-59.38720703125,[0. 0. 0. 0. 0. 0. 0. 0. 0.],-0.359375,-0.11279296875,0.99267578125,[0. 0. 0. 0. 0. 0. 0. 0. 0.]
8.823659896850586,-0.03003774583339691,0.013658827170729637,-0.004642399027943611,0.9994446039199829,[0. 0. 0. 0. 0. 0. 0. 0. 0.],3.2958984375,8.48388671875,-61.82861328125,[0. 0. 0. 0. 0. 0. 0. 0. 0.],-0.1787109375,-0.11474609375,1.00732421875,[0. 0. 0. 0. 0. 0. 0. 0. 0.]
8.843562126159668,-0.029726510867476463,0.01622798666357994,-0.01554674468934536,0.9993053674697876,[0. 0. 0. 0. 0. 0. 0. 0. 0.],5.18798828125,7.14111328125,-63.1103515625,[0. 0. 0. 0. 0. 0. 0. 0. 0.],-0.14599609375,-0.07861328125,0.95166015625,[0. 0. 0. 0. 0. 0. 0. 0. 0.]
8.863429069519043,-0.02826029621064663,0.017419395968317986,-0.02689356729388237,0.9990869164466858,[0. 0. 0. 0. 0. 0. 0. 0. 0.],8.056640625,-4.45556640625,-66.10107421875,[0. 0. 0. 0. 0. 0. 0. 0. 0.],-0.16259765625,-0.01953125,0.97998046875,[0. 0. 0. 0. 0. 0. 0. 0. 0.]
8.884688138961792,-0.02627633698284626,0.017750397324562073,-0.038690678775310516,0.9987480640411377,[0. 0. 0. 0. 0. 0. 0. 0. 0.],7.14111328125,-3.5400390625,-69.27490234375,[0. 0. 0. 0. 0. 0. 0. 0. 0.],-0.1240234375,0.03564453125,1.0361328125,[0. 0. 0. 0. 0. 0. 0. 0. 0.]
8.903640031814575,-0.024134749546647072,0.017818240448832512,-0.050774626433849335,0.9982595443725586,[0. 0. 0. 0. 0. 0. 0. 0. 0.],6.89697265625,-3.173828125,-69.64111328125,[0. 0. 0. 0. 0. 0. 0. 0. 0.],-0.13037109375,0.076171875,0.98681640625,[0. 0. 0. 0. 0. 0. 0. 0. 0.]
8.918087482452393,-0.02173050306737423,0.019150013104081154,-0.06313205510377884,0.9975847601890564,[0. 0. 0. 0. 0. 0. 0. 0. 0.],4.638671875,11.3525390625,-71.533203125,[0. 0. 0. 0. 0. 0. 0. 0. 0.],-0.06005859375,0.10595703125,1.01171875,[0. 0. 0. 0. 0. 0. 0. 0. 0.]
8.941568374633789,-0.01924761012196541,0.021077901124954224,-0.07865483313798904,0.9964931607246399,[0. 0. 0. 0. 0. 0. 0. 0. 0.],3.23486328125,1.28173828125,-71.4111328125,[0. 0. 0. 0. 0. 0. 0. 0. 0.],-0.15966796875,0.10888671875,1.00390625,[0. 0. 0. 0. 0. 0. 0. 0. 0.]
8.961281776428223,-0.01767764985561371,0.021926384419202805,-0.08788397163152695,0.9957325458526611,[0. 0. 0. 0. 0. 0. 0. 0. 0.],6.28662109375,5.43212890625,-70.49560546875,[0. 0. 0. 0. 0. 0. 0. 0. 0.],-0.1474609375,0.1279296875,1.005859375,[0. 0. 0. 0. 0. 0. 0. 0. 0.]
8.983338832855225,-0.013356726616621017,0.022758381441235542,-0.10297947376966476,0.9943334460258484,[0. 0. 0. 0. 0. 0. 0. 0. 0.],11.29150390625,1.220703125,-68.17626953125,[0. 0. 0. 0. 0. 0. 0. 0. 0.],-0.1494140625,0.27392578125,1.017578125,[0. 0. 0. 0. 0. 0. 0. 0. 0.]
9.003457307815552,-0.011242369189858437,0.021932758390903473,-0.11199759691953659,0.9934028387069702,[0. 0. 0. 0. 0. 0. 0. 0. 0.],6.77490234375,-5.4931640625,-67.81005859375,[0. 0. 0. 0. 0. 0. 0. 0. 0.],-0.15185546875,0.3232421875,0.9716796875,[0. 0. 0. 0. 0. 0. 0. 0. 0.]
9.02307415008545,-0.009745975956320763,0.021360358223319054,-0.1234605461359024,0.992071807384491,[0. 0. 0. 0. 0. 0. 0. 0. 0.],1.220703125,-3.90625,-65.12451171875,[0. 0. 0. 0. 0. 0. 0. 0. 0.],-0.1142578125,0.33154296875,0.96337890625,[0. 0. 0. 0. 0. 0. 0. 0. 0.]
9.043819189071655,-0.008316201157867908,0.021256018429994583,-0.13365241885185242,0.9907654523849487,[0. 0. 0. 0. 0. 0. 0. 0. 0.],1.52587890625,-2.0751953125,-55.48095703125,[0. 0. 0. 0. 0. 0. 0. 0. 0.],-0.1142578125,0.2666015625,1.02734375,[0. 0. 0. 0. 0. 0. 0. 0. 0.]
9.063653469085693,-0.0061684525571763515,0.020419292151927948,-0.14162787795066833,0.9896902441978455,[0. 0. 0. 0. 0. 0. 0. 0. 0.],6.2255859375,-3.173828125,-40.10009765625,[0. 0. 0. 0. 0. 0. 0. 0. 0.],-0.1181640625,0.24609375,1.02294921875,[0. 0. 0. 0. 0. 0. 0. 0. 0.]
9.084542274475098,-0.0043432507663965225,0.01935637928545475,-0.14728377759456635,0.9888953566551208,[0. 0. 0. 0. 0. 0. 0. 0. 0.],0.732421875,-4.21142578125,-27.9541015625,[0. 0. 0. 0. 0. 0. 0. 0. 0.],-0.08251953125,0.291015625,1.00439453125,[0. 0. 0. 0. 0. 0. 0. 0. 0.]
9.103129386901855,-0.0031887406948953867,0.018319210037589073,-0.15066303312778473,0.9884103536605835,[0. 0. 0. 0. 0. 0. 0. 0. 0.],0.06103515625,-6.591796875,-16.41845703125,[0. 0. 0. 0. 0. 0. 0. 0. 0.],-0.0732421875,0.2958984375,1.017578125,[0. 0. 0. 0. 0. 0. 0. 0. 0.]
9.123489379882812,-0.0018202217761427164,0.01718289405107498,-0.1523745208978653,0.9881718754768372,[0. 0. 0. 0. 0. 0. 0. 0. 0.],1.64794921875,-8.11767578125,-6.40869140625,[0. 0. 0. 0. 0. 0. 0. 0. 0.],-0.0634765625,0.27294921875,1.02294921875,[0. 0. 0. 0. 0. 0. 0. 0. 0.]
9.143100500106812,3.197621845174581e-05,0.016209807246923447,-0.1531066745519638,0.9880768060684204,[0. 0. 0. 0. 0. 0. 0. 0. 0.],2.9296875,-1.77001953125,-3.11279296875,[0. 0. 0. 0. 0. 0. 0. 0. 0.],-0.02685546875,0.2939453125,1.01904296875,[0. 0. 0. 0. 0. 0. 0. 0. 0.]
9.163575410842896,0.0020862186793237925,0.015505319461226463,-0.15351217985153198,0.9880229234695435,[0. 0. 0. 0. 0. 0. 0. 0. 0.],2.44140625,1.5869140625,-2.74658203125,[0. 0. 0. 0. 0. 0. 0. 0. 0.],-0.01416015625,0.30712890625,1.02001953125,[0. 0. 0. 0. 0. 0. 0. 0. 0.]
9.183464050292969,0.003695145947858691,0.015283113345503807,-0.15380114316940308,0.9879767298698425,[0. 0. 0. 0. 0. 0. 0. 0. 0.],0.42724609375,-0.244140625,-1.77001953125,[0. 0. 0. 0. 0. 0. 0. 0. 0.],-0.037109375,0.29833984375,0.9912109375,[0. 0. 0. 0. 0. 0. 0. 0. 0.]
9.203110218048096,0.0053629386238753796,0.015054346062242985,-0.15411807596683502,0.9879232048988342,[0. 0. 0. 0. 0. 0. 0. 0. 0.],0.67138671875,-0.8544921875,-1.52587890625,[0. 0. 0. 0. 0. 0. 0. 0. 0.],-0.03759765625,0.2939453125,1.013671875,[0. 0. 0. 0. 0. 0. 0. 0. 0.]
9.223697185516357,0.006822163239121437,0.014728676527738571,-0.1543940007686615,0.9878760576248169,[0. 0. 0. 0. 0. 0. 0. 0. 0.],-0.30517578125,-1.708984375,-2.3193359375,[0. 0. 0. 0. 0. 0. 0. 0. 0.],-0.0439453125,0.287109375,1.0146484375,[0. 0. 0. 0. 0. 0. 0. 0. 0.]
9.243132591247559,0.008230878971517086,0.014098607003688812,-0.1547493040561676,0.9878188967704773,[0. 0. 0. 0. 0. 0. 0. 0. 0.],-0.732421875,-2.44140625,-1.89208984375,[0. 0. 0. 0. 0. 0. 0. 0. 0.],-0.03955078125,0.2607421875,1.0048828125,[0. 0. 0. 0. 0. 0. 0. 0. 0.]
9.263134956359863,0.00957139115780592,0.013735109940171242,-0.15494215488433838,0.9877817630767822,[0. 0. 0. 0. 0. 0. 0. 0. 0.],-0.8544921875,-1.220703125,-1.03759765625,[0. 0. 0. 0. 0. 0. 0. 0. 0.],-0.0458984375,0.24658203125,1.00341796875,[0. 0. 0. 0. 0. 0. 0. 0. 0.]
