time,imu.ypr.x,imu.ypr.y,imu.ypr.z,imu.linear_acceleration.x,imu.linear_acceleration.y,imu.linear_acceleration.z,imu.angular_velocity.x,imu.angular_velocity.y,imu.angular_velocity.z,imu.compass.x,imu.compass.y,imu.compass.z,imu.orientation.x,imu.orientation.y,imu.orientation.z,imu.orientation.w
0.18256044387817383,-0.975724966334879,2.0888329979656293,174.4615412147764,-0.03662109375,0.0166015625,1.0029296875,-0.48828125,-0.48828125,-0.06103515625,0.0,0.0,0.0,-0.01861685700714588,0.007622749079018831,0.9986375570297241,-0.048148516565561295
0.19527196884155273,-0.9921555199918736,2.1628908181453737,174.46462846028123,-0.0380859375,0.017578125,1.00341796875,-0.48828125,-0.42724609375,-0.1220703125,0.0,0.0,0.0,-0.019268931820988655,0.007735132239758968,0.9986261129379272,-0.04811287298798561
0.22430086135864258,-0.9490240493220067,2.1979749385907903,174.47021555502232,-0.0380859375,0.01611328125,1.00439453125,0.30517578125,-0.3662109375,-0.18310546875,0.0,0.0,0.0,-0.019556205719709396,0.007345383521169424,0.9986255168914795,-0.048068538308143616
0.23985552787780762,-0.8620936704343156,2.1173787063846397,174.47576166862837,-0.03662109375,0.01416015625,1.00390625,0.06103515625,-0.8544921875,-0.06103515625,0.0,0.0,0.0,-0.018817046657204628,0.006622742395848036,0.9986461997032166,-0.04804099723696709
0.26041173934936523,-0.8027097646344034,2.131936614270287,174.4796685368336,-0.037109375,0.01416015625,1.0048828125,-0.244140625,-0.91552734375,-0.1220703125,0.0,0.0,0.0,-0.018918808549642563,0.006099730264395475,0.9986487627029419,-0.04801562801003456
0.2807168960571289,-0.9263290382573468,2.1462827862916645,174.47696378192228,-0.03759765625,0.01611328125,1.00341796875,-0.42724609375,-0.244140625,0.0,0.0,0.0,0.0,-0.019095787778496742,0.0071705542504787445,0.9986381530761719,-0.04801762476563454
0.30222344398498535,-0.9174536343177384,2.1759663615377165,174.48208642379979,-0.0380859375,0.01611328125,1.00146484375,-0.244140625,-0.30517578125,-0.18310546875,0.0,0.0,0.0,-0.019350435584783554,0.007081552408635616,0.9986361265182495,-0.04797225445508957
0.3237743377685547,-0.8711490071698716,2.0576262905346643,174.4857747259516,-0.0361328125,0.015625,1.0029296875,-0.42724609375,-0.48828125,-0.1220703125,0.0,0.0,0.0,-0.0182995293289423,0.006728452630341053,0.998659074306488,-0.04795663431286812
0.3403301239013672,-0.918120324813755,2.220805272778381,174.4884384997279,-0.0390625,0.01611328125,1.0048828125,-0.1220703125,-0.79345703125,-0.1220703125,0.0,0.0,0.0,-0.01974107325077057,0.00706956721842289,0.9986314177513123,-0.04791323095560074
0.3601338863372803,-0.865207969891577,2.149157655602005,174.49205849998802,-0.037109375,0.0146484375,1.001953125,0.18310546875,-0.6103515625,-0.18310546875,0.0,0.0,0.0,-0.019094351679086685,0.006639198400080204,0.9986478090286255,-0.0478961244225502
0.37999749183654785,-0.8852822160273618,2.1133452662363355,174.4946129907376,-0.03759765625,0.0166015625,1.0029296875,-0.18310546875,-0.244140625,-0.06103515625,0.0,0.0,0.0,-0.01879049465060234,0.006829618010669947,0.9986533522605896,-0.04787323623895645
0.4005420207977295,-1.016896813043187,2.178933224958441,174.4925366132299,-0.0380859375,0.01806640625,1.00341796875,-0.42724609375,-0.732421875,-0.1220703125,0.0,0.0,0.0,-0.019417187198996544,0.007948694750666618,0.9986335039138794,-0.04786401987075806
0.4201977252960205,-0.804434227317273,2.1095754287013118,174.50541835000456,-0.037109375,0.013671875,1.005859375,0.06103515625,-0.91552734375,-0.30517578125,0.0,0.0,0.0,-0.01872328110039234,0.006128385663032532,0.998663067817688,-0.04779250919818878
0.44013047218322754,-0.8848509002534461,2.1079940264650423,174.50622431232662,-0.037109375,0.015625,1.00439453125,0.244140625,-0.732421875,-0.244140625,0.0,0.0,0.0,-0.018742986023426056,0.006830007769167423,0.9986591339111328,-0.04777246341109276
0.46337366104125977,-0.8150527702382627,2.207599315461573,174.50984431258672,-0.03857421875,0.01513671875,1.0029296875,-0.18310546875,-0.48828125,-0.1220703125,0.0,0.0,0.0,-0.019581731408834457,0.006180575117468834,0.998648464679718,-0.047745347023010254
0.4808237552642822,-0.9729872344164675,2.1166406190674554,174.50588280286811,-0.037109375,0.01708984375,1.0029296875,-0.3662109375,-0.6103515625,-0.06103515625,0.0,0.0,0.0,-0.018855102360248566,0.007594426162540913,0.9986520409584045,-0.04776030778884888
0.49587011337280273,-0.9242065569727653,2.159174554906652,174.51250808636303,-0.03759765625,0.01611328125,1.00244140625,0.244140625,-0.54931640625,-0.18310546875,0.0,0.0,0.0,-0.01920502819120884,0.007152577396482229,0.9986511468887329,-0.0477072112262249
0.5206074714660645,-0.9165774491132727,2.0308380751664625,174.51663352062172,-0.0361328125,0.01611328125,1.0048828125,0.18310546875,-0.732421875,-0.244140625,0.0,0.0,0.0,-0.01808316260576248,0.007140503730624914,0.9986733794212341,-0.04768256098031998
0.5401561260223389,-0.9211312642989671,2.170395915382748,174.5187782000211,-0.0380859375,0.01611328125,1.00244140625,-0.244140625,-0.9765625,-0.1220703125,0.0,0.0,0.0,-0.019301148131489754,0.007122129667550325,0.9986521601676941,-0.04765232279896736
0.5555675029754639,-0.928138184613754,2.1880180168847927,174.51998031331502,-0.03857421875,0.01611328125,1.00390625,-0.3662109375,-0.6103515625,-0.18310546875,0.0,0.0,0.0,-0.019457560032606125,0.0071760243736207485,0.9986493587493896,-0.047639209777116776
0.580164909362793,-0.8800245178311858,2.0603854735159377,174.52424235135712,-0.0361328125,0.015625,1.00390625,-0.06103515625,-0.18310546875,-0.1220703125,0.0,0.0,0.0,-0.01832500286400318,0.006810793187469244,0.9986742734909058,-0.04761975631117821
0.6001389026641846,-0.8696993528793893,2.054458149976836,174.52779404972551,-0.03662109375,0.015625,1.0048828125,-0.3662109375,-0.3662109375,-0.18310546875,0.0,0.0,0.0,-0.018268849700689316,0.006723851431161165,0.9986771941184998,-0.04759093001484871
0.621035099029541,-0.8335907574193235,2.133553021226053,174.53257518214454,-0.03759765625,0.0146484375,1.00341796875,-0.1220703125,-0.8544921875,-0.06103515625,0.0,0.0,0.0,-0.01894289255142212,0.006376917008310556,0.998668909072876,-0.047549404203891754
0.6400852203369141,-0.8664200616649899,2.1075261585068965,174.5352662766775,-0.037109375,0.015625,1.0048828125,0.1220703125,-0.79345703125,-0.30517578125,0.0,0.0,0.0,-0.01872953586280346,0.006674326490610838,0.998672366142273,-0.04752246290445328
0.6601505279541016,-0.9170284550419051,2.126126898050957,174.53439201246374,-0.037109375,0.015625,1.0029296875,0.0,-0.6103515625,-0.18310546875,0.0,0.0,0.0,-0.018912678584456444,0.0071074771694839,0.998665988445282,-0.04752030596137047
0.6807827949523926,-0.9129643857640417,2.113973643639977,174.53644106921476,-0.037109375,0.01611328125,1.00244140625,-0.48828125,-0.54931640625,-0.1220703125,0.0,0.0,0.0,-0.01880495250225067,0.007077467627823353,0.9986689686775208,-0.04750403016805649
0.7001326084136963,-0.8990194873564029,2.1445942354627903,174.54070310725683,-0.03759765625,0.015625,1.0048828125,-0.244140625,-0.42724609375,-0.06103515625,0.0,0.0,0.0,-0.019065769389271736,0.006943872664123774,0.9986667633056641,-0.04746688902378082
0.7202112674713135,-0.889793716056714,2.054025073294775,174.54473291886714,-0.0361328125,0.01513671875,1.00537109375,0.42724609375,-0.6103515625,-0.06103515625,0.0,0.0,0.0,-0.0182723980396986,0.0069018579088151455,0.9986831545829773,-0.04744011163711548
0.7400493621826172,-0.8702464617040779,2.059522094916166,174.54868076820742,-0.0361328125,0.0146484375,1.00390625,0.1220703125,-1.03759765625,-0.1220703125,0.0,0.0,0.0,-0.01831197924911976,0.006729842163622379,0.9986851215362549,-0.04740844666957855
0.7601830959320068,-0.9094477988368372,2.1619277614724015,174.5504839381483,-0.03759765625,0.01513671875,1.0029296875,-0.42724609375,-0.9765625,-0.18310546875,0.0,0.0,0.0,-0.01922054961323738,0.007029172498732805,0.9986673593521118,-0.04737858474254608
0.7809638977050781,-0.8935465848405186,2.168046543751675,174.55327065532967,-0.03857421875,0.015625,1.00439453125,-0.244140625,-0.3662109375,-0.1220703125,0.0,0.0,0.0,-0.0192671287804842,0.0068885162472724915,0.9986685514450073,-0.047356463968753815
0.8001096248626709,-0.8376566409661852,2.0548487514199962,174.55756001412843,-0.0361328125,0.0146484375,1.0029296875,0.18310546875,-0.244140625,-0.06103515625,0.0,0.0,0.0,-0.018257267773151398,0.0064491769298911095,0.9986913204193115,-0.04733653366565704
0.8205797672271729,-0.8443446234632441,2.0573814709416016,174.56075654266,-0.0361328125,0.0146484375,1.0029296875,-0.06103515625,-1.03759765625,-0.06103515625,0.0,0.0,0.0,-0.018281923606991768,0.006506920792162418,0.9986919164657593,-0.047307491302490234
0.8401594161987305,-0.9469003940986617,2.064414004465776,174.55820205191043,-0.03564453125,0.01611328125,1.0029296875,-0.1220703125,-1.03759765625,-0.18310546875,0.0,0.0,0.0,-0.01838570646941662,0.007397384382784367,0.9986836314201355,-0.04731279984116554
0.8600177764892578,-0.9532025242684677,2.0851148137362037,174.5617810710355,-0.03662109375,0.0166015625,1.00341796875,0.0,-0.3662109375,-0.18310546875,0.0,0.0,0.0,-0.018568485975265503,0.007444285787642002,0.9986814260482788,-0.0472789891064167
0.8800852298736572,-0.8893189111876922,2.197288077692381,174.56762771296502,-0.03857421875,0.015625,1.00439453125,-0.18310546875,-0.06103515625,-0.1220703125,0.0,0.0,0.0,-0.019519364461302757,0.006841958034783602,0.9986698627471924,-0.04722987115383148
0.900235652923584,-0.8497500778610746,2.089407374186145,174.57346069451623,-0.03662109375,0.0146484375,1.00439453125,-0.244140625,-0.732421875,-0.244140625,0.0,0.0,0.0,-0.01856253668665886,0.006542792543768883,0.9986918568611145,-0.047193605452775955
0.9178121089935303,-0.909962090736998,2.0843876120330087,174.57589224186074,-0.03662109375,0.015625,1.00537109375,0.0,-0.6103515625,-0.1220703125,0.0,0.0,0.0,-0.018543437123298645,0.007070027757436037,0.9986900091171265,-0.047162964940071106
0.940143346786499,-0.9247481696296063,2.1149130080942653,174.5763566947243,-0.037109375,0.01611328125,1.00439453125,0.1220703125,-0.79345703125,-0.1220703125,0.0,0.0,0.0,-0.018815523013472557,0.007186324801295996,0.9986845850944519,-0.04715419188141823
0.958540678024292,-1.0266156386235863,2.19585395141009,174.575741977699,-0.03857421875,0.01806640625,1.00341796875,-0.18310546875,-0.48828125,-0.30517578125,0.0,0.0,0.0,-0.019562872126698494,0.008040479384362698,0.9986644983291626,-0.0471358485519886
0.9870917797088623,-0.9326708689017037,2.025257383727739,174.58490809156515,-0.03564453125,0.0166015625,1.00341796875,-0.244140625,-0.9765625,-0.1220703125,0.0,0.0,0.0,-0.01803687959909439,0.007293843198567629,0.9987013936042786,-0.04708539694547653
1.0023419857025146,-0.9041430897292645,2.092390459306148,174.58889692204045,-0.0361328125,0.01611328125,1.0029296875,0.06103515625,-0.1220703125,0.0,0.0,0.0,0.0,-0.018609989434480667,0.00701811071485281,0.9986945390701294,-0.04704996198415756
1.020392894744873,-0.8520782118726968,2.106238667848349,174.593459488406,-0.037109375,0.0146484375,1.0048828125,0.3662109375,-0.91552734375,-0.18310546875,0.0,0.0,0.0,-0.018709037452936172,0.006559376139193773,0.9986974000930786,-0.04701768234372139
1.0417664051055908,-0.8294862939758219,2.189043185590529,174.59643745088414,-0.03857421875,0.0146484375,1.0048828125,-0.3662109375,-1.03759765625,-0.244140625,0.0,0.0,0.0,-0.019421255216002464,0.006328813266009092,0.9986865520477295,-0.046989619731903076
1.0679931640625,-0.9178143536832797,2.1269529240537053,174.59589103575055,-0.037109375,0.0166015625,1.0048828125,0.06103515625,-0.732421875,-0.30517578125,0.0,0.0,0.0,-0.018916381523013115,0.007124134339392185,0.998691201210022,-0.04698420315980911
1.0798346996307373,-0.9005012115194725,2.1873606111771786,174.59701118677444,-0.0380859375,0.01611328125,1.0048828125,-0.18310546875,-0.1220703125,0.06103515625,0.0,0.0,0.0,-0.01943567395210266,0.00694851391017437,0.9986829161643982,-0.04697259142994881
1.0963459014892578,-0.8908638146005845,2.1743582788750015,174.5991148850388,-0.03759765625,0.01611328125,1.0029296875,-0.1220703125,-0.30517578125,0.06103515625,0.0,0.0,0.0,-0.01931828074157238,0.006870239973068237,0.9986864924430847,-0.04695694521069527
1.1206231117248535,-0.861241871139621,2.0069800109521965,174.6053576779402,-0.03564453125,0.015625,1.005859375,-0.06103515625,-0.8544921875,-0.3662109375,0.0,0.0,0.0,-0.01784704253077507,0.006682056002318859,0.9987168908119202,-0.04691968485713005
1.1357195377349854,-0.871243082353518,2.1141614738421524,174.60855420647175,-0.037109375,0.01513671875,1.00439453125,0.30517578125,-0.79345703125,-0.30517578125,0.0,0.0,0.0,-0.018785063177347183,0.006725608836859465,0.9987012147903442,-0.046882398426532745
1.1599929332733154,-0.849301099644852,2.1375339542951126,174.61254303694705,-0.03759765625,0.01513671875,1.00390625,-0.06103515625,-0.3662109375,-0.1220703125,0.0,0.0,0.0,-0.018979554995894432,0.006525419186800718,0.9987003803253174,-0.04684954136610031
1.1799838542938232,-0.9248708995912549,2.1142818559262735,174.61105405570797,-0.037109375,0.01611328125,1.00341796875,-0.54931640625,-0.48828125,-0.06103515625,0.0,0.0,0.0,-0.018807893618941307,0.007193351164460182,0.9986989498138428,-0.04685181379318237
1.2002320289611816,-0.8916359995027662,2.084951956413181,174.6153707352634,-0.03662109375,0.015625,1.0048828125,-0.1220703125,-0.6103515625,-0.06103515625,0.0,0.0,0.0,-0.018538430333137512,0.006916464306414127,0.9987072348594666,-0.04682186618447304
1.2217016220092773,-0.8414703944831382,2.1891917422049767,174.6208622073561,-0.03857421875,0.0146484375,1.005859375,0.3662109375,-0.732421875,-0.30517578125,0.0,0.0,0.0,-0.019426094368100166,0.00643733749166131,0.9986957907676697,-0.046774666756391525
1.2399609088897705,-0.8529515155911065,2.1730720688769236,174.62356696226743,-0.0380859375,0.01416015625,1.0048828125,0.0,-0.732421875,-0.244140625,0.0,0.0,0.0,-0.01929013803601265,0.006544474977999926,0.998698890209198,-0.04675024747848511
1.255406379699707,-0.9390744914137079,2.143017102094752,174.62333473583567,-0.03759765625,0.0166015625,1.00439453125,-0.48828125,-0.79345703125,-0.1220703125,0.0,0.0,0.0,-0.019063351675868034,0.007307357154786587,0.9986984729766846,-0.04674024134874344
1.2757234573364258,-1.0240157911490444,2.183712863273569,174.62337571697068,-0.0380859375,0.017578125,1.00390625,-0.244140625,-0.3662109375,-0.1220703125,0.0,0.0,0.0,-0.01945265382528305,0.008030939847230911,0.9986862540245056,-0.0467221699655056
1.2955677509307861,-0.8549902203366495,2.0793394619061347,174.6336210007257,-0.03662109375,0.01513671875,1.00390625,0.1220703125,-0.42724609375,-0.244140625,0.0,0.0,0.0,-0.018473489210009575,0.006602330133318901,0.9987178444862366,-0.04666918143630028
1.3159914016723633,-0.752277248628616,2.109820461737786,174.63965888795198,-0.037109375,0.01318359375,1.0048828125,-0.06103515625,-0.9765625,-0.30517578125,0.0,0.0,0.0,-0.01869700290262699,0.005695641506463289,0.9987210035324097,-0.04663110896945
1.3401463031768799,-0.9245205322311744,2.104705930709916,174.63627111412367,-0.03662109375,0.0166015625,1.00439453125,-0.06103515625,-0.9765625,-0.18310546875,0.0,0.0,0.0,-0.018722711130976677,0.007198357954621315,0.9987107515335083,-0.04663286730647087
1.3603665828704834,-0.9224267590854481,2.2046809036952735,174.6404102087607,-0.03857421875,0.01611328125,1.00244140625,0.0,-0.30517578125,-0.1220703125,0.0,0.0,0.0,-0.019592905417084694,0.007139874156564474,0.9986963868141174,-0.04658930376172066
1.3799717426300049,-0.8299581639979345,2.1183261816885675,174.64796439798272,-0.037109375,0.0146484375,1.00390625,-0.06103515625,-0.18310546875,0.0,0.0,0.0,0.0,-0.018802279606461525,0.00637054955586791,0.9987189173698425,-0.04654546082019806
1.4001595973968506,-0.8561926537956891,2.1740218920583785,174.64975390754526,-0.0380859375,0.0146484375,1.00537109375,-0.30517578125,-0.91552734375,-0.1220703125,0.0,0.0,0.0,-0.019298236817121506,0.0065767415799200535,0.9987092018127441,-0.04652145877480507
1.420276165008545,-0.8547937990371588,2.1285714654435868,174.65315534175193,-0.03759765625,0.01513671875,1.0048828125,0.06103515625,-1.0986328125,-0.244140625,0.0,0.0,0.0,-0.018901359289884567,0.006583674345165491,0.9987180233001709,-0.04649535194039345
1.4412047863006592,-0.8394935883269484,2.167173560198383,174.65844190816952,-0.0380859375,0.01416015625,1.00390625,0.54931640625,-0.91552734375,-0.30517578125,0.0,0.0,0.0,-0.0192312840372324,0.006435457617044449,0.998714804649353,-0.04644901305437088
1.4605059623718262,-0.8394632260016536,2.0762599003641053,174.65912492708654,-0.03662109375,0.0146484375,1.00341796875,-0.30517578125,-0.3662109375,-0.06103515625,0.0,0.0,0.0,-0.018438884988427162,0.006472371984273195,0.9987295269966125,-0.046449583023786545
1.4802875518798828,-0.877287426243009,2.05596506046247,174.65939813465332,-0.0361328125,0.015625,1.00390625,-0.3662109375,-0.6103515625,-0.06103515625,0.0,0.0,0.0,-0.018277322873473167,0.006810348015278578,0.9987305402755737,-0.0464426651597023
1.4999654293060303,-0.8031051151934707,2.1440738604254,174.66510817279945,-0.03759765625,0.01416015625,1.00439453125,0.244140625,-0.732421875,-0.18310546875,0.0,0.0,0.0,-0.019014855846762657,0.0061288392171263695,0.9987232685089111,-0.046398699283599854
1.5217888355255127,-0.9142866676986738,2.1114654701107014,174.66551798414966,-0.037109375,0.01708984375,1.00439453125,-0.244140625,-0.30517578125,0.0,0.0,0.0,0.0,-0.01877564564347267,0.007111190818250179,0.9987221360206604,-0.04637905955314636
1.5400118827819824,-0.9539238562778446,2.0795230232400788,174.66741677673892,-0.03662109375,0.01611328125,1.00439453125,-0.244140625,-1.28173828125,-0.30517578125,0.0,0.0,0.0,-0.01851317286491394,0.007469965610653162,0.9987253546714783,-0.04635864868760109
1.5601589679718018,-0.8803039686177746,2.1556222162080103,174.6713373053225,-0.03759765625,0.015625,1.00341796875,-0.1220703125,-0.732421875,-0.1220703125,0.0,0.0,0.0,-0.01914638839662075,0.006798001937568188,0.9987195134162903,-0.04633070528507233
1.5802946090698242,-0.8369918714608725,2.0879350415331843,174.67559934336458,-0.037109375,0.0146484375,1.00537109375,-0.18310546875,-0.06103515625,0.0,0.0,0.0,0.0,-0.018538711592555046,0.006448738742619753,0.9987344741821289,-0.046305540949106216
1.6001298427581787,-0.7960694333789758,2.056663874191927,174.67977941913665,-0.0361328125,0.013671875,1.00341796875,-0.06103515625,-0.48828125,-0.06103515625,0.0,0.0,0.0,-0.018249405547976494,0.0061054471880197525,0.9987432956695557,-0.04627785459160805
1.622175931930542,-0.777363412872162,2.141431857877074,174.68260711745302,-0.03759765625,0.013671875,1.00537109375,-0.244140625,-1.0986328125,-0.18310546875,0.0,0.0,0.0,-0.01898050308227539,0.005908461753278971,0.9987320303916931,-0.0462505966424942
1.640066146850586,-0.877154611080164,2.1169720966856125,174.68199240042773,-0.037109375,0.01513671875,1.00439453125,0.18310546875,-0.79345703125,-0.30517578125,0.0,0.0,0.0,-0.018807630985975266,0.006788026075810194,0.9987301826477051,-0.046241242438554764
1.6679339408874512,-0.9157338140290703,2.1122782626219325,174.68394583453036,-0.037109375,0.01611328125,1.00537109375,0.18310546875,-0.79345703125,-0.30517578125,0.0,0.0,0.0,-0.01878216676414013,0.007126491982489824,0.998729407787323,-0.046218231320381165
1.6804280281066895,-1.0114311676032959,2.1486880800965666,174.68158258907752,-0.0380859375,0.01708984375,1.00341796875,-0.54931640625,-0.54931640625,-0.1220703125,0.0,0.0,0.0,-0.01913824863731861,0.007945367135107517,0.9987163543701172,-0.04622002691030502
1.7005722522735596,-0.8242724050398692,2.057866200929261,174.69169126904916,-0.0361328125,0.01513671875,1.00390625,-0.06103515625,-0.79345703125,0.0,0.0,0.0,0.0,-0.018270613625645638,0.006352666765451431,0.9987463355064392,-0.0461694709956646
1.720329999923706,-0.8279162576012181,2.0486371212566925,174.694136476772,-0.03564453125,0.0146484375,1.00341796875,0.3662109375,-0.6103515625,-0.244140625,0.0,0.0,0.0,-0.018191508948802948,0.006388552486896515,0.9987484812736511,-0.046148210763931274
1.7449398040771484,-0.9509535777625353,2.0106691668776495,174.6935490805034,-0.03515625,0.0166015625,1.00537109375,-0.06103515625,-0.8544921875,-0.30517578125,0.0,0.0,0.0,-0.017910173162817955,0.007476198021322489,0.9987466931343079,-0.0461367703974247
1.761789083480835,-0.8523793271655592,2.1810456744026787,174.70233270377602,-0.03759765625,0.0146484375,1.00341796875,-0.30517578125,-1.15966796875,-0.30517578125,0.0,0.0,0.0,-0.01935490034520626,0.00654951948672533,0.9987294673919678,-0.046063389629125595
1.7856237888336182,-0.9728689867664617,2.203778038064362,174.70052953383515,-0.03857421875,0.01708984375,1.00244140625,-0.1220703125,-0.244140625,-0.06103515625,0.0,0.0,0.0,-0.01960156112909317,0.007590143475681543,0.998717725276947,-0.0460568405687809
1.795475959777832,-0.8536802113981822,2.0922848048174245,174.70805640230049,-0.03564453125,0.013671875,1.0048828125,0.244140625,-0.6103515625,-0.18310546875,0.0,0.0,0.0,-0.01858149655163288,0.006597683299332857,0.9987459778785706,-0.046019647270441055
1.820300579071045,-0.8488159427703695,2.0386530922374266,174.71081579872518,-0.03564453125,0.0146484375,1.00439453125,-0.06103515625,-1.28173828125,-0.18310546875,0.0,0.0,0.0,-0.018111953511834145,0.006577387917786837,0.9987555146217346,-0.046000268310308456
1.839911937713623,-0.9453823845556263,2.180300543452913,174.71059723267174,-0.0380859375,0.0166015625,1.00341796875,-0.30517578125,-0.8544921875,-0.18310546875,0.0,0.0,0.0,-0.01938525401055813,0.00736178969964385,0.9987273812294006,-0.04597567021846771
1.8602213859558105,-1.0693879907534987,2.1916764369589807,174.7103103647266,-0.03857421875,0.0185546875,1.00439453125,-0.18310546875,-0.244140625,0.0,0.0,0.0,0.0,-0.019534161314368248,0.008437915705144405,0.9987168312072754,-0.04595617204904556
1.8802220821380615,-0.8977459772413129,2.0630223534223857,174.7192169314043,-0.03564453125,0.01513671875,1.0048828125,0.0,-0.3662109375,0.0,0.0,0.0,0.0,-0.018343470990657806,0.00699535571038723,0.9987523555755615,-0.045917410403490067
1.900162935256958,-0.9044674169931343,2.0321272733723026,174.72091081831846,-0.03564453125,0.015625,1.00390625,-0.1220703125,-1.0986328125,-0.1220703125,0.0,0.0,0.0,-0.018076788634061813,0.007066661491990089,0.9987573027610779,-0.04590391740202904
1.9200141429901123,-0.9211822772743307,2.073547248046552,174.72558266771074,-0.037109375,0.01611328125,1.00341796875,0.1220703125,-0.9765625,-0.3662109375,0.0,0.0,0.0,-0.01844419352710247,0.007196400314569473,0.9987518787384033,-0.045857448130846024
1.940000057220459,-0.93130536467623,2.0784286988689957,174.72779564900182,-0.0361328125,0.015625,1.00244140625,0.06103515625,-0.54931640625,-0.18310546875,0.0,0.0,0.0,-0.01849064975976944,0.0072830235585570335,0.9987512826919556,-0.04583612084388733
1.960007905960083,-0.9341016868111156,2.055042771481107,174.7309238756417,-0.0361328125,0.0166015625,1.00390625,-0.3662109375,-0.30517578125,-0.1220703125,0.0,0.0,0.0,-0.018287744373083115,0.0073173088021576405,0.9987559914588928,-0.04581017419695854
1.9807538986206055,-0.9499159226172222,2.1501085460005176,174.7324948191508,-0.03955078125,0.01708984375,1.00390625,-0.48828125,-0.42724609375,-0.06103515625,0.0,0.0,0.0,-0.019122518599033356,0.007417153101414442,0.9987407326698303,-0.045786406844854355
1.99989914894104,-0.8702754900080505,2.1743866668487395,174.7398304423194,-0.03857421875,0.01513671875,1.0029296875,0.18310546875,-0.30517578125,-0.1220703125,0.0,0.0,0.0,-0.01930186152458191,0.006714505143463612,0.9987446069717407,-0.04573395475745201
2.0162482261657715,-0.928249495352884,2.1600101858629204,174.7424532349607,-0.0380859375,0.01611328125,1.0048828125,0.3662109375,-0.732421875,-0.30517578125,0.0,0.0,0.0,-0.01919953152537346,0.007226001005619764,0.9987444877624512,-0.04570253938436508
2.041308641433716,-0.9273756580259455,2.1246526444072917,174.7448438011702,-0.03759765625,0.015625,1.005859375,-0.244140625,-1.15966796875,-0.1220703125,0.0,0.0,0.0,-0.018890870735049248,0.007232975214719772,0.998751163482666,-0.045684508979320526
2.0623443126678467,-0.8019257869837328,2.136341872841534,174.75170131109687,-0.03759765625,0.01416015625,1.00341796875,-0.244140625,-0.6103515625,-0.18310546875,0.0,0.0,0.0,-0.01894235797226429,0.006136024836450815,0.998759388923645,-0.04564467817544937
2.080205202102661,-0.9065528658458096,2.0867828739975676,174.75054017893797,-0.0361328125,0.0166015625,1.00244140625,-0.06103515625,-0.1220703125,-0.06103515625,0.0,0.0,0.0,-0.018552158027887344,0.007067605387419462,0.9987606406211853,-0.04564119875431061
2.100476026535034,-0.8941093283951042,2.061735929980896,174.75396893390132,-0.0361328125,0.015625,1.00390625,-0.1220703125,-0.54931640625,-0.06103515625,0.0,0.0,0.0,-0.01832869090139866,0.006969735957682133,0.9987666010856628,-0.045615293085575104
2.1204779148101807,-0.8179726227475902,2.1170491497571864,174.75859980215859,-0.03857421875,0.01318359375,1.00341796875,0.0,-1.15966796875,-0.1220703125,0.0,0.0,0.0,-0.018780222162604332,0.006284747738391161,0.9987642168998718,-0.04558318853378296
2.1402456760406494,-0.8381295248445028,2.197275911417922,174.76243836847215,-0.03857421875,0.0146484375,1.00244140625,0.18310546875,-0.8544921875,-0.3662109375,0.0,0.0,0.0,-0.019487256184220314,0.006428982131183147,0.9987517595291138,-0.04554072767496109
2.160175323486328,-0.9895334744025291,2.148667589529057,174.75969263242578,-0.03759765625,0.017578125,1.001953125,-0.18310546875,-0.30517578125,-0.244140625,0.0,0.0,0.0,-0.019123947247862816,0.007767564617097378,0.9987491369247437,-0.0455428808927536
2.1849281787872314,-0.9442801627783155,2.1178461474559627,174.76491089695168,-0.03662109375,0.0166015625,1.00244140625,-0.54931640625,-0.8544921875,-0.244140625,0.0,0.0,0.0,-0.018836993724107742,0.007386340294033289,0.9987591505050659,-0.045507363975048065
2.201284646987915,-0.9234461648190725,2.0734490640772334,174.76854455759013,-0.03662109375,0.0166015625,1.00390625,-0.1220703125,-0.79345703125,-0.18310546875,0.0,0.0,0.0,-0.018441537395119667,0.00722308736294508,0.9987688064575195,-0.045482560992240906
2.220921754837036,-0.8859920754533671,2.1390566595932023,174.77415897308788,-0.03759765625,0.0146484375,1.0048828125,0.30517578125,-0.732421875,-0.18310546875,0.0,0.0,0.0,-0.018998153507709503,0.006871366873383522,0.9987630248069763,-0.04543476179242134
2.2402586936950684,-0.9817519679471806,2.099208909088525,174.77346229379253,-0.037109375,0.0166015625,1.0029296875,-0.06103515625,-0.67138671875,-0.244140625,0.0,0.0,0.0,-0.018688861280679703,0.00772178266197443,0.9987629652023315,-0.045428261160850525
2.2613489627838135,-0.8816663779137806,2.0792916505819448,174.78025150182754,-0.03662109375,0.015625,1.0048828125,-0.54931640625,-0.6103515625,-0.18310546875,0.0,0.0,0.0,-0.01847517490386963,0.006858490873128176,0.9987751841545105,-0.04538687691092491
2.280060052871704,-0.8394523937485168,2.007417783389312,174.78519655878662,-0.03515625,0.01513671875,1.00537109375,-0.244140625,-0.48828125,-0.06103515625,0.0,0.0,0.0,-0.017831727862358093,0.006519962102174759,0.998790442943573,-0.04535571113228798
2.300065755844116,-0.7368643397971004,2.004163625136624,174.79178086114652,-0.03515625,0.01318359375,1.00439453125,0.3662109375,-0.67138671875,-0.18310546875,0.0,0.0,0.0,-0.017762426286935806,0.005628108978271484,0.9987990856170654,-0.04531439393758774
2.3199281692504883,-0.8927654353150513,2.129998548093296,174.7886389741283,-0.03857421875,0.0166015625,1.00390625,-0.1220703125,-1.03759765625,-0.18310546875,0.0,0.0,0.0,-0.0189210157841444,0.006936406716704369,0.9987698197364807,-0.04530817270278931
2.3400094509124756,-0.9204033155438318,2.221746344779962,174.79005965347568,-0.03857421875,0.015625,1.0009765625,-0.18310546875,-0.79345703125,-0.1220703125,0.0,0.0,0.0,-0.01973150111734867,0.007141027133911848,0.9987537860870361,-0.04528406634926796
2.3584794998168945,-0.9156886707475248,2.088777929565446,174.79354304995238,-0.03662109375,0.01611328125,1.00341796875,-0.244140625,-0.244140625,0.0,0.0,0.0,0.0,-0.01857050135731697,0.007153401151299477,0.9987767934799194,-0.045264832675457
2.3803014755249023,-0.9421006921028467,2.1448055444402376,174.79649369167382,-0.03759765625,0.01708984375,1.0029296875,0.0,-0.30517578125,-0.06103515625,0.0,0.0,0.0,-0.019069069996476173,0.007361822295933962,0.9987674355506897,-0.045230355113744736
2.4028167724609375,-0.8972159972504021,2.0968968900544755,174.80272282419688,-0.03662109375,0.015625,1.00390625,-0.244140625,-0.48828125,-0.18310546875,0.0,0.0,0.0,-0.018633408471941948,0.006990659981966019,0.9987802505493164,-0.04518716037273407
2.4219937324523926,-0.8604175526841651,2.173319449790925,174.8076815415343,-0.03857421875,0.015625,1.00390625,0.06103515625,-0.8544921875,-0.1220703125,0.0,0.0,0.0,-0.019284695386886597,0.006640435196459293,0.9987722635269165,-0.04514431208372116
2.436260223388672,-0.9289881162785975,2.15931500067146,174.80766788115596,-0.037109375,0.015625,1.0048828125,0.30517578125,-0.79345703125,-0.244140625,0.0,0.0,0.0,-0.01918964833021164,0.0072436402551829815,0.9987703561782837,-0.04513401538133621
2.4607274532318115,-0.9624245603084544,2.2213924556035907,174.8083235793163,-0.0380859375,0.01708984375,1.00244140625,-0.42724609375,-0.732421875,-0.1220703125,0.0,0.0,0.0,-0.019743826240301132,0.007510561496019363,0.9987583160400391,-0.04511773958802223
2.48037052154541,-0.9402548334796508,2.1452770409363797,174.81229874941323,-0.0380859375,0.01611328125,1.0029296875,-0.42724609375,-0.48828125,-0.18310546875,0.0,0.0,0.0,-0.019071435555815697,0.007348177023231983,0.9987738132476807,-0.0450928770005703
2.5007033348083496,-0.8516828079527766,2.1628150457342685,174.8183639573962,-0.03759765625,0.0146484375,1.0048828125,0.1220703125,-0.48828125,-0.1220703125,0.0,0.0,0.0,-0.01918908953666687,0.006570255849510431,0.9987786412239075,-0.04505348950624466
2.520428419113159,-0.9278244227987565,2.0094151868347176,174.8182000328561,-0.03564453125,0.01611328125,1.0068359375,0.1220703125,-0.732421875,-0.1220703125,0.0,0.0,0.0,-0.017882006242871284,0.007294575218111277,0.9987978935241699,-0.045054029673337936
2.5408072471618652,-0.9211568775083546,2.1208687196071048,174.82090478776743,-0.037109375,0.0166015625,1.00390625,-0.244140625,-1.0986328125,-0.18310546875,0.0,0.0,0.0,-0.018850641325116158,0.007192805875092745,0.9987822771072388,-0.04502291977405548
2.56002140045166,-0.8562618628218883,2.16357319673214,174.8252214673229,-0.0380859375,0.01513671875,1.00439453125,-0.18310546875,-0.48828125,-0.1220703125,0.0,0.0,0.0,-0.019197100773453712,0.006611015181988478,0.9987810254096985,-0.04499290511012077
2.5801925659179688,-0.8269124332366378,2.0048571027807918,174.8311637319008,-0.03515625,0.0146484375,1.00537109375,-0.1220703125,-0.244140625,-0.1220703125,0.0,0.0,0.0,-0.01780186966061592,0.006418823730200529,0.9988096952438354,-0.04495713859796524
2.600740671157837,-0.9231324030040751,2.0391828587849257,174.83012554314698,-0.0361328125,0.0166015625,1.0029296875,0.1220703125,-0.48828125,0.0,0.0,0.0,0.0,-0.018138865008950233,0.007243787869811058,0.9987983703613281,-0.04494862258434296
2.620413303375244,-0.8714324600204272,2.102751642833646,174.83543943032123,-0.03759765625,0.0146484375,1.00537109375,-0.1220703125,-1.15966796875,-0.18310546875,0.0,0.0,0.0,-0.018672339618206024,0.006768937688320875,0.9987937808036804,-0.04490578919649124
2.6416022777557373,-0.8371416553749368,2.1403050901074336,174.84110848733235,-0.03759765625,0.0146484375,1.0048828125,0.18310546875,-0.79345703125,-0.3662109375,0.0,0.0,0.0,-0.018985895439982414,0.006456188391894102,0.9987920522689819,-0.044859256595373154
2.66178822517395,-0.9374981050976102,2.1229630263613597,174.8391413928514,-0.03662109375,0.01806640625,1.0029296875,-0.1220703125,-0.244140625,0.0,0.0,0.0,0.0,-0.0188741497695446,0.007337410934269428,0.9987879395484924,-0.04486117884516716
2.6836955547332764,-0.9221789512846236,2.0439533190333563,174.84190078927605,-0.0361328125,0.01611328125,1.0029296875,-0.48828125,-0.67138671875,-0.06103515625,0.0,0.0,0.0,-0.01817932538688183,0.007235463242977858,0.9988023638725281,-0.04484567046165466
2.700186014175415,-0.9417029403053992,2.082562030533911,174.8443733177556,-0.03662109375,0.01611328125,1.00341796875,-0.06103515625,-0.8544921875,-0.18310546875,0.0,0.0,0.0,-0.01852332428097725,0.007390831597149372,0.9987960457801819,-0.0448179617524147
2.7201361656188965,-0.9127316257237323,2.0717498410777813,174.84804795952908,-0.0361328125,0.01513671875,1.00244140625,0.30517578125,-0.79345703125,-0.244140625,0.0,0.0,0.0,-0.018417522311210632,0.00714315939694643,0.9988011121749878,-0.04479149356484413
2.7425458431243896,-0.8876233167262366,2.078443639907805,174.85155867676247,-0.03662109375,0.015625,1.00341796875,-0.06103515625,-0.8544921875,-0.18310546875,0.0,0.0,0.0,-0.018465837463736534,0.006922243162989616,0.9988030195236206,-0.04476438835263252
2.7600715160369873,-1.01279058869154,2.0769288320159434,174.84819822369082,-0.03662109375,0.017578125,1.00244140625,-0.6103515625,-0.48828125,-0.06103515625,0.0,0.0,0.0,-0.018501756712794304,0.00801327358931303,0.9987937211990356,-0.04477366432547569
2.7807042598724365,-0.9773113844913203,2.1449355314778793,174.85389460145862,-0.03759765625,0.01708984375,1.00537109375,-0.1220703125,-0.3662109375,-0.06103515625,0.0,0.0,0.0,-0.019080257043242455,0.007678222376853228,0.9987875819206238,-0.044724177569150925
2.802401304244995,-0.8789289127996335,2.149387320712847,174.8610253189521,-0.03759765625,0.01513671875,1.00537109375,0.18310546875,-0.3662109375,-0.06103515625,0.0,0.0,0.0,-0.019080229103565216,0.006820149254053831,0.9987959265708923,-0.04467805102467537
2.8155012130737305,-0.9076156005919813,2.1308397285782656,174.86214546997599,-0.03759765625,0.01611328125,1.00390625,-0.06103515625,-1.0986328125,-0.244140625,0.0,0.0,0.0,-0.018929682672023773,0.00707764970138669,0.998797595500946,-0.0446648970246315
2.84024715423584,-0.9075861454011855,2.047462542162862,174.8639896210519,-0.0361328125,0.01611328125,1.00146484375,-0.30517578125,-0.91552734375,-0.06103515625,0.0,0.0,0.0,-0.018202833831310272,0.00711039500311017,0.9988113045692444,-0.044655267149209976
2.856401205062866,-0.8997058146462834,2.1425528626746027,174.8665167910448,-0.03857421875,0.0166015625,1.00439453125,-0.18310546875,-0.06103515625,-0.1220703125,0.0,0.0,0.0,-0.019028425216674805,0.007004837039858103,0.9987978935241699,-0.04462727531790733
2.8812355995178223,-1.0428575083047593,2.173013798825567,174.86445407391545,-0.0380859375,0.0185546875,1.0009765625,-0.30517578125,-0.48828125,-0.1220703125,0.0,0.0,0.0,-0.019349802285432816,0.00824026670306921,0.998782753944397,-0.04461878910660744
2.9008655548095703,-0.9900410428352258,2.1357015426068453,174.86987724411642,-0.037109375,0.0166015625,1.00390625,-0.30517578125,-0.8544921875,-0.244140625,0.0,0.0,0.0,-0.019003653898835182,0.007795453071594238,0.9987944960594177,-0.044583577662706375
2.9200477600097656,-0.9257265942282106,2.0961146199510976,174.87599709361277,-0.03662109375,0.01611328125,1.00634765625,0.1220703125,-0.732421875,-0.18310546875,0.0,0.0,0.0,-0.018633199855685234,0.0072513846680521965,0.9988073110580444,-0.044543929398059845
2.9401137828826904,-0.8742238195959938,2.167002165138898,174.87882479192916,-0.0380859375,0.01513671875,1.00390625,0.3662109375,-0.8544921875,-0.1220703125,0.0,0.0,0.0,-0.01923087239265442,0.006775213405489922,0.9988003969192505,-0.04452241212129593
2.960068941116333,-0.9629441882939043,2.180960083594642,174.87743143333847,-0.0380859375,0.0166015625,1.0029296875,-0.42724609375,-0.67138671875,-0.06103515625,0.0,0.0,0.0,-0.01938708685338497,0.0075428178533911705,0.9987919926643372,-0.04451853409409523
2.9802639484405518,-0.9168050865117046,2.03469990681187,174.88387913191497,-0.03564453125,0.01611328125,1.00244140625,-0.244140625,-0.42724609375,-0.1220703125,0.0,0.0,0.0,-0.018093932420015335,0.0071988957934081554,0.9988204836845398,-0.044481415301561356
3.0003714561462402,-0.8366110350537914,2.1704304932154215,174.89193875513558,-0.0380859375,0.0146484375,1.00390625,0.1220703125,-0.3662109375,-0.1220703125,0.0,0.0,0.0,-0.01924540288746357,0.006448236294090748,0.9988069534301758,-0.04441416263580322
3.020298719406128,-0.8162758543473709,2.1743128154283387,174.89599588750258,-0.0380859375,0.01416015625,1.0048828125,0.30517578125,-0.79345703125,-0.244140625,0.0,0.0,0.0,-0.019271135330200195,0.006270158104598522,0.9988091588020325,-0.044381920248270035
3.0404436588287354,-0.9061423074436683,2.1382846347735796,174.89656962339285,-0.03759765625,0.01611328125,1.00390625,-0.30517578125,-1.220703125,-0.30517578125,0.0,0.0,0.0,-0.018991874530911446,0.007067591417580843,0.9988099336624146,-0.044364605098962784
3.0604159832000732,-0.8335631698583791,2.132183354854054,174.9020474351072,-0.03759765625,0.01513671875,1.0029296875,-0.42724609375,-0.48828125,-0.18310546875,0.0,0.0,0.0,-0.018910285085439682,0.0064382534474134445,0.9988172650337219,-0.04432929307222366
3.080260992050171,-0.959194521161273,2.068813073178087,174.8995612462493,-0.03662109375,0.01806640625,1.0048828125,-0.1220703125,-0.18310546875,-0.06103515625,0.0,0.0,0.0,-0.018406691029667854,0.0075575681403279305,0.9988185167312622,-0.04433523491024971
3.1004467010498047,-0.984621607893938,2.1924706598934063,174.90196547283716,-0.03857421875,0.01708984375,1.00390625,-0.1220703125,-0.67138671875,-0.18310546875,0.0,0.0,0.0,-0.019494177773594856,0.007731430232524872,0.9987981915473938,-0.04430004209280014
3.1202404499053955,-0.8463349299152153,2.134135081409385,174.9089732469256,-0.03759765625,0.0146484375,1.00634765625,-0.1220703125,-1.15966796875,-0.1220703125,0.0,0.0,0.0,-0.018931839615106583,0.006549961864948273,0.9988189339637756,-0.04426661878824234
3.140554904937744,-0.9184261892225247,2.1985695919354042,174.91001143567942,-0.03857421875,0.01611328125,1.001953125,0.18310546875,-0.732421875,-0.30517578125,0.0,0.0,0.0,-0.019521240144968033,0.007153455633670092,0.9988045692443848,-0.04424072802066803
3.1600840091705322,-0.9284307088093009,2.235306618159964,174.91201951129543,-0.0390625,0.01611328125,1.00341796875,-0.06103515625,-0.30517578125,0.0,0.0,0.0,0.0,-0.019845180213451385,0.007226722780615091,0.9987986087799072,-0.04421861097216606
3.1759557723999023,-0.8714907834326368,2.179869814648379,174.91652743614762,-0.03759765625,0.015625,1.00537109375,-0.3662109375,-0.54931640625,-0.1220703125,0.0,0.0,0.0,-0.01933974400162697,0.006752722896635532,0.9988130331039429,-0.04419334605336189
3.2003989219665527,-0.9065016394270345,1.9881577171469338,174.91886336084377,-0.03515625,0.01611328125,1.00390625,-0.1220703125,-0.9765625,-0.1220703125,0.0,0.0,0.0,-0.017682084813714027,0.007132667116820812,0.9988415837287903,-0.044181644916534424
3.2244625091552734,-0.979954774421821,2.098695577683716,174.91925951181562,-0.037109375,0.0166015625,1.0048828125,0.30517578125,-0.732421875,-0.30517578125,0.0,0.0,0.0,-0.01867385394871235,0.0077300891280174255,0.9988201260566711,-0.04415782168507576
3.240388870239258,-0.9582477929092857,2.1998197299969284,174.92196426672695,-0.0390625,0.01611328125,1.00390625,-0.244140625,-0.42724609375,-0.06103515625,0.0,0.0,0.0,-0.01954672858119011,0.007502101361751556,0.9988064169883728,-0.04412961006164551
3.2605645656585693,-0.8455531934203662,2.1451248557839357,174.9306112862162,-0.03759765625,0.01513671875,1.0048828125,-0.54931640625,-0.48828125,-0.18310546875,0.0,0.0,0.0,-0.019026093184947968,0.006542468909174204,0.9988254904747009,-0.04407736286520958
3.2868118286132812,-0.9542266257571466,2.1135081235593582,174.93069324848622,-0.037109375,0.0166015625,1.00439453125,-0.06103515625,-0.42724609375,-0.1220703125,0.0,0.0,0.0,-0.018792303279042244,0.007501962594687939,0.998823881149292,-0.044061142951250076
3.301063299179077,-0.8880857952382405,2.138143335235125,174.9380561924115,-0.03759765625,0.01513671875,1.00439453125,0.3662109375,-0.732421875,-0.244140625,0.0,0.0,0.0,-0.018981149420142174,0.0069171348586678505,0.9988270401954651,-0.044005926698446274
3.317594051361084,-0.8332724065709775,2.0286513474150007,174.94196306061676,-0.03564453125,0.0146484375,1.00341796875,-0.18310546875,-0.9765625,-0.1220703125,0.0,0.0,0.0,-0.018005499616265297,0.006482284516096115,0.9988487362861633,-0.0439886748790741
3.3403477668762207,-0.9398085233060728,2.022524667729499,174.94283732483052,-0.03564453125,0.01806640625,1.00439453125,-0.3662109375,-0.79345703125,-0.18310546875,0.0,0.0,0.0,-0.017992928624153137,0.007413418032228947,0.9988435506820679,-0.043964795768260956
3.3599610328674316,-0.9179209686673554,2.1890171454943186,174.94640268357725,-0.0380859375,0.01611328125,1.00390625,0.0,-0.3662109375,-0.1220703125,0.0,0.0,0.0,-0.019435511901974678,0.007158938329666853,0.9988201856613159,-0.04392430931329727
3.380167007446289,-0.9005246902947445,2.1291846883650067,174.94974947627057,-0.03759765625,0.015625,1.00537109375,-0.244140625,-0.18310546875,-0.06103515625,0.0,0.0,0.0,-0.018907122313976288,0.007030949462205172,0.9988321661949158,-0.04390266537666321
3.399989128112793,-0.9124520148545849,2.1601094370492975,174.95220834437177,-0.0380859375,0.01513671875,1.00439453125,-0.06103515625,-0.8544921875,-0.18310546875,0.0,0.0,0.0,-0.019181091338396072,0.007123397197574377,0.9988273978233337,-0.043876901268959045
3.420266628265381,-0.9226428705396555,2.1406056184309143,174.9539568727993,-0.03759765625,0.01611328125,1.00341796875,0.0,-0.9765625,-0.1220703125,0.0,0.0,0.0,-0.019014880061149597,0.007220033090561628,0.9988306164741516,-0.04386148229241371
3.440492868423462,-0.9202008644679645,2.0629026116684988,174.95576004274017,-0.03662109375,0.0166015625,1.00439453125,0.30517578125,-0.67138671875,-0.18310546875,0.0,0.0,0.0,-0.018336541950702667,0.007228981703519821,0.9988436102867126,-0.043852075934410095
3.4575939178466797,-0.8374002420680453,2.145830286259151,174.9613334771029,-0.0380859375,0.0146484375,1.00341796875,-0.42724609375,-1.0986328125,-0.1220703125,0.0,0.0,0.0,-0.01902736909687519,0.006476233247667551,0.9988377094268799,-0.04381086304783821
3.47552227973938,-0.8889311378697353,2.195783515084274,174.96192087337153,-0.03857421875,0.015625,1.00341796875,-0.30517578125,-0.67138671875,-0.1220703125,0.0,0.0,0.0,-0.0194824431091547,0.0069062793627381325,0.998826801776886,-0.04379346966743469
3.496574878692627,-0.8336016430333133,2.119041430560715,174.9684641945964,-0.037109375,0.0146484375,1.00341796875,0.3662109375,-0.732421875,-0.06103515625,0.0,0.0,0.0,-0.018792014569044113,0.006454597692936659,0.9988448619842529,-0.04375124350190163
3.5205414295196533,-0.9026293490544604,2.090396257511916,174.9678904587061,-0.03662109375,0.015625,1.00537109375,0.1220703125,-0.8544921875,-0.18310546875,0.0,0.0,0.0,-0.01856871508061886,0.007067193742841482,0.998845100402832,-0.04374714195728302
3.5408756732940674,-0.9708577094993045,2.1511360625837814,174.96840955308303,-0.03759765625,0.0166015625,1.00341796875,-0.244140625,-0.9765625,-0.30517578125,0.0,0.0,0.0,-0.01912415586411953,0.007638649083673954,0.9988312721252441,-0.04372663423418999
3.560455083847046,-0.9428534002937233,2.1378334154015355,174.97325898739376,-0.037109375,0.01611328125,1.00244140625,-0.244140625,-0.3662109375,-0.30517578125,0.0,0.0,0.0,-0.018997207283973694,0.007400467526167631,0.9988370537757874,-0.04369009658694267
3.580167531967163,-0.9104868413643253,2.1141501613413394,174.9775073650575,-0.037109375,0.01611328125,1.001953125,0.0,-0.244140625,0.0,0.0,0.0,0.0,-0.01877816952764988,0.007128132041543722,0.9988445043563843,-0.04366022348403931
3.600116014480591,-0.9043056268871696,2.1270417165129154,174.98161913893784,-0.037109375,0.0166015625,1.00244140625,0.1220703125,-0.8544921875,-0.18310546875,0.0,0.0,0.0,-0.018887925893068314,0.007069986313581467,0.9988444447517395,-0.043624360114336014
3.621769428253174,-0.8732348295485172,2.056142005050656,174.98548502600806,-0.0361328125,0.01513671875,1.00390625,-0.06103515625,-1.0986328125,-0.18310546875,0.0,0.0,0.0,-0.01825786754488945,0.0068269395269453526,0.9988588690757751,-0.04360102117061615
3.6353280544281006,-0.9554717478984988,2.0982285634992164,174.98623634681678,-0.03662109375,0.01708984375,1.00390625,0.06103515625,-0.6103515625,-0.1220703125,0.0,0.0,0.0,-0.01865595206618309,0.007527773734182119,0.9988475441932678,-0.04357801005244255
3.660097360610962,-0.9837529999305827,2.102493803192478,174.9876160450291,-0.03662109375,0.01708984375,1.00341796875,-0.244140625,-0.244140625,0.0,0.0,0.0,0.0,-0.01870379038155079,0.0077728829346597195,0.9988453984260559,-0.04356099292635918
3.6803109645843506,-0.8904531494767375,2.189048308232407,174.99451453609083,-0.0380859375,0.015625,1.00390625,-0.30517578125,-0.732421875,-0.1220703125,0.0,0.0,0.0,-0.019422350451350212,0.0069276620633900166,0.9988401532173157,-0.04350962117314339
3.701920509338379,-0.9161036047396031,2.1238479627456996,174.99630404565337,-0.0361328125,0.01513671875,1.005859375,0.0,-1.03759765625,-0.18310546875,0.0,0.0,0.0,-0.018863659352064133,0.007176463957875967,0.9988498687744141,-0.04349472001194954
3.720231056213379,-0.8115624902115333,2.0826928713451993,175.00205506493452,-0.03662109375,0.01416015625,1.0048828125,0.18310546875,-0.8544921875,-0.244140625,0.0,0.0,0.0,-0.01846492476761341,0.006281865295022726,0.9988645911216736,-0.043464601039886475
3.7364914417266846,-0.8750315428262008,2.1146133335444306,175.00220532909626,-0.03662109375,0.015625,1.00244140625,-0.18310546875,-0.42724609375,-0.18310546875,0.0,0.0,0.0,-0.018767224624753,0.0068229497410357,0.9988560080528259,-0.0434507317841053
3.7617571353912354,-0.9801957520334755,2.1399550429124705,175.00266978195984,-0.037109375,0.01708984375,1.0029296875,-0.48828125,-0.67138671875,-0.1220703125,0.0,0.0,0.0,-0.01902795024216175,0.007730030920356512,0.9988455176353455,-0.04342732951045036
3.7817113399505615,-0.8935001608985037,2.1289851187751956,175.0094589899948,-0.037109375,0.015625,1.00390625,-0.06103515625,-0.6103515625,-0.18310546875,0.0,0.0,0.0,-0.018899057060480118,0.006979646626859903,0.9988554120063782,-0.04338332638144493
3.8004915714263916,-0.8471692268501618,2.0243786372023345,175.01619355651644,-0.0361328125,0.01513671875,1.00537109375,0.30517578125,-0.79345703125,-0.30517578125,0.0,0.0,0.0,-0.01796931028366089,0.0066167088225483894,0.9988768696784973,-0.043339747935533524
3.824023962020874,-0.8725668050311782,2.068085658031481,175.0163438206782,-0.03662109375,0.01416015625,1.00537109375,-0.1220703125,-1.15966796875,-0.18310546875,0.0,0.0,0.0,-0.01835988461971283,0.006821486633270979,0.9988688230514526,-0.04333128780126572
3.840273380279541,-0.9063077260876296,2.0694100744002286,175.01779182078224,-0.03662109375,0.01611328125,1.00439453125,-0.18310546875,-0.9765625,-0.18310546875,0.0,0.0,0.0,-0.018384097144007683,0.007115327287465334,0.9988670945167542,-0.04331311210989952
3.8552980422973633,-0.9019114321396686,2.130582102380509,175.0205785379636,-0.03759765625,0.01611328125,1.00390625,0.06103515625,-0.1220703125,-0.06103515625,0.0,0.0,0.0,-0.018915480002760887,0.007054192945361137,0.9988587498664856,-0.04328487440943718
3.881056070327759,-0.9325715109936211,2.11655246693848,175.022723217363,-0.037109375,0.01611328125,1.00439453125,-0.244140625,-0.18310546875,-0.06103515625,0.0,0.0,0.0,-0.018804630264639854,0.007327132858335972,0.9988599419593811,-0.04326227307319641
3.896242380142212,-0.9154200522140729,1.9973067555401658,175.02678034972996,-0.03564453125,0.01611328125,1.0048828125,-0.18310546875,-0.9765625,-0.18310546875,0.0,0.0,0.0,-0.017758473753929138,0.007223582360893488,0.9988808631896973,-0.04323885962367058
3.920353889465332,-0.8433498704436553,2.075963640908856,175.03373348230505,-0.03662109375,0.0146484375,1.00537109375,0.18310546875,-1.0986328125,-0.30517578125,0.0,0.0,0.0,-0.0184165108948946,0.0065666064620018005,0.9988758563995361,-0.043183837085962296
3.940361976623535,-0.9468559978690565,2.168396164059815,175.03258601052448,-0.03759765625,0.01708984375,1.0029296875,0.0,-0.54931640625,-0.1220703125,0.0,0.0,0.0,-0.019261281937360764,0.0074335928075015545,0.9988544583320618,-0.043169908225536346
3.960606336593628,-0.8688748209805218,2.1103549240403394,175.03649287872972,-0.037109375,0.01513671875,1.00341796875,-0.54931640625,-0.42724609375,0.0,0.0,0.0,0.0,-0.018725745379924774,0.0067765130661427975,0.9988700151443481,-0.043153099715709686
3.9808332920074463,-0.8393107206840918,2.1927120643918836,175.0413969545538,-0.0380859375,0.0146484375,1.00439453125,-0.1220703125,-0.6103515625,-0.244140625,0.0,0.0,0.0,-0.01943221129477024,0.006488427519798279,0.9988602995872498,-0.043109361082315445
4.000310897827148,-0.9145016052141177,2.076381136221873,175.04182042628233,-0.03662109375,0.015625,1.005859375,0.18310546875,-0.54931640625,-0.1220703125,0.0,0.0,0.0,-0.018446454778313637,0.007187968119978905,0.9988744854927063,-0.04310183972120285
4.0221848487854,-0.8795024886073559,2.16400200454597,175.0446071434637,-0.0380859375,0.015625,1.00732421875,0.244140625,-0.8544921875,-0.18310546875,0.0,0.0,0.0,-0.019196882843971252,0.0068501755595207214,0.998863935470581,-0.04307672381401062
4.03523063659668,-0.8997901247938507,2.162847062246003,175.04620540772947,-0.03857421875,0.01611328125,1.00390625,-0.48828125,-0.79345703125,-0.18310546875,0.0,0.0,0.0,-0.019194345921278,0.007027722429484129,0.9988633990287781,-0.04305948317050934
4.064461946487427,-0.979529915311105,2.117108060138778,175.04735287951004,-0.037109375,0.0166015625,1.00341796875,-0.18310546875,-0.6103515625,-0.1220703125,0.0,0.0,0.0,-0.018825538456439972,0.007740289904177189,0.9988659620285034,-0.043039821088314056
4.0838093757629395,-0.9487468930520923,2.1183411227273767,175.0511914458236,-0.037109375,0.0166015625,1.001953125,0.18310546875,-0.3662109375,-0.06103515625,0.0,0.0,0.0,-0.01882447488605976,0.007472124882042408,0.9988692402839661,-0.043011367321014404
4.100440263748169,-0.8601078462939873,2.1398688117741993,175.05776208780514,-0.03759765625,0.01416015625,1.00439453125,0.0,-0.9765625,-0.244140625,0.0,0.0,0.0,-0.018978461623191833,0.006692428141832352,0.9988738894462585,-0.042967066168785095
4.115263938903809,-0.7779725803687626,2.0812896943575847,175.06322623914116,-0.03662109375,0.013671875,1.0048828125,-0.244140625,-1.03759765625,-0.244140625,0.0,0.0,0.0,-0.018436752259731293,0.005999448709189892,0.9988897442817688,-0.04293688014149666
4.140601396560669,-0.9757326502976953,2.0614422318465855,175.05994774833954,-0.0361328125,0.017578125,1.001953125,0.0,-0.42724609375,-0.18310546875,0.0,0.0,0.0,-0.018338041380047798,0.007730264216661453,0.9988796710968018,-0.04293520376086235
4.1572442054748535,-0.9793330137639383,2.11688159667911,175.06236563530572,-0.037109375,0.0166015625,1.00390625,-0.1220703125,-0.18310546875,0.0,0.0,0.0,0.0,-0.018822476267814636,0.007741126231849194,0.9988716840744019,-0.04290897026658058
4.180454254150391,-0.8716052958229402,2.1114667507711706,175.06862208858547,-0.037109375,0.01513671875,1.00390625,-0.18310546875,-0.732421875,-0.1220703125,0.0,0.0,0.0,-0.018734557554125786,0.006805144716054201,0.9988817572593689,-0.04287256300449371
4.200221300125122,-0.8579718647136245,2.1067423942996375,175.07191423976542,-0.03662109375,0.01416015625,1.0048828125,0.0,-1.0986328125,-0.244140625,0.0,0.0,0.0,-0.018688082695007324,0.006688620429486036,0.9988844990730286,-0.04284639656543732
4.220080614089966,-0.9565655386610528,2.049185243937586,175.0712312208484,-0.0361328125,0.0166015625,1.0048828125,0.18310546875,-0.54931640625,-0.18310546875,0.0,0.0,0.0,-0.018223270773887634,0.007569605950266123,0.9988871216773987,-0.04284092038869858
4.241361618041992,-1.0540685167753947,2.04568690642207,175.07093069252494,-0.0361328125,0.01806640625,1.00146484375,-0.18310546875,-0.30517578125,-0.18310546875,0.0,0.0,0.0,-0.018229244276881218,0.008420800790190697,0.9988807439804077,-0.04282822459936142
4.261467456817627,-0.9417081696689825,2.167591909285046,175.08039733471458,-0.03759765625,0.0166015625,1.00390625,-0.1220703125,-0.9765625,-0.30517578125,0.0,0.0,0.0,-0.01924924924969673,0.007397059816867113,0.9988727569580078,-0.04275405779480934
4.280681848526001,-0.9584617699293776,2.1205383092060055,175.0829654858425,-0.037109375,0.01708984375,1.00244140625,0.06103515625,-0.3662109375,-0.06103515625,0.0,0.0,0.0,-0.018845176324248314,0.007561203092336655,0.99888014793396,-0.042732592672109604
4.301212787628174,-0.929760354541632,2.154647847034226,175.08841597680018,-0.03759765625,0.01513671875,1.00390625,0.18310546875,-0.54931640625,-0.1220703125,0.0,0.0,0.0,-0.019131449982523918,0.007299115415662527,0.9988786578178406,-0.04268718883395195
4.324541330337524,-0.8767326334555041,2.114878857148415,175.09293756203073,-0.037109375,0.01513671875,1.00390625,-0.244140625,-1.03759765625,-0.1220703125,0.0,0.0,0.0,-0.018764764070510864,0.006852535530924797,0.9988899827003479,-0.04265955463051796
4.340479373931885,-1.002225459984294,2.028383049046666,175.0898229957692,-0.03564453125,0.017578125,1.00390625,-0.244140625,-0.8544921875,-0.1220703125,0.0,0.0,0.0,-0.018057718873023987,0.00797838345170021,0.9988940358161926,-0.04267321154475212
4.360290288925171,-0.9146951983884053,2.0643762249819293,175.09654390191247,-0.03662109375,0.01611328125,1.0048828125,0.1220703125,-0.48828125,-0.18310546875,0.0,0.0,0.0,-0.01833844557404518,0.0072029586881399155,0.9988968372344971,-0.04262566938996315
4.38055944442749,-0.9564883788677728,2.106137922558091,175.09853831715012,-0.037109375,0.0166015625,1.00537109375,-0.1220703125,-0.30517578125,-0.30517578125,0.0,0.0,0.0,-0.018717888742685318,0.00755195552483201,0.998888373374939,-0.042598284780979156
4.405427932739258,-0.9346904704619118,2.1190922300926665,175.10516360064503,-0.037109375,0.0166015625,1.00390625,-0.244140625,-0.3662109375,-0.18310546875,0.0,0.0,0.0,-0.018822280690073967,0.007358180824667215,0.998890221118927,-0.04254309833049774
4.420495271682739,-0.8508504853693871,2.0657872993757715,175.1104774878193,-0.03662109375,0.01513671875,1.0029296875,0.0,-0.9765625,-0.1220703125,0.0,0.0,0.0,-0.018326183781027794,0.006648121867328882,0.9989057183265686,-0.042514361441135406
4.440638780593872,-0.8587081377618108,2.052069291314624,175.1112971105197,-0.03662109375,0.015625,1.00341796875,0.1220703125,-0.244140625,0.0,0.0,0.0,0.0,-0.01820947229862213,0.0067218695767223835,0.9989076256752014,-0.04250697046518326
4.460275173187256,-0.9813625404427841,2.207536776541985,175.1083601291766,-0.0390625,0.017578125,1.00341796875,-0.54931640625,-0.244140625,-0.06103515625,0.0,0.0,0.0,-0.019610339775681496,0.007732489611953497,0.9988740086555481,-0.04250035062432289
4.4769508838653564,-0.9780813815985334,2.11576998339169,175.11237628040857,-0.037109375,0.01708984375,1.001953125,-0.06103515625,-0.8544921875,-0.06103515625,0.0,0.0,0.0,-0.018808940425515175,0.007738841697573662,0.9988906383514404,-0.042473431676626205
4.49560284614563,-0.9357191609839391,2.1557443058394243,175.1177448090962,-0.03759765625,0.0166015625,1.00244140625,0.1220703125,-0.79345703125,-0.06103515625,0.0,0.0,0.0,-0.019141342490911484,0.007355547044426203,0.9988890290260315,-0.04243034869432449
4.520115613937378,-1.0303587957321647,2.2004564316936204,175.11482148813144,-0.0380859375,0.017578125,1.0048828125,0.1220703125,-0.732421875,-0.1220703125,0.0,0.0,0.0,-0.019566331058740616,0.008163330145180225,0.998874306678772,-0.04243621975183487
4.540079116821289,-1.009657025966385,2.095105886388051,175.11845514876987,-0.03662109375,0.017578125,1.00244140625,-0.3662109375,-0.8544921875,-0.1220703125,0.0,0.0,0.0,-0.018640093505382538,0.008022792637348175,0.9988939166069031,-0.04241688549518585
4.560683965682983,-0.9356928007226112,2.150546958767868,175.12428813032108,-0.03759765625,0.01611328125,1.00341796875,-0.30517578125,-0.42724609375,-0.1220703125,0.0,0.0,0.0,-0.019095610827207565,0.007358345668762922,0.9988921880722046,-0.04237377643585205
4.575402498245239,-0.8864559413475462,2.01405886169668,175.12906926274007,-0.0361328125,0.015625,1.00537109375,0.244140625,-0.42724609375,-0.1220703125,0.0,0.0,0.0,-0.01788734458386898,0.006980714853852987,0.998918354511261,-0.04235038906335831
4.600569486618042,-0.9789367560703718,2.0555055167973753,175.12964299863037,-0.0361328125,0.0166015625,1.0048828125,0.1220703125,-0.9765625,-0.18310546875,0.0,0.0,0.0,-0.01828276738524437,0.007771557196974754,0.9989063739776611,-0.042327575385570526
4.620742082595825,-0.9751989350470823,2.1408662328364327,175.13285318754026,-0.03759765625,0.01708984375,1.0048828125,-0.244140625,-1.220703125,-0.244140625,0.0,0.0,0.0,-0.019025254994630814,0.007707744836807251,0.998894453048706,-0.04229329898953438
4.635287761688232,-0.8513011711329022,2.037531660553075,175.14158216929954,-0.0361328125,0.0146484375,1.0029296875,-0.1220703125,-0.30517578125,-0.1220703125,0.0,0.0,0.0,-0.018078237771987915,0.006667507346719503,0.9989214539527893,-0.04224516823887825
4.655679702758789,-0.6871990994950287,2.009953918005502,175.15088488694911,-0.033203125,-0.00244140625,1.0009765625,-2.0751953125,0.18310546875,-0.3662109375,0.0,0.0,0.0,-0.017776893451809883,0.005248651839792728,0.9989376664161682,-0.04219154268503189
4.6803178787231445,-0.2831076591981791,2.037145968308381,175.1386042068214,-0.0458984375,-0.310546875,0.92578125,-6.34765625,2.0751953125,2.197265625,0.0,0.0,0.0,-0.01786522939801216,0.0017140472773462534,0.9989412426948547,-0.04236028715968132
4.700232028961182,-0.03341785110767784,2.0095964002911346,175.1542316796424,-0.0205078125,-0.28369140625,1.10400390625,-2.197265625,9.1552734375,3.90625,0.0,0.0,0.0,-0.01753278635442257,-0.0004500152717810124,0.9989526271820068,-0.04226312413811684
4.725093603134155,0.16429646522495436,2.0194907830775444,175.14991500008696,-0.0419921875,-0.296875,1.03271484375,4.39453125,3.0517578125,2.8076171875,0.0,0.0,0.0,-0.01754601299762726,-0.002177896909415722,0.9989472031593323,-0.042330943048000336
4.740576982498169,0.246237684408642,1.982768057561559,175.16806964290086,-0.03515625,-0.1181640625,0.94921875,0.0,0.9765625,1.03759765625,0.0,0.0,0.0,-0.017196062952280045,-0.002875945996493101,0.9989577531814575,-0.042184796184301376
4.7601237297058105,0.5711335348464434,2.056326847045069,175.14930028306165,-0.0263671875,-0.2607421875,0.9326171875,-5.7373046875,1.15966796875,-0.18310546875,0.0,0.0,0.0,-0.017716696485877037,-0.005738126114010811,0.9989272356033325,-0.04239967092871666
4.780217409133911,0.8568509666378019,2.0760255394982092,175.14323507507868,-0.025390625,-0.33203125,1.0185546875,-3.41796875,1.64794921875,0.0,0.0,0.0,0.0,-0.01778220571577549,-0.008236977271735668,0.9989044070243835,-0.04249775782227516
4.8013129234313965,1.128310858784435,2.1353442383358887,175.12499846999475,-0.02001953125,-0.30419921875,0.986328125,0.54931640625,3.84521484375,0.79345703125,0.0,0.0,0.0,-0.018196869641542435,-0.01062802318483591,0.99886554479599,-0.042703449726104736
4.8204216957092285,1.2864679444409,2.223297651495201,175.10510895913168,-0.02783203125,-0.29248046875,0.96435546875,-0.67138671875,5.2490234375,1.28173828125,0.0,0.0,0.0,-0.018902488052845,-0.01204238086938858,0.9988275170326233,-0.042909909039735794
4.840973377227783,1.4664866513615775,2.2081521338975207,175.0910524298198,-0.0751953125,-0.2861328125,0.986328125,0.1220703125,-5.06591796875,1.0986328125,0.0,0.0,0.0,-0.018701370805501938,-0.013608166947960854,0.9988047480583191,-0.043060507625341415
4.860284328460693,1.6132946306601257,2.166638030678772,175.0726245794391,-0.0234375,-0.28369140625,1.07080078125,2.197265625,-4.08935546875,-1.03759765625,0.0,0.0,0.0,-0.018281949684023857,-0.014875289052724838,0.9987866878509521,-0.04324013739824295
4.880220174789429,1.7908837112269826,2.1808401283973438,175.0496614834495,-0.02490234375,-0.27294921875,1.00927734375,-2.38037109375,-1.77001953125,0.06103515625,0.0,0.0,0.0,-0.018335407599806786,-0.01643211394548416,0.9987513422966003,-0.04347050189971924
4.900463819503784,1.959639542928015,2.175132651572152,175.02320133060488,-0.07177734375,-0.27490234375,0.974609375,-0.30517578125,-4.21142578125,1.28173828125,0.0,0.0,0.0,-0.01821749284863472,-0.01790500245988369,0.9987168908119202,-0.04372715204954147
4.92035436630249,2.1551298022575347,2.129327695450754,174.98551234676475,-0.06298828125,-0.22509765625,0.9013671875,-1.03759765625,-2.62451171875,2.50244140625,0.0,0.0,0.0,-0.017737213522195816,-0.019597386941313744,0.9986783266067505,-0.044079456478357315
4.939945936203003,2.361701830071989,2.045403240128103,174.96298638288206,0.01904296875,-0.23876953125,1.04345703125,1.77001953125,4.638671875,2.38037109375,0.0,0.0,0.0,-0.016922110691666603,-0.021369226276874542,0.9986466765403748,-0.04429319128394127
4.965280771255493,2.452358930925568,2.073115878911784,174.99623574376167,0.00341796875,-0.19775390625,1.0546875,0.6103515625,12.0849609375,1.15966796875,0.0,0.0,0.0,-0.017135009169578552,-0.022164838388562202,0.9986377358436584,-0.04402177035808563
4.9813392162323,2.587092096266886,2.119084332686439,175.02742238751196,-0.0712890625,-0.20751953125,0.8955078125,-2.0751953125,5.67626953125,0.1220703125,0.0,0.0,0.0,-0.017490198835730553,-0.023351572453975677,0.9986151456832886,-0.04377890005707741
5.000424861907959,2.811838190245686,2.293715621177563,175.05701076699646,-0.146484375,-0.19677734375,0.90771484375,0.244140625,-2.44140625,-3.60107421875,0.0,0.0,0.0,-0.018932655453681946,-0.025370556861162186,0.9985478520393372,-0.04359131678938866
5.021601438522339,3.135633339690484,2.372181047806081,175.27322723536238,-0.12451171875,-0.20703125,0.90576171875,-7.4462890625,-5.67626953125,-16.29638671875,0.0,0.0,0.0,-0.01954634115099907,-0.028184296563267708,0.9985380172729492,-0.04177882522344589
5.041351318359375,3.4762175210019963,2.4492095733879578,175.86924320271604,-0.11767578125,-0.26708984375,1.09375,2.99072265625,3.7841796875,-27.64892578125,0.0,0.0,0.0,-0.02025517076253891,-0.031074322760105133,0.9986390471458435,-0.03666286543011665
5.060109376907349,3.537763501839335,2.592255932722827,176.34126391587728,-0.16162109375,-0.19970703125,1.1142578125,3.41796875,6.04248046875,-33.38623046875,0.0,0.0,0.0,-0.021612323820590973,-0.03156602755188942,0.9987361431121826,-0.032597534358501434
5.08013391494751,3.557585351140947,2.8550291049056735,177.11858042455972,-0.20556640625,-0.1201171875,0.9921875,4.39453125,2.99072265625,-42.48046875,0.0,0.0,0.0,-0.024112170562148094,-0.03164741024374962,0.998872697353363,-0.025895649567246437
5.100689888000488,3.6092077074444915,2.923614236012945,178.07645981414066,-0.20751953125,-0.11376953125,0.89892578125,0.732421875,0.30517578125,-52.06298828125,0.0,0.0,0.0,-0.0249659214168787,-0.03190437704324722,0.9990245699882507,-0.017574677243828773
5.119894027709961,3.7203327508064836,3.1311497473871936,179.26455755988604,-0.04931640625,-0.12255859375,1.1328125,7.8125,14.95361328125,-61.46240234375,0.0,0.0,0.0,-0.027097826823592186,-0.032622791826725006,0.9990736246109009,-0.007299001794308424
5.140071153640747,3.7772521322547847,3.499588934237899,-179.46964081990484,-0.19384765625,-0.09033203125,0.95361328125,2.38037109375,16.357421875,-62.5,0.0,0.0,0.0,-0.030670469626784325,-0.03279980644583702,0.9989847540855408,0.0036171923857182264
5.160206079483032,3.8378649384967702,3.7848528521405393,-178.18184963303395,-0.29248046875,-0.09716796875,0.92333984375,2.3193359375,-2.38037109375,-64.0869140625,0.0,0.0,0.0,-0.033531371504068375,-0.03293931484222412,0.9987859129905701,0.014742441475391388
5.180095195770264,3.9568472607252154,3.8269182796913555,-176.88247444533073,-0.22802734375,-0.2001953125,1.03466796875,5.126953125,0.8544921875,-65.12451171875,0.0,0.0,0.0,-0.03429628163576126,-0.0335833914577961,0.9985083937644958,0.026018492877483368
5.199931621551514,4.058429676043054,3.8451813517583235,-175.61286522203042,-0.23193359375,-0.1748046875,1.02685546875,5.615234375,-8.4228515625,-59.814453125,0.0,0.0,0.0,-0.03485817462205887,-0.0340798981487751,0.9981238842010498,0.03704302757978439
5.217556476593018,4.134974325410917,3.7335568508132746,-174.2121300270442,-0.06494140625,-0.1669921875,1.02685546875,6.103515625,-0.1220703125,-54.62646484375,0.0,0.0,0.0,-0.03433338552713394,-0.03436791151762009,0.997604250907898,0.04925385117530823
5.2351953983306885,4.27967914005363,3.6509478472360857,-173.43433540511984,-0.04736328125,-0.19970703125,0.9501953125,-1.708984375,2.197265625,-47.7294921875,0.0,0.0,0.0,-0.03391779214143753,-0.03543546423316002,0.9972246289253235,0.05600844323635101
5.261047124862671,4.463762983469229,3.590646241488159,-172.682113011448,-0.16845703125,-0.2529296875,0.9384765625,6.53076171875,-9.58251953125,-31.06689453125,0.0,0.0,0.0,-0.03372565656900406,-0.036847542971372604,0.9967929124832153,0.06251987814903259
5.275204420089722,4.702132316634443,3.43497555813299,-172.2491883010959,-0.0947265625,-0.17236328125,0.873046875,-8.11767578125,-5.79833984375,-16.4794921875,0.0,0.0,0.0,-0.032648954540491104,-0.0388861708343029,0.9965088367462158,0.06627313047647476
5.302396297454834,5.009869477897129,3.269850825749466,-172.04694639977183,-0.01611328125,-0.2607421875,1.10205078125,-2.44140625,-5.0048828125,-5.859375,0.0,0.0,0.0,-0.03146471828222275,-0.04160579666495323,0.9963201284408569,0.06800941377878189
5.315682649612427,5.043950841195024,3.084401371386688,-171.9752977153784,-0.01025390625,-0.17578125,1.08544921875,7.8125,-9.6435546875,-2.86865234375,0.0,0.0,0.0,-0.029899070039391518,-0.041997477412223816,0.9963046312332153,0.0686970204114914
5.340604782104492,5.1226222407157,2.9191189043220187,-171.90714608784,0.09814453125,-0.08935546875,0.9912109375,-4.0283203125,9.09423828125,-4.21142578125,0.0,0.0,0.0,-0.028534889221191406,-0.04276697337627411,0.9962677359580994,0.06933601200580597
5.356870651245117,5.173675770327429,2.8184604855328366,-171.7647229832669,0.0419921875,-0.13037109375,0.974609375,1.77001953125,11.962890625,-7.01904296875,0.0,0.0,0.0,-0.027744555845856667,-0.043239276856184006,0.9961806535720825,0.07060248404741287
5.381355285644531,5.240113447270966,2.8469778059781095,-171.6265345959792,-0.07177734375,-0.1064453125,1.03759765625,2.9296875,0.42724609375,-6.04248046875,0.0,0.0,0.0,-0.028086146339774132,-0.0437648706138134,0.9960642457008362,0.07177581638097763
5.4026806354522705,5.147265990127929,2.9855967086269297,-171.49102364284616,-0.0751953125,-0.07177734375,1.02490234375,-1.708984375,-0.67138671875,-6.9580078125,0.0,0.0,0.0,-0.029283400624990463,-0.04283362627029419,0.9959871768951416,0.07292012125253677
5.417537450790405,5.103359826595794,3.013127280180547,-171.3874916354071,-0.080078125,-0.0732421875,0.95947265625,-0.3662109375,-4.08935546875,-6.89697265625,0.0,0.0,0.0,-0.0295330248773098,-0.042407259345054626,0.9959318041801453,0.07381995767354965
5.442221403121948,5.050352862881441,2.8986022967157696,-171.1862059605668,0.00390625,-0.095703125,1.05712890625,3.72314453125,1.52587890625,-10.55908203125,0.0,0.0,0.0,-0.02857743203639984,-0.041972506791353226,0.9958423972129822,0.07562878727912903
5.460411310195923,4.947548697475817,2.8416359577169246,-171.0023099473534,-0.0966796875,-0.05908203125,0.94873046875,0.9765625,-5.2490234375,-10.80322265625,0.0,0.0,0.0,-0.028080526739358902,-0.04107276350259781,0.9957676529884338,0.0772748813033104
5.4800331592559814,4.835735512554947,2.951726867749894,-170.83916404883848,-0.0888671875,-0.03466796875,0.85888671875,-1.8310546875,-5.37109375,-8.544921875,0.0,0.0,0.0,-0.029018592089414597,-0.03998355567455292,0.995675265789032,0.07867758721113205
5.50247049331665,4.853322395894083,2.855325364360923,-170.70434977500076,-0.13623046875,-0.02490234375,1.00830078125,-6.40869140625,-12.5732421875,-6.8359375,0.0,0.0,0.0,-0.028240464627742767,-0.040171172469854355,0.9955941438674927,0.07988163083791733
5.520179271697998,4.766283160866495,2.797614534742546,-170.56322440636995,-0.02783203125,-0.06005859375,1.10791015625,0.732421875,-0.3662109375,-6.4697265625,0.0,0.0,0.0,-0.02772701345384121,-0.03942210227251053,0.9955359101295471,0.0811510756611824
5.542231798171997,4.524042391102353,2.764438598396502,-170.40029707390846,0.00927734375,-0.02783203125,1.095703125,1.15966796875,12.02392578125,-9.765625,0.0,0.0,0.0,-0.027320269495248795,-0.037302758544683456,0.9955065846443176,0.08263703435659409
5.56023907661438,4.376775828634062,2.7721697322067214,-170.21025389044203,-0.06787109375,0.005859375,0.9501953125,-0.6103515625,0.3662109375,-10.498046875,0.0,0.0,0.0,-0.027340900152921677,-0.035972364246845245,0.9954137802124023,0.08432034403085709
5.580406665802002,4.043863870751178,2.7705622898742415,-170.04139795378097,-0.03955078125,-0.04296875,1.072265625,10.6201171875,2.44140625,-9.33837890625,0.0,0.0,0.0,-0.027130572125315666,-0.03304160758852959,0.995388925075531,0.08586675673723221
5.600344181060791,3.8445896866214713,2.7506358533009636,-169.85780246889104,-0.05712890625,0.02734375,0.96728515625,-2.13623046875,0.18310546875,-9.6435546875,0.0,0.0,0.0,-0.026858286932110786,-0.031282808631658554,0.9953096508979797,0.08751469105482101
5.620376825332642,3.703367841568641,2.8464732257531744,-169.69020328703726,-0.05810546875,-0.00341796875,1.00244140625,-0.18310546875,9.8876953125,-10.1318359375,0.0,0.0,0.0,-0.027626559138298035,-0.029941273853182793,0.9952004551887512,0.08897469192743301
5.640234708786011,3.4754375987761454,3.0379550178135433,-169.4076930025872,-0.12646484375,-0.01416015625,1.07861328125,8.6669921875,3.47900390625,-16.6015625,0.0,0.0,0.0,-0.029180806130170822,-0.027738526463508606,0.994997501373291,0.09142846614122391
5.655191898345947,3.282940029520149,3.328928760418903,-168.91132949522404,-0.177734375,0.0400390625,0.9072265625,4.7607421875,14.95361328125,-28.25927734375,0.0,0.0,0.0,-0.031664956361055374,-0.02569391019642353,0.9945740103721619,0.095707468688488
5.682124614715576,3.0777562376545,3.5570131093545467,-167.83541077640695,-0.2607421875,0.08203125,1.00439453125,1.220703125,2.3193359375,-49.37744140625,0.0,0.0,0.0,-0.03369409590959549,-0.0234039518982172,0.9936215877532959,0.10503878444433212
5.7008867263793945,3.014379339232775,3.8120002927704015,-166.9845194699851,-0.13818359375,0.0810546875,1.04150390625,-0.79345703125,21.484375,-60.36376953125,0.0,0.0,0.0,-0.03601349517703056,-0.022350167855620384,0.992762565612793,0.11236636340618134
5.721762418746948,2.9072610555926417,4.148898519807634,-165.6222245796477,-0.24462890625,0.06787109375,1.03759765625,5.7373046875,13.12255859375,-72.69287109375,0.0,0.0,0.0,-0.039074428379535675,-0.02062360756099224,0.9912846684455872,0.1241074949502945
5.735509395599365,2.802044552749534,4.528932806548083,-163.968048385319,-0.197265625,0.0947265625,0.9990234375,1.64794921875,17.9443359375,-86.669921875,0.0,0.0,0.0,-0.042521219700574875,-0.01868392340838909,0.9892948865890503,0.13834208250045776
5.76026177406311,2.6846449134178276,4.658491249819469,-162.09548372246832,-0.3466796875,0.06640625,1.0380859375,15.07568359375,-8.85009765625,-99.7314453125,0.0,0.0,0.0,-0.04377801716327667,-0.016798721626400948,0.9868795275688171,0.15449976921081543
5.776278495788574,2.495991886890902,4.7488251973479425,-159.98914900508476,-0.21044921875,0.17626953125,0.98291015625,9.09423828125,17.333984375,-109.55810546875,0.0,0.0,0.0,-0.04457051306962967,-0.014233946800231934,0.9838692545890808,0.17266257107257843
5.796554088592529,2.513920920018774,5.081102801411661,-157.71013344510493,-0.3583984375,0.16845703125,0.9248046875,-0.54931640625,9.46044921875,-115.90576171875,0.0,0.0,0.0,-0.04771599546074867,-0.012935630977153778,0.9801291227340698,0.19210098683834076
5.8203651905059814,2.5949365685286456,5.118424662583903,-155.3856424856312,-0.45947265625,0.087890625,1.05517578125,6.53076171875,0.0,-117.1875,0.0,0.0,0.0,-0.04843613877892494,-0.012585503980517387,0.9760096073150635,0.21189779043197632
5.839444398880005,2.519561375612735,5.442223013679875,-153.0898793018065,-0.37646484375,0.0634765625,1.02587890625,13.36669921875,9.21630859375,-112.79296875,0.0,0.0,0.0,-0.05127018317580223,-0.010314173996448517,0.971464216709137,0.23134897649288177
5.857034921646118,2.5154933576317577,5.262915606928231,-150.25323343760851,-0.4619140625,0.14794921875,0.8642578125,3.90625,-6.103515625,-113.037109375,0.0,0.0,0.0,-0.049990806728601456,-0.009410370141267776,0.9655023217201233,0.2553773820400238
5.880379676818848,2.5652310086112022,5.412826733265787,-148.56862192033822,-0.34619140625,0.11669921875,0.88671875,3.5400390625,11.04736328125,-111.51123046875,0.0,0.0,0.0,-0.05149799585342407,-0.008736666291952133,0.9615892767906189,0.2694767415523529
5.900497198104858,2.6747332417150815,5.4649824846548265,-146.34715753430493,-0.453125,0.0966796875,0.98974609375,0.79345703125,-5.37109375,-110.83984375,0.0,0.0,0.0,-0.05236782878637314,-0.00851841364055872,0.9561594128608704,0.2880003750324249
5.92022442817688,2.8070231203242386,5.603725397925765,-144.17514371786254,-0.35546875,0.08984375,1.025390625,-2.197265625,10.19287109375,-105.77392578125,0.0,0.0,0.0,-0.054023128002882004,-0.008248476311564445,0.9504733085632324,0.3059638738632202
5.94077730178833,2.8611348671368417,5.5022014661026954,-142.15892651638814,-0.44189453125,0.02001953125,1.103515625,7.14111328125,-18.9208984375,-99.06005859375,0.0,0.0,0.0,-0.05347573384642601,-0.008030801080167294,0.9449729323387146,0.322648286819458
5.955282688140869,2.8555573773492915,5.474520843830749,-140.32760253574597,-0.23779296875,0.04541015625,1.13671875,6.9580078125,2.9296875,-88.5009765625,0.0,0.0,0.0,-0.05335400626063347,-0.007211579009890556,0.9397054314613342,0.3377206027507782
5.980372190475464,2.802590114109489,5.448441047145526,-138.70488619273434,-0.26953125,0.02001953125,1.01171875,5.7373046875,-11.16943359375,-77.7587890625,0.0,0.0,0.0,-0.05307596176862717,-0.006103626452386379,0.9348399639129639,0.3510269820690155
5.995530366897583,2.7196460043761466,5.206991298664636,-137.3833538713636,-0.26123046875,0.001953125,0.94189453125,8.1787109375,-15.80810546875,-58.7158203125,0.0,0.0,0.0,-0.050921451300382614,-0.005584243685007095,0.9308064579963684,0.36190491914749146
6.021740436553955,2.5079105669925745,5.2275591326896595,-136.26305258331976,-0.083984375,0.0185546875,0.958984375,4.638671875,1.8310546875,-35.70556640625,0.0,0.0,0.0,-0.05045432597398758,-0.0033059348352253437,0.9272255897521973,0.37107452750205994
6.0406813621521,2.417681206735767,5.115551714264267,-135.82380311779625,-0.1962890625,0.04833984375,0.912109375,-1.89208984375,-17.08984375,-26.9775390625,0.0,0.0,0.0,-0.04926739260554314,-0.0027515001129359007,0.92583167552948,0.37470120191574097
6.061097860336304,2.240702681047686,5.07401605326095,-135.34917327237207,-0.029296875,0.021484375,1.1025390625,2.86865234375,9.1552734375,-15.9912109375,0.0,0.0,0.0,-0.04835890978574753,-0.0012577541638165712,0.9242867827415466,0.37862110137939453
6.080154657363892,2.0197975012599603,5.02870799340167,-135.15837876809692,-0.1171875,0.009765625,1.005859375,8.11767578125,-7.50732421875,-12.75634765625,0.0,0.0,0.0,-0.047263022512197495,0.0004524350515566766,0.9236690402030945,0.38026508688926697
6.100183010101318,1.9075027880026036,4.92809759938009,-134.97985128357112,-0.13330078125,0.0849609375,0.8115234375,-5.7373046875,-8.056640625,-9.6435546875,0.0,0.0,0.0,-0.04607820883393288,0.0010942812077701092,0.9231041669845581,0.381777822971344
6.120441675186157,1.9464455384422543,4.946069961520509,-134.79050477940004,-0.0517578125,0.06005859375,0.95556640625,-8.4228515625,8.30078125,-9.46044921875,0.0,0.0,0.0,-0.04635118320584297,0.0009172549471259117,0.9224672317504883,0.38328197598457336
6.140038728713989,1.9146894276699262,4.960350179527714,-134.63177118308894,-0.17578125,-0.05810546875,1.10595703125,-1.953125,-7.568359375,-7.080078125,0.0,0.0,0.0,-0.04635811969637871,0.0012850331841036677,0.9219309687614441,0.38456812500953674
6.160243511199951,2.1754750148042987,4.915084381463923,-134.49339155050447,-0.1328125,-0.10888671875,1.0439453125,-5.126953125,-11.29150390625,-6.591796875,0.0,0.0,0.0,-0.046870388090610504,-0.0009089412051253021,0.921479344367981,0.3855883479118347
6.180353879928589,2.294217426638147,4.791731591940316,-134.33071010485313,0.0029296875,-0.08447265625,1.15771484375,3.662109375,0.91552734375,-8.11767578125,0.0,0.0,0.0,-0.04628187045454979,-0.002214820357039571,0.9209632277488708,0.3868847191333771
6.2005016803741455,2.386290511084035,4.711047847935425,-134.20260307678035,-0.12939453125,-0.083984375,0.92333984375,-0.732421875,-11.23046875,-6.04248046875,0.0,0.0,0.0,-0.04594830796122551,-0.0031769501511007547,0.9205493330955505,0.3879016041755676
6.220464706420898,2.6654693707664285,4.6403101400225415,-134.07147710509446,0.00732421875,-0.1806640625,0.8798828125,-8.1787109375,8.4228515625,-5.06591796875,0.0,0.0,0.0,-0.04633186012506485,-0.005607124883681536,0.9201120734214783,0.38886457681655884
6.240218162536621,3.0133025172214403,4.6236265492011395,-133.96474856912383,-0.11376953125,-0.21826171875,0.93701171875,-8.30078125,-15.07568359375,-2.38037109375,0.0,0.0,0.0,-0.04738602414727211,-0.008412759751081467,0.9197323322296143,0.3895849287509918
6.2605791091918945,3.370241586500548,4.231381591772001,-134.13395967562172,-0.0703125,-0.2685546875,1.048828125,-6.89697265625,-19.10400390625,13.73291015625,0.0,0.0,0.0,-0.04543539509177208,-0.012685118243098259,0.9203582406044006,0.38822096586227417
6.280276298522949,3.7189850691058752,3.825834414047439,-134.77754108035535,0.06005859375,-0.228515625,0.9130859375,-4.45556640625,-19.8974609375,34.7900390625,0.0,0.0,0.0,-0.043267231434583664,-0.017110463231801987,0.9225510358810425,0.3830597400665283
6.301932334899902,4.0101317008746005,3.6037273344092027,-135.46125667665197,0.02099609375,-0.216796875,0.8740234375,-15.13671875,-11.04736328125,51.08642578125,0.0,0.0,0.0,-0.04233267158269882,-0.020453691482543945,0.9248054623603821,0.377524197101593
6.317686557769775,4.243325885083061,3.1198131274688534,-136.64383562954797,0.10888671875,-0.2861328125,1.08984375,-5.43212890625,-19.95849609375,64.75830078125,0.0,0.0,0.0,-0.03894985094666481,-0.024341676384210587,0.9286651015281677,0.3680647313594818
6.340936660766602,4.365965773612047,2.8679718864960244,-138.15073928499288,0.20166015625,-0.283203125,1.12841796875,-3.41796875,-5.37109375,80.9326171875,0.0,0.0,0.0,-0.03695736825466156,-0.026636824011802673,0.93342125415802,0.3558782637119293
6.360442161560059,4.401206988408375,2.622722418402492,-140.4639604323361,0.19091796875,-0.26220703125,1.05712890625,0.91552734375,-3.5400390625,101.62353515625,0.0,0.0,0.0,-0.03450443595647812,-0.028391560539603233,0.9404265880584717,0.3370477557182312
6.380263090133667,4.454885018208682,2.514801374091471,-142.04819548956388,0.16162109375,-0.26025390625,0.97314453125,1.89208984375,-25.2685546875,106.50634765625,0.0,0.0,0.0,-0.0333709679543972,-0.02961522899568081,0.9449906945228577,0.324040025472641
6.395739793777466,4.3973880588886916,2.329209339529769,-144.41544343324193,0.240234375,-0.24267578125,1.01123046875,-1.3427734375,1.28173828125,124.08447265625,0.0,0.0,0.0,-0.031059080734848976,-0.030316496267914772,0.9515113830566406,0.30453652143478394
6.420396327972412,4.462230032887384,2.318110922458733,-147.0171444503698,0.16796875,-0.16748046875,0.7607421875,-8.11767578125,-9.70458984375,133.72802734375,0.0,0.0,0.0,-0.030430123209953308,-0.0315835140645504,0.9581628441810608,0.282843679189682
6.440550804138184,4.571815295478361,1.7182553215744751,-149.84172820049358,0.1455078125,-0.27685546875,0.95556640625,-2.99072265625,-38.4521484375,142.822265625,0.0,0.0,0.0,-0.024841539561748505,-0.034610677510499954,0.9648462533950806,0.25933924317359924
6.460119962692261,4.64867071845346,1.5839509640469873,-152.81814705586672,0.47119140625,-0.32421875,1.18212890625,-1.0986328125,1.52587890625,150.0244140625,0.0,0.0,0.0,-0.022953353822231293,-0.03617139533162117,0.9712375402450562,0.23422761261463165
6.480533599853516,4.472445007677961,1.5609457129836208,-155.92974901529274,0.30224609375,-0.3056640625,1.09814453125,7.87353515625,-18.9208984375,155.33447265625,0.0,0.0,0.0,-0.021447114646434784,-0.03532029315829277,0.9772952795028687,0.2078133374452591
6.500458240509033,4.388465270511716,1.4026027181156846,-159.20455151474704,0.33447265625,-0.25244140625,0.96630859375,2.685546875,-3.35693359375,165.46630859375,0.0,0.0,0.0,-0.018939457833766937,-0.03544826805591583,0.9828684329986572,0.17987337708473206
6.5202953815460205,4.407185965253074,1.4884592631998026,-162.65442542300713,0.193359375,-0.22509765625,0.78955078125,-2.0751953125,-29.72412109375,173.64501953125,0.0,0.0,0.0,-0.01862838678061962,-0.03605044633150101,0.9878265857696533,0.15017342567443848
6.540078163146973,4.499656481331292,0.8299172362237673,-166.25704968186537,0.32421875,-0.2939453125,0.91552734375,-5.126953125,-19.22607421875,183.59375,0.0,0.0,0.0,-0.011881430633366108,-0.03810799494385719,0.9920597672462463,0.11926496028900146
6.560673475265503,4.530913561407386,0.9265178289548742,-169.90333250989835,0.5439453125,-0.373046875,1.19384765625,2.50244140625,-2.44140625,180.7861328125,0.0,0.0,0.0,-0.011525962501764297,-0.0386638306081295,0.9953379034996033,0.08760607242584229
6.580504655838013,4.28148188310769,0.6917105461635279,-173.59122485035502,0.35595703125,-0.34765625,1.0751953125,19.6533203125,-24.658203125,184.14306640625,0.0,0.0,0.0,-0.008110623806715012,-0.03695801645517349,0.9977341294288635,0.05563284829258919
6.6003828048706055,4.124318803418874,0.8196864666207345,-177.42017425755083,0.283203125,-0.25146484375,0.8212890625,13.36669921875,-29.1748046875,192.3828125,0.0,0.0,0.0,-0.007956629619002342,-0.03581273928284645,0.9990794062614441,0.022238878533244133
6.623309135437012,4.228659761387751,0.20859152265295644,178.59145607755963,0.28369140625,-0.23876953125,0.76123046875,-6.2255859375,-26.06201171875,201.59912109375,0.0,0.0,0.0,-0.0013654453214257956,-0.036913152784109116,0.9992412328720093,-0.012350370176136494
6.640308856964111,4.3135547439027775,0.373338860404411,174.52879125734435,0.5712890625,-0.400390625,1.181640625,3.11279296875,6.40869140625,204.7119140625,0.0,0.0,0.0,-0.0014558176044374704,-0.03774626925587654,0.9981417655944824,-0.047815605998039246
6.655255079269409,4.064555075068085,0.3256517335994249,170.42894288728752,0.3955078125,-0.37109375,1.03955078125,14.16015625,-11.65771484375,207.70263671875,0.0,0.0,0.0,0.00012833041546400636,-0.035575661808252335,0.9958747625350952,-0.08347372710704803
6.680516004562378,3.885558441923677,0.328231944280103,166.2811192685005,0.4267578125,-0.31298828125,0.9541015625,11.41357421875,-17.02880859375,207.275390625,0.0,0.0,0.0,0.0012067408533766866,-0.03400050103664398,0.9922557473182678,-0.1194612979888916
6.703251361846924,3.8378213960408116,-0.06785818953823453,162.04149790726854,0.3056640625,-0.2900390625,0.7998046875,3.41796875,-30.33447265625,212.34130859375,0.0,0.0,0.0,0.00581082608550787,-0.03298231214284897,0.9871939420700073,-0.15596960484981537
6.722156047821045,3.7246400388518226,0.08765746052896682,156.67410303104072,0.66162109375,-0.345703125,1.01806640625,9.33837890625,6.7138671875,213.19580078125,0.0,0.0,0.0,0.005820809863507748,-0.03198147937655449,0.9788311123847961,-0.20207148790359497
6.742883205413818,3.573401294494346,-0.11652836332570661,153.59931579124108,0.6689453125,-0.3583984375,1.0078125,15.869140625,-22.52197265625,200.74462890625,0.0,0.0,0.0,0.008109425194561481,-0.030122818425297737,0.9731109142303467,-0.22821466624736786
6.757477045059204,3.4247494842850115,-0.4428653036371013,148.7497038956136,0.73095703125,-0.15869140625,0.81787109375,7.01904296875,-20.08056640625,184.08203125,0.0,0.0,0.0,0.011768702417612076,-0.027737131342291832,0.9626383185386658,-0.2691090703010559
6.783884525299072,3.371903456902977,-0.28960714448240155,145.12717646551394,0.7119140625,-0.154296875,0.82421875,0.30517578125,14.7705078125,179.443359375,0.0,0.0,0.0,0.01122606173157692,-0.027312202379107475,0.9536563158035278,-0.2994455099105835
6.800882339477539,3.2429428686273774,-0.3459800574362489,142.57361462165628,0.6240234375,-0.322265625,1.08935546875,14.6484375,-23.193359375,164.55078125,0.0,0.0,0.0,0.011936760507524014,-0.02583199366927147,0.9467803239822388,-0.3206203579902649
6.824122428894043,2.987240222895964,-0.532349212779025,138.52466482129438,0.6533203125,-0.19189453125,1.0205078125,14.09912109375,-8.30078125,162.04833984375,0.0,0.0,0.0,0.013572623021900654,-0.022732213139533997,0.9349265098571777,-0.35385245084762573
6.840356826782227,2.8487052035078877,-0.48420811851807116,136.09233883520446,0.5859375,-0.1669921875,0.94287109375,11.5966796875,8.23974609375,164.0625,0.0,0.0,0.0,0.013210847042500973,-0.021475117653608322,0.9272298812866211,-0.37364310026168823
6.862693786621094,2.9697856744719964,-0.6670033506972117,132.8130147505196,0.37353515625,-0.2060546875,0.74755859375,1.03759765625,-29.84619140625,161.9873046875,0.0,0.0,0.0,0.01570383831858635,-0.021417908370494843,0.9161453247070312,-0.3999656140804291
6.880228281021118,3.1434101503907783,-1.0002579386165071,129.619272936135,0.57373046875,-0.27587890625,0.9267578125,-1.8310546875,-4.150390625,158.203125,0.0,0.0,0.0,0.01956934668123722,-0.02110479213297367,0.904625654220581,-0.42523419857025146
6.900405168533325,3.060105107848483,-1.0043875350217202,126.52747852530202,0.64404296875,-0.34375,1.16650390625,13.5498046875,-8.7890625,150.81787109375,0.0,0.0,0.0,0.01983698457479477,-0.019903894513845444,0.8928394317626953,-0.4494977593421936
6.920325756072998,3.001723639030976,-0.9846034652039551,123.45438517241651,0.56201171875,-0.25341796875,0.958984375,3.72314453125,-4.21142578125,153.86962890625,0.0,0.0,0.0,0.01997046358883381,-0.018998024985194206,0.8804742097854614,-0.47329211235046387
6.940769672393799,3.0650027803702056,-1.2283986366128035,120.40467838724913,0.63134765625,-0.2646484375,1.015625,-0.732421875,-3.5400390625,150.390625,0.0,0.0,0.0,0.022588346153497696,-0.01788165606558323,0.8675680160522461,-0.49648353457450867
6.960959434509277,3.0602028649309787,-1.4803708251186267,117.43507606066767,0.54541015625,-0.24951171875,0.93798828125,5.9814453125,-14.404296875,148.98681640625,0.0,0.0,0.0,0.024900412186980247,-0.0161126721650362,0.8544209003448486,-0.5187343955039978
6.9804980754852295,3.191614850788378,-1.2748711370038646,114.40687754119668,0.44970703125,-0.212890625,0.8056640625,5.0048828125,3.662109375,153.74755859375,0.0,0.0,0.0,0.024431558325886726,-0.017384298145771027,0.8403888940811157,-0.5411537885665894
7.000350475311279,3.273177554762085,-1.394007245210341,111.37645921024541,0.52783203125,-0.3076171875,1.02392578125,0.3662109375,-0.42724609375,152.28271484375,0.0,0.0,0.0,0.026141684502363205,-0.01673389971256256,0.8257803320884705,-0.5631371736526489
7.015588045120239,3.3224187363662345,-1.3623224245374748,108.41473892196615,0.634765625,-0.30078125,1.07421875,10.3759765625,-9.58251953125,144.287109375,0.0,0.0,0.0,0.02659236453473568,-0.016562916338443756,0.8109424114227295,-0.5842866897583008
7.040152072906494,3.246687092953014,-1.711553838781635,105.56038920743947,0.5859375,-0.29248046875,1.0234375,8.6669921875,-14.83154296875,141.90673828125,0.0,0.0,0.0,0.029022248461842537,-0.013525862246751785,0.7961684465408325,-0.6042272448539734
7.06010365486145,3.3508848303927317,-1.7620894479552072,102.69418911470284,0.56494140625,-0.1982421875,0.86669921875,-3.35693359375,-3.72314453125,143.73779296875,0.0,0.0,0.0,0.030262883752584457,-0.01323031634092331,0.7807987332344055,-0.623909056186676
7.080144643783569,3.5914389703187033,-1.913259783699278,99.87830019539251,0.48974609375,-0.216796875,0.8193359375,-0.30517578125,-18.9208984375,137.63427734375,0.0,0.0,0.0,0.03293698653578758,-0.013240087777376175,0.7652155756950378,-0.6427946090698242
7.100186347961426,3.7387862143965656,-2.1377593505377233,97.14184637612944,0.62646484375,-0.26708984375,1.044921875,6.2255859375,-5.18798828125,134.6435546875,0.0,0.0,0.0,0.03556064888834953,-0.012117471545934677,0.7496485710144043,-0.660768985748291
7.120182991027832,3.758622791293575,-1.8989206553104825,94.45995210795641,0.71728515625,-0.20556640625,1.05224609375,0.18310546875,17.2119140625,134.521484375,0.0,0.0,0.0,0.03442372754216194,-0.012824267148971558,0.7339586615562439,-0.6782000064849854
7.140335321426392,3.829709692627775,-2.0435960147624,91.85439203394746,0.58447265625,-0.19677734375,1.04248046875,2.38037109375,-17.88330078125,127.685546875,0.0,0.0,0.0,0.036043282598257065,-0.011605840176343918,0.718355655670166,-0.6946448087692261
7.1600847244262695,3.926380775045551,-2.24997359562892,89.31129403989827,0.69775390625,-0.1806640625,1.0595703125,2.0751953125,-1.220703125,124.57275390625,0.0,0.0,0.0,0.03815528005361557,-0.010115055367350578,0.7027747631072998,-0.7103164792060852
7.181936502456665,3.8301139544492755,-2.0032244741257474,86.95874466331409,0.634765625,-0.17138671875,0.98779296875,16.7236328125,11.04736328125,116.27197265625,0.0,0.0,0.0,0.03626653924584389,-0.010313889943063259,0.6880278587341309,-0.7247041463851929
7.200210332870483,3.7352729358422403,-2.2191799011993294,84.63085909982284,0.3447265625,-0.10107421875,0.66943359375,4.150390625,-27.099609375,114.74609375,0.0,0.0,0.0,0.03712429106235504,-0.007624591700732708,0.6731945276260376,-0.7384936809539795
7.220210552215576,3.8650230512972104,-2.727405739603516,82.27119266612353,0.6181640625,-0.09716796875,0.89453125,-2.38037109375,-14.95361328125,114.990234375,0.0,0.0,0.0,0.04103792831301689,-0.004263666924089193,0.65788733959198,-0.7519853711128235
7.2415502071380615,3.8721059574665135,-2.5954639871986176,79.49352548540858,0.77587890625,-0.15478515625,1.17529296875,14.46533203125,7.38525390625,105.46875,0.0,0.0,0.0,0.04044177010655403,-0.0041924151591956615,0.6394549608230591,-0.7677528262138367
7.2606024742126465,3.7309959567613427,-2.5722372885957543,77.95813311093556,0.6455078125,-0.12109375,1.04833984375,13.671875,0.1220703125,104.248046875,0.0,0.0,0.0,0.039411112666130066,-0.0030330270528793335,0.6291126608848572,-0.7763084173202515
7.28164005279541,3.5528701727361107,-2.768718565685161,75.56807916561885,0.68115234375,-0.0751953125,1.08544921875,19.53125,-10.07080078125,85.26611328125,0.0,0.0,0.0,0.03928764536976814,9.697075438452885e-05,0.6128056049346924,-0.7892565727233887
7.300896644592285,3.3162512889891245,-2.7339223804019426,74.44277817910258,0.7109375,-0.02783203125,1.05712890625,19.04296875,9.521484375,71.71630859375,0.0,0.0,0.0,0.03745925799012184,0.0014903233386576176,0.6050207018852234,-0.7953267693519592
7.320281982421875,3.1188146391895626,-2.766978361550689,73.20383650517562,0.48876953125,0.05419921875,0.8330078125,7.14111328125,-7.01904296875,54.931640625,0.0,0.0,0.0,0.036231134086847305,0.003154316684231162,0.5963846445083618,-0.8018745183944702
7.340254783630371,2.967587847663133,-2.7721526567337964,72.50379675676267,0.65966796875,0.07177734375,1.04052734375,10.498046875,7.568359375,22.27783203125,0.0,0.0,0.0,0.03517479449510574,0.0041925641708076,0.5914702415466309,-0.8055483102798462
7.360280275344849,2.6916640000070737,-2.9595559720860214,72.4660941125442,0.52587890625,0.12255859375,0.955078125,12.26806640625,-6.7138671875,-9.58251953125,0.0,0.0,0.0,0.034198466688394547,0.006946622859686613,0.5912001132965088,-0.8057696223258972
7.3753838539123535,2.532600847068524,-3.1228196913641284,72.99403358444034,0.49169921875,0.15869140625,0.81005859375,-1.953125,1.220703125,-35.64453125,0.0,0.0,0.0,0.03396162390708923,0.008759913966059685,0.5948989391326904,-0.8030349612236023
7.4002602100372314,2.488720510189189,-3.3687139720039925,74.01658120508294,0.505859375,0.1083984375,0.958984375,-2.0751953125,-4.57763671875,-59.75341796875,0.0,0.0,0.0,0.03502273932099342,0.010400309227406979,0.6020383238792419,-0.7976309657096863
7.415470123291016,2.3081851634908235,-3.6120947430292913,75.46130964851322,0.48095703125,0.09375,1.060546875,3.0517578125,0.91552734375,-79.345703125,0.0,0.0,0.0,0.03520427271723747,0.012601647526025772,0.6120242476463318,-0.7899546027183533
7.440416574478149,2.023849084098247,-3.382574987150887,77.64518750354392,0.1806640625,0.25390625,1.0380859375,0.9765625,26.18408203125,-88.0126953125,0.0,0.0,0.0,0.03225305676460266,0.011923957616090775,0.6269463300704956,-0.7783032655715942
7.460301399230957,1.715875961144078,-3.0258965322772973,79.02414805545614,0.00341796875,0.25537109375,1.0751953125,10.1318359375,26.123046875,-92.1630859375,0.0,0.0,0.0,0.0283444095402956,0.010843981057405472,0.6362527012825012,-0.7708836793899536
7.480127334594727,1.2920370032136932,-2.498710088737156,80.88365339661377,-0.14453125,0.32080078125,0.96630859375,7.080078125,22.76611328125,-91.1865234375,0.0,0.0,0.0,0.022721484303474426,0.009280904196202755,0.6486673355102539,-0.7606763243675232
7.500478506088257,0.9057208634275374,-2.218731029704813,82.71336545261181,-0.193359375,0.30517578125,0.9951171875,10.7421875,7.32421875,-90.6982421875,0.0,0.0,0.0,0.01872377283871174,0.009310596622526646,0.6607149243354797,-0.7503456473350525
7.52045464515686,0.52857307866336,-1.976549383765674,84.54550905595437,-0.1142578125,0.3408203125,0.96044921875,4.94384765625,9.94873046875,-91.61376953125,0.0,0.0,0.0,0.015014417469501495,0.009660095907747746,0.6726123690605164,-0.7397796511650085
7.540187835693359,0.35357261311151145,-1.6845336104250646,86.34876778929694,-0.16552734375,0.3623046875,1.00341796875,-2.8076171875,6.77490234375,-89.05029296875,0.0,0.0,0.0,0.012307797558605671,0.008609204553067684,0.684177041053772,-0.7291613221168518
7.5602707862854,0.15894429163873536,-1.5553253210703466,88.12307335074783,-0.181640625,0.328125,1.078125,0.3662109375,1.28173828125,-88.07373046875,0.0,0.0,0.0,0.01043525617569685,0.008788486942648888,0.695379376411438,-0.7185133099555969
7.580417633056641,-0.061062931716545366,-1.4655225274715478,89.86566634388235,-0.154296875,0.326171875,0.98291015625,1.220703125,1.3427734375,-85.99853515625,0.0,0.0,0.0,0.008655191399157047,0.009429930709302425,0.7062146663665771,-0.7078821063041687
7.600106477737427,-0.23660613050314555,-1.3113644108524196,91.55342657836002,-0.15185546875,0.32373046875,0.962890625,-1.708984375,3.41796875,-82.3974609375,0.0,0.0,0.0,0.00676075229421258,0.00946094747632742,0.7165622711181641,-0.6974263191223145
7.621674060821533,-0.4422355922121379,-1.0880947049513998,93.14813231558543,-0.16015625,0.2939453125,1.009765625,3.84521484375,7.4462890625,-77.7587890625,0.0,0.0,0.0,0.004243247676640749,0.009329845197498798,0.7262002825737,-0.6874067783355713
7.640125751495361,-0.7102623004446346,-0.9820863270513939,94.63516695073476,-0.20458984375,0.3359375,0.99072265625,1.220703125,0.0,-72.81494140625,0.0,0.0,0.0,0.0020982418209314346,0.010366175323724747,0.7350455522537231,-0.6779353618621826
7.6603429317474365,-0.8454142951202916,-0.8256896692926469,96.02594372991109,-0.17431640625,0.36279296875,1.03125,-2.3193359375,0.9765625,-68.115234375,0.0,0.0,0.0,0.0004204456927254796,0.010303610004484653,0.7432212233543396,-0.6689662933349609
7.679967403411865,-0.9812051259267565,-0.7372915467853435,97.30497178407684,-0.18408203125,0.3291015625,1.06494140625,0.18310546875,1.15966796875,-61.95068359375,0.0,0.0,0.0,-0.000826536095701158,0.010678223334252834,0.7506371140480042,-0.6606280207633972
7.7005579471588135,-1.2062278425669422,-0.6013710491063542,98.45257333823322,-0.14404296875,0.2978515625,1.00732421875,5.67626953125,0.18310546875,-54.931640625,0.0,0.0,0.0,-0.0029002302326261997,0.01139836385846138,0.7572063207626343,-0.6530699133872986
7.720094919204712,-1.403871639197426,-0.5356854933843118,99.4704354491052,-0.1318359375,0.33251953125,0.9375,-1.708984375,-0.42724609375,-49.98779296875,0.0,0.0,0.0,-0.004350999835878611,0.012369194999337196,0.7629631161689758,-0.6463090181350708
7.743264436721802,-1.491338187934963,-0.44204602778224356,100.40570691253339,-0.1083984375,0.3388671875,0.9833984375,-6.04248046875,0.06103515625,-45.47119140625,0.0,0.0,0.0,-0.0053662569262087345,0.012467703782022,0.7682124972343445,-0.640051007270813
7.760221242904663,-1.6202985627671507,-0.4064890768193621,101.25570346417396,-0.10791015625,0.31396484375,1.06884765625,-0.244140625,-4.0283203125,-40.52734375,0.0,0.0,0.0,-0.006227354984730482,0.013180213049054146,0.7729281187057495,-0.6343262195587158
7.780689477920532,-1.7745170838717512,-0.364179283242733,102.01524099044688,-0.0537109375,0.3095703125,1.0185546875,-1.52587890625,-0.67138671875,-36.376953125,0.0,0.0,0.0,-0.007273567840456963,0.014034761115908623,0.7771015763282776,-0.6291766166687012
7.802185535430908,-1.9653794631517645,-0.2619487470056845,102.82084814267155,-0.048828125,0.2890625,1.00537109375,0.8544921875,0.91552734375,-30.1513671875,0.0,0.0,0.0,-0.008910775184631348,0.014830856584012508,0.7814925312995911,-0.623674750328064
7.8201189041137695,-2.1146421484049918,-0.21392787474629335,103.23514692715702,-0.03564453125,0.2890625,1.0224609375,0.9765625,1.0986328125,-26.7333984375,0.0,0.0,0.0,-0.009994227439165115,0.015623696148395538,0.783727765083313,-0.6208276152610779
7.840177536010742,-2.3244469901309777,-0.16132398557446334,103.74066971819717,-0.01318359375,0.29150390625,1.02685546875,0.48828125,0.30517578125,-24.658203125,0.0,0.0,0.0,-0.011416551657021046,0.016824157908558846,0.7864352464675903,-0.6173381209373474
7.860244274139404,-2.4884887106442317,-0.101364816429856,104.199617449287,-0.0283203125,0.28955078125,1.005859375,0.18310546875,0.732421875,-22.8271484375,0.0,0.0,0.0,-0.012641080655157566,0.017677733674645424,0.7888838648796082,-0.6141578555107117
7.8753862380981445,-2.6701666199246934,-0.06216664759773711,104.60743438425013,-0.0595703125,0.27294921875,1.01025390625,0.06103515625,-1.46484375,-18.4326171875,0.0,0.0,0.0,-0.013817922212183475,0.018767666071653366,0.7910405397415161,-0.6113196611404419
7.900189399719238,-2.841904256085259,-0.022405928644124367,104.93387644544171,-0.05126953125,0.25927734375,1.00634765625,0.67138671875,-0.732421875,-14.95361328125,0.0,0.0,0.0,-0.01495225727558136,0.01978374645113945,0.792755126953125,-0.6090356707572937
7.92128324508667,-3.0544166274869204,0.011891107548467622,105.25614526105043,-0.025390625,0.232421875,0.9873046875,-0.79345703125,-2.197265625,-11.90185546875,0.0,0.0,0.0,-0.016259634867310524,0.021117428317666054,0.7944315075874329,-0.606768786907196
7.940831422805786,-3.18557333502409,0.011820107598643206,105.41972146148306,-0.00634765625,0.20849609375,1.0,-0.732421875,0.06103515625,-10.07080078125,0.0,0.0,0.0,-0.016922153532505035,0.022051244974136353,0.7952721118927002,-0.6056150794029236
7.961494207382202,-3.358186089172064,0.03270653759843126,105.59834456865724,-0.01025390625,0.19140625,1.0048828125,-0.30517578125,0.3662109375,-8.11767578125,0.0,0.0,0.0,-0.01794324442744255,0.023166775703430176,0.796184241771698,-0.604344367980957
7.980637788772583,-3.4572319429868883,0.02653209327948601,105.76478944854128,0.03369140625,0.09619140625,0.966796875,-4.5166015625,4.21142578125,-9.3994140625,0.0,0.0,0.0,-0.01838798262178898,0.023914240300655365,0.7970398664474487,-0.603172779083252
8.000009298324585,-3.245285196625869,0.07272021034011918,105.94092636685757,-0.04736328125,-0.0107421875,0.99609375,-7.62939453125,4.94384765625,-7.32421875,0.0,0.0,0.0,-0.017559465020895004,0.022223880514502525,0.7980157136917114,-0.6019707322120667
8.020706415176392,-2.8420071358096326,0.3415462508087057,106.0620939227336,-0.1044921875,-0.1669921875,1.0009765625,-9.33837890625,5.615234375,-8.60595703125,0.0,0.0,0.0,-0.017294010147452354,0.018021177500486374,0.7987567186355591,-0.6011356115341187
8.040180444717407,-2.520832004241769,0.554298025676861,106.20645680103098,-0.1064453125,-0.15576171875,1.02978515625,-8.4228515625,9.46044921875,-7.080078125,0.0,0.0,0.0,-0.0170734953135252,0.014687508344650269,0.7995795607566833,-0.6001378893852234
8.056917428970337,-2.4269578842891137,0.6335045811911784,106.46426912144229,-0.05615234375,0.03369140625,1.115234375,12.26806640625,-11.23046875,-15.68603515625,0.0,0.0,0.0,-0.0171037670224905,0.013656051829457283,0.8009454011917114,-0.5983373522758484
8.080411434173584,-2.2094829535686156,0.8318930285237522,106.69354491150128,-0.044921875,-0.1279296875,0.80810546875,-12.5732421875,11.5966796875,-11.71875,0.0,0.0,0.0,-0.017332401126623154,0.011134428903460503,0.8021765351295471,-0.5967314839363098
8.100905656814575,-1.768529462568883,0.8784364988491579,107.00207138649992,-0.05078125,-0.2783203125,1.01220703125,-14.404296875,6.2255859375,-13.61083984375,0.0,0.0,0.0,-0.015340736135840416,0.007846400141716003,0.8038186430931091,-0.594624936580658
8.120346546173096,-1.4460338633353857,1.0273890508253845,107.35183171351792,-0.05078125,-0.22802734375,1.12353515625,1.28173828125,6.103515625,-19.22607421875,0.0,0.0,0.0,-0.014697181060910225,0.00485587865114212,0.8056498765945435,-0.5921897888183594
8.140865325927734,-1.5071573329395356,1.039396843551384,107.7765123855418,-0.07421875,0.04052734375,0.94482421875,-4.21142578125,-9.765625,-20.20263671875,0.0,0.0,0.0,-0.015077999792993069,0.005279455799609423,0.8078362941741943,-0.5891903638839722
8.161478281021118,-1.0757855301282733,1.2022773251840302,108.21992143626987,-0.00927734375,-0.28466796875,0.99169921875,-13.3056640625,-4.5166015625,-26.91650390625,0.0,0.0,0.0,-0.014002530835568905,0.001454829005524516,0.8101210594177246,-0.5860936641693115
8.17627501487732,-0.6489053237482348,1.3749629702570527,108.72981554837884,-0.1201171875,-0.279296875,0.87255859375,-4.638671875,16.90673828125,-23.25439453125,0.0,0.0,0.0,-0.013050565496087074,-0.0023884563706815243,0.8127121329307556,-0.5825144648551941
8.20064926147461,-0.24791905820280227,1.3803908362130972,109.38748080318102,-0.0537109375,-0.32568359375,1.02587890625,-15.31982421875,8.4228515625,-31.92138671875,0.0,0.0,0.0,-0.01108061894774437,-0.005196418147534132,0.8160284161567688,-0.5778821706771851
8.220715999603271,-0.043064589510875016,1.3988113227960928,110.0854168533296,-0.07080078125,-0.35009765625,1.12939453125,7.50732421875,-12.63427734375,-42.236328125,0.0,0.0,0.0,-0.010219610296189785,-0.00668599596247077,0.819520890712738,-0.5729191899299622
8.240116596221924,0.1546909514156686,1.5001143406881947,110.83631419030246,-0.07861328125,-0.29248046875,1.09765625,-1.708984375,3.84521484375,-39.61181640625,0.0,0.0,0.0,-0.010011555626988411,-0.008541315793991089,0.8232349753379822,-0.5675482749938965
8.255966901779175,0.28163988889814034,1.6147606667324454,111.72410900880989,-0.1005859375,-0.27587890625,1.017578125,0.9765625,7.87353515625,-43.15185546875,0.0,0.0,0.0,-0.010283779352903366,-0.00994172040373087,0.8275847434997559,-0.5611585378646851
8.28011178970337,0.3896560222490128,1.6678823562805138,112.71110549482259,-0.11083984375,-0.2763671875,0.94873046875,3.173828125,1.52587890625,-49.9267578125,0.0,0.0,0.0,-0.010232693515717983,-0.010894186794757843,0.8323712944984436,-0.5540168881416321
8.300134420394897,0.5323435031677658,1.7173260956822363,113.77835670358293,-0.087890625,-0.2431640625,0.9345703125,1.8310546875,-1.52587890625,-55.908203125,0.0,0.0,0.0,-0.010014918632805347,-0.01207688543945551,0.8374744653701782,-0.5462513566017151
8.320066213607788,0.7869963274794073,1.8497277119173465,114.90852078478825,-0.12548828125,-0.2685546875,1.0078125,-1.15966796875,1.220703125,-58.7158203125,0.0,0.0,0.0,-0.009911916218698025,-0.014471858739852905,0.8427729606628418,-0.5379834771156311
8.340845346450806,0.9875482372315827,1.9722978044507526,116.1025471347332,-0.1748046875,-0.263671875,1.02880859375,-0.79345703125,3.60107421875,-60.36376953125,0.0,0.0,0.0,-0.010043548420071602,-0.016418250277638435,0.8482863306999207,-0.5291879773139954
8.355797529220581,1.1494004552290245,2.1155633701692973,117.34928888469231,-0.162109375,-0.23486328125,0.9267578125,2.74658203125,3.47900390625,-63.3544921875,0.0,0.0,0.0,-0.010555083863437176,-0.018163856118917465,0.8539441227912903,-0.5199406147003174
8.381661653518677,1.2620704020039086,2.247432551814264,118.6168080701066,-0.2041015625,-0.26171875,1.060546875,6.89697265625,-1.15966796875,-62.6220703125,0.0,0.0,0.0,-0.011242908425629139,-0.019478240981698036,0.8595994114875793,-0.5104733109474182
8.40016508102417,1.3340169466781784,2.2604254926063323,119.80797940097848,-0.22802734375,-0.20849609375,1.0224609375,1.89208984375,-5.06591796875,-58.65478515625,0.0,0.0,0.0,-0.011227979324758053,-0.01996014267206192,0.8648442625999451,-0.5015175938606262
8.41771388053894,1.5344033844255396,2.2043048164040995,120.93448250078869,-0.14794921875,-0.19287109375,0.890625,-3.11279296875,-5.126953125,-53.7109375,0.0,0.0,0.0,-0.010135482996702194,-0.021128444001078606,0.8697081804275513,-0.49300986528396606
8.441378593444824,1.8797434051117907,2.232901324355062,121.89895985310785,-0.09375,-0.244140625,0.888671875,-6.34765625,3.11279296875,-43.5791015625,0.0,0.0,0.0,-0.00906737893819809,-0.023796778172254562,0.8737531900405884,-0.4857025444507599
8.460823774337769,2.1896117988389325,2.1786813617327967,122.64110088756475,-0.12890625,-0.232421875,0.97314453125,-7.080078125,-3.41796875,-31.8603515625,0.0,0.0,0.0,-0.007508172187954187,-0.02588181011378765,0.8768253922462463,-0.4800531268119812
8.480270862579346,2.4596580552707845,2.104995573419407,123.13383073428948,-0.0908203125,-0.2353515625,1.1455078125,1.5869140625,-9.765625,-19.4091796875,0.0,0.0,0.0,-0.0059316158294677734,-0.027614569291472435,0.8788352012634277,-0.47628873586654663
8.50089716911316,2.5554226435196523,1.9112615264802262,123.3452387494797,-0.0224609375,-0.201171875,1.13916015625,6.2255859375,-6.4697265625,-7.38525390625,0.0,0.0,0.0,-0.004097954835742712,-0.027537424117326736,0.8797329664230347,-0.47465232014656067
8.515180826187134,2.586833829738895,1.7865547586753698,123.44624358692586,0.04150390625,-0.13525390625,0.9912109375,2.9296875,0.732421875,-2.685546875,0.0,0.0,0.0,-0.003034107619896531,-0.027260059490799904,0.8801705241203308,-0.47386443614959717
8.540467262268066,2.7960194721279366,1.6611600627550462,123.50271559098353,0.01123046875,-0.11962890625,0.91162109375,-3.662109375,-3.662109375,-2.74658203125,0.0,0.0,0.0,-0.0012195489834994078,-0.028348328545689583,0.880379855632782,-0.47341975569725037
8.56041955947876,2.9334415975681236,1.5649627179892345,123.58887159717406,0.05810546875,-0.16748046875,1.015625,5.79833984375,6.77490234375,-4.94384765625,0.0,0.0,0.0,6.570978439413011e-05,-0.029007259756326675,0.8807214498519897,-0.47274547815322876
8.580538988113403,2.962840012416328,1.5452221906274284,123.69381062358214,-0.03173828125,-0.09716796875,0.978515625,3.35693359375,-0.6103515625,-4.69970703125,0.0,0.0,0.0,0.00031207603751681745,-0.029152171686291695,0.8811507225036621,-0.4719359874725342
8.6000816822052,3.1266943296142298,1.6712788812887143,123.77851862966864,-0.07275390625,-0.0517578125,0.90771484375,-9.1552734375,-1.52587890625,-5.4931640625,0.0,0.0,0.0,-5.614074325421825e-06,-0.030930524691939354,0.8814290165901184,-0.4713028073310852
8.620194435119629,3.2746082659497913,1.7441101489039124,123.90418045001853,0.00244140625,-0.14697265625,1.23583984375,11.16943359375,7.568359375,-4.94384765625,0.0,0.0,0.0,6.808643775002565e-06,-0.03236733749508858,0.8818877935409546,-0.47034716606140137
8.640533208847046,3.1660202109776363,1.745768604211756,123.97700392694921,-0.15576171875,-0.0751953125,0.97216796875,6.7138671875,-11.65771484375,-3.5400390625,0.0,0.0,0.0,-0.0004717110132332891,-0.031538140028715134,0.8822163343429565,-0.4697866439819336
8.660185813903809,3.0797171422765284,1.6849829088064043,124.05773676293876,-0.0224609375,-0.01953125,0.77099609375,-6.2255859375,-3.2958984375,-5.31005859375,0.0,0.0,0.0,-0.00037890757084824145,-0.030624626204371452,0.8825843334197998,-0.46915552020072937
8.680301904678345,3.178659689480156,1.672950463366369,124.17906824335486,0.03955078125,-0.06591796875,0.939453125,-2.5634765625,8.056640625,-5.9814453125,0.0,0.0,0.0,8.570805221097544e-05,-0.031337589025497437,0.8830565214157104,-0.4682191014289856
8.7005615234375,3.2821184858290433,1.76110856875737,124.26428168343995,-0.13232421875,-0.0625,1.01171875,0.244140625,-5.7373046875,-2.9296875,0.0,0.0,0.0,-0.0001953623868757859,-0.03249434009194374,0.8833553194999695,-0.46757614612579346
8.72031545639038,3.1569215452295327,1.733730715964726,124.31945595155531,-0.0458984375,-0.03564453125,1.1826171875,3.90625,-3.2958984375,-3.173828125,0.0,0.0,0.0,-0.0005101826973259449,-0.03141743317246437,0.8836216330528259,-0.46714627742767334
8.74173092842102,2.9401176805949882,1.6287919030000615,124.42927173303077,0.00390625,-0.0224609375,1.18017578125,8.23974609375,-2.25830078125,-5.859375,0.0,0.0,0.0,-0.000612529693171382,-0.029317840933799744,0.8841496109962463,-0.4662829041481018
8.760024785995483,2.6953689507449825,1.5748810064377392,124.55138185501227,-0.037109375,0.00341796875,0.94580078125,2.25830078125,-1.15966796875,-6.77490234375,0.0,0.0,0.0,-0.0012212949804961681,-0.027209002524614334,0.8847175240516663,-0.46533119678497314
8.780091524124146,2.5746671283929867,1.5623151659122083,124.6851852608528,-0.02587890625,-0.01171875,0.90576171875,-0.18310546875,-0.3662109375,-6.77490234375,0.0,0.0,0.0,-0.0016450114781036973,-0.026224225759506226,0.8852909207344055,-0.4642946720123291
8.800177812576294,2.5129792076869584,1.6139326130172873,124.81767727037271,-0.04052734375,-0.05224609375,0.96630859375,7.4462890625,0.9765625,-5.4931640625,0.0,0.0,0.0,-0.0023238693829625845,-0.0259538721293211,0.8858309984207153,-0.46327582001686096
8.820549964904785,2.4662361677717417,1.7194074891100917,124.88621138850462,-0.078125,0.04541015625,0.89599609375,-6.4697265625,0.6103515625,-3.72314453125,0.0,0.0,0.0,-0.0033440254628658295,-0.026016445830464363,0.8860974311828613,-0.4627563953399658
8.840547323226929,2.30799349130724,1.7738156020996498,124.9732006777739,-0.02392578125,-0.03369140625,1.21875,5.7373046875,5.2490234375,-2.685546875,0.0,0.0,0.0,-0.0044229100458323956,-0.02500889264047146,0.8864727020263672,-0.462083637714386
8.862595319747925,2.1272587884624747,1.8557737099932772,125.00198309493634,-0.13427734375,-0.00390625,0.98193359375,4.2724609375,-11.16943359375,0.0,0.0,0.0,0.0,-0.005791959818452597,-0.023939374834299088,0.8866109251976013,-0.4618598222732544
8.875323295593262,2.0602238968533846,1.800914484353381,124.96288709212719,-0.0390625,0.037109375,0.78564453125,-6.40869140625,-5.2490234375,3.0517578125,0.0,0.0,0.0,-0.005629636347293854,-0.02320176735520363,0.8864779472351074,-0.4621548354625702
8.900428771972656,2.095617083358744,1.7066946927956999,124.80773251494118,0.01708984375,-0.01220703125,0.94091796875,-4.150390625,1.220703125,11.04736328125,0.0,0.0,0.0,-0.0047265226021409035,-0.023102406412363052,0.8858622312545776,-0.46334874629974365
8.920163869857788,1.9708732831219817,1.5630852697411273,124.45642856517074,-0.08056640625,-0.0234375,1.13720703125,3.2958984375,-21.66748046875,19.287109375,0.0,0.0,0.0,-0.0040542869828641415,-0.02157045528292656,0.884488046169281,-0.4660463333129883
8.940396785736084,1.7189635268140409,1.3216235684291902,123.9518141892902,0.0888671875,0.02880859375,1.20068359375,6.16455078125,-4.69970703125,26.67236328125,0.0,0.0,0.0,-0.0031324082519859076,-0.018658695742487907,0.882510781288147,-0.4699114263057709
8.960712432861328,1.4979027467792858,1.051232280722547,123.31627874739885,0.07177734375,0.033203125,1.04736328125,4.08935546875,-4.8828125,33.63037109375,0.0,0.0,0.0,-0.0018681869842112064,-0.015858590602874756,0.8799616098403931,-0.47477641701698303
8.98031759262085,1.3731189259028551,0.8494116633320415,122.57274435435127,0.064453125,0.03369140625,0.94921875,-0.1220703125,-7.26318359375,39.85595703125,0.0,0.0,0.0,-0.0007438975153490901,-0.014069612137973309,0.8769022226333618,-0.48046231269836426
9.001210927963257,1.185917954904792,0.42430562526934035,121.68274338474193,0.0908203125,-0.013671875,1.013671875,10.80322265625,-13.61083984375,47.30224609375,0.0,0.0,0.0,0.001808904460631311,-0.010841360315680504,0.8732026815414429,-0.48723331093788147
9.020380020141602,0.9570685180604007,0.13456238393164102,120.56809749333087,0.150390625,0.0439453125,0.91015625,7.8125,-5.31005859375,61.4013671875,0.0,0.0,0.0,0.0031202209647744894,-0.007835636846721172,0.8684577941894531,-0.49569135904312134
9.040177822113037,0.7732996103985632,-0.1480073711889731,119.18945113012047,0.1796875,0.08544921875,1.02783203125,3.84521484375,-6.28662109375,73.974609375,0.0,0.0,0.0,0.004529324360191822,-0.005166463553905487,0.8624511957168579,-0.5060936808586121
9.061280012130737,0.5979549940259958,-0.6114524083212931,117.61304346968153,0.10595703125,0.10400390625,1.03173828125,3.23486328125,-24.47509765625,80.2001953125,0.0,0.0,0.0,0.007266972679644823,-0.0017000508960336447,0.8554138541221619,-0.5178914666175842
9.080322265625,0.5806251499152338,-1.2972833355482036,115.88372153410434,0.1630859375,0.181640625,0.9423828125,-10.009765625,-14.95361328125,91.9189453125,0.0,0.0,0.0,0.012283502146601677,0.0017147517064586282,0.8474751710891724,-0.5306901931762695
9.100198745727539,0.5077314501021537,-1.6951247792285213,113.9944502285438,0.34716796875,0.0859375,1.0087890625,5.37109375,-6.89697265625,96.37451171875,0.0,0.0,0.0,0.014818374067544937,0.004341499879956245,0.8385798931121826,-0.5445597767829895
9.120913982391357,0.3698167773093587,-1.9168170315963853,112.04543525831315,0.3125,0.10791015625,0.9033203125,4.7607421875,-4.638671875,97.22900390625,0.0,0.0,0.0,0.015673961490392685,0.006671994458884001,0.8291690945625305,-0.5587383508682251
9.140099048614502,0.3591872687330999,-1.960917428633042,110.16287119851755,0.37451171875,0.14306640625,0.970703125,-1.5869140625,8.9111328125,92.34619140625,0.0,0.0,0.0,0.015824662521481514,0.007224909029901028,0.8198730945587158,-0.5722809433937073
9.160379886627197,0.24358191476027063,-2.2795487416218987,108.36782918274649,0.220703125,0.10009765625,1.140625,5.55419921875,-9.3994140625,87.82958984375,0.0,0.0,0.0,0.01737363077700138,0.009916841052472591,0.8107620477676392,-0.5850338935852051
9.180964946746826,0.17824967458543095,-2.4657572007561943,106.57565584642686,0.22705078125,0.1298828125,1.087890625,3.0517578125,-3.7841796875,90.2099609375,0.0,0.0,0.0,0.018178023397922516,0.01161553617566824,0.8014821410179138,-0.5976295471191406
9.200320482254028,0.024646409117240402,-2.763786955661,104.8130025877,0.22216796875,0.0947265625,0.98046875,7.50732421875,-6.89697265625,87.70751953125,0.0,0.0,0.0,0.01923990063369274,0.014541873708367348,0.7921316027641296,-0.6098736524581909
9.222861528396606,0.017818864644499048,-2.9897328150561955,103.0447349134754,0.20166015625,0.14599609375,0.8447265625,-4.21142578125,-2.62451171875,88.80615234375,0.0,0.0,0.0,0.020519254729151726,0.016110112890601158,0.7825872302055359,-0.621994137763977
9.23541808128357,0.03615703710933063,-3.125947064230348,101.28852935332505,0.2568359375,0.091796875,1.06494140625,0.6103515625,2.0751953125,87.82958984375,0.0,0.0,0.0,0.021290192380547523,0.017052514478564262,0.7729414701461792,-0.6338907480239868
9.260097980499268,-0.06420353140417524,-3.362014837088679,99.5578755308597,0.205078125,0.07666015625,1.04052734375,6.34765625,-3.5400390625,86.5478515625,0.0,0.0,0.0,0.02203727886080742,0.019370296970009804,0.7632193565368652,-0.6454730033874512
9.28046441078186,-0.1917547995239709,-3.683087302375581,97.83655857698977,0.12841796875,0.12060546875,0.822265625,-0.54931640625,-14.22119140625,85.44921875,0.0,0.0,0.0,0.02312374673783779,0.022377997636795044,0.7533473968505859,-0.65683513879776
9.300427675247192,-0.06509018867602075,-3.9208632628566495,96.1067790187382,0.1962890625,0.1162109375,0.912109375,-7.568359375,-10.3759765625,86.0595703125,0.0,0.0,0.0,0.025064319372177124,0.023289021104574203,0.743319571018219,-0.6680610775947571
9.321471691131592,-0.12760290141507405,-4.31412591847212,94.33189972139701,0.1005859375,0.080078125,1.29541015625,11.90185546875,-17.27294921875,92.83447265625,0.0,0.0,0.0,0.026845069602131844,0.02640586718916893,0.7327773571014404,-0.6794257760047913
9.340829849243164,-0.4594506571283319,-4.60343907133552,92.46796841765722,0.17236328125,0.03857421875,1.24853515625,19.1650390625,-11.8408203125,90.33203125,0.0,0.0,0.0,0.026232266798615456,0.030673451721668243,0.721470832824707,-0.6912675499916077
9.361564874649048,-0.502587890770311,-4.882281971088114,90.72754059448958,0.26220703125,0.05615234375,0.72216796875,-1.8310546875,-5.18798828125,86.669921875,0.0,0.0,0.0,0.027229413390159607,0.033043816685676575,0.7107980847358704,-0.7020916938781738
9.381594896316528,-0.13891685631114892,-5.084268594091962,88.96511956219452,0.26904296875,-0.1181640625,0.845703125,-6.53076171875,-1.03759765625,88.31787109375,0.0,0.0,0.0,0.030214449390769005,0.03249358758330345,0.6999636888504028,-0.7127988338470459
9.4010591506958,0.3275811286378213,-5.156764221942478,86.75353845989024,0.3525390625,-0.19482421875,0.994140625,0.48828125,6.34765625,86.60888671875,0.0,0.0,0.0,0.03297172114253044,0.030736802145838737,0.6861882209777832,-0.7260261178016663
9.420179843902588,0.5860147561397557,-5.226012948616298,85.44623342256062,0.2724609375,-0.2080078125,0.95458984375,-5.18798828125,-2.50244140625,85.9375,0.0,0.0,0.0,0.034683238714933395,0.030025700107216835,0.6779131293296814,-0.7337092757225037
9.439999341964722,0.993300430451497,-5.3837437877798715,83.6914553719468,0.2890625,-0.25146484375,1.107421875,-2.25830078125,-2.8076171875,85.693359375,0.0,0.0,0.0,0.037780385464429855,0.029208455234766006,0.6666693091392517,-0.7438222765922546
9.460110902786255,1.2677929265896157,-5.5017353056918425,81.88687158190524,0.220703125,-0.2861328125,1.09130859375,5.4931640625,-8.11767578125,89.41650390625,0.0,0.0,0.0,0.03979586064815521,0.029008202254772186,0.6549195051193237,-0.7540923357009888
9.480183124542236,1.4839805800949784,-5.841953431552525,80.0089862016911,0.072265625,-0.3232421875,0.98876953125,7.32421875,-25.87890625,94.3603515625,0.0,0.0,0.0,0.042662449181079865,0.030716754496097565,0.6424641013145447,-0.764510452747345
9.500179290771484,1.790144343249329,-6.197010143385059,77.95822873358395,0.1689453125,-0.2314453125,0.8544921875,0.67138671875,-15.0146484375,103.3935546875,0.0,0.0,0.0,0.04612291604280472,0.03220212832093239,0.6286972165107727,-0.775613009929657
9.520332098007202,2.2402879604990193,-6.324433725653994,75.73931883830025,0.2724609375,-0.279296875,0.9169921875,-1.03759765625,1.89208984375,111.4501953125,0.0,0.0,0.0,0.04926496744155884,0.03155573457479477,0.6136667132377625,-0.787394642829895
9.5365731716156,2.490356980825642,-6.400158325434632,73.43419146512348,0.28173828125,-0.3662109375,1.146484375,13.5498046875,-12.451171875,114.8681640625,0.0,0.0,0.0,0.05075877904891968,0.03176512196660042,0.5977635383605957,-0.799433171749115
9.560764789581299,2.8807964204363694,-6.43310929242489,71.04229336873085,0.41455078125,-0.16455078125,1.03759765625,-11.474609375,9.94873046875,123.291015625,0.0,0.0,0.0,0.053016625344753265,0.031071852892637253,0.5810527205467224,-0.8115426898002625
9.580222129821777,3.5968945839182513,-6.120933361975341,68.41363359494892,0.23193359375,-0.2294921875,0.8359375,-17.63916015625,9.6435546875,133.11767578125,0.0,0.0,0.0,0.055917706340551376,0.0265142023563385,0.5624891519546509,-0.8244854211807251
9.595242738723755,4.058258067540157,-6.198372766124477,65.64099343346311,0.18603515625,-0.38720703125,0.9990234375,4.2724609375,-9.70458984375,139.46533203125,0.0,0.0,0.0,0.058997172862291336,0.026242805644869804,0.5424854755401611,-0.8375800848007202
9.616441011428833,4.58436576807826,-6.329066728345378,62.636010726980984,0.22607421875,-0.2490234375,0.8330078125,-2.685546875,-21.484375,151.67236328125,0.0,0.0,0.0,0.06278695166110992,0.026364881545305252,0.5204659104347229,-0.8511627912521362
9.635634660720825,5.085979129592228,-6.76755846975785,59.50603555868762,0.35009765625,-0.36962890625,1.01806640625,3.47900390625,-18.73779296875,157.16552734375,0.0,0.0,0.0,0.06771519035100937,0.029212098568677902,0.4971827566623688,-0.8645060062408447
9.660667181015015,5.409514518405153,-6.814425520295185,56.27733342103631,0.4794921875,-0.37451171875,1.11376953125,10.25390625,-12.87841796875,160.58349609375,0.0,0.0,0.0,0.06953579932451248,0.0301338043063879,0.47272202372550964,-0.8779469132423401
9.675332307815552,5.65218473631336,-6.696831434015545,52.88197466763668,0.46484375,-0.3505859375,1.0224609375,11.77978515625,-11.1083984375,169.86083984375,0.0,0.0,0.0,0.0700475350022316,0.03031751699745655,0.4465535581111908,-0.891495406627655
9.700593948364258,5.916758944002973,-6.481434588350022,49.36865171708177,0.61962890625,-0.2958984375,1.07958984375,16.9677734375,-2.74658203125,170.0439453125,0.0,0.0,0.0,0.07039643079042435,0.029777871444821358,0.419046014547348,-0.9047420024871826
