time,orientation.x,orientation.y,orientation.z,orientation.w,orientation_covariance,angular_velocity.x,angular_velocity.y,angular_velocity.z,angular_velocity_covariance,linear_acceleration.x,linear_acceleration.y,linear_acceleration.z,linear_acceleration_covariance
0.1201484203338623,-0.019192030653357506,0.005857739131897688,0.9986367225646973,-0.04818865284323692,[0. 0. 0. 0. 0. 0. 0. 0. 0.],-0.1220703125,-1.03759765625,-0.06103515625,[0. 0. 0. 0. 0. 0. 0. 0. 0.],-0.0380859375,0.013671875,1.0048828125,[0. 0. 0. 0. 0. 0. 0. 0. 0.]
0.14010262489318848,-0.018319593742489815,0.006652223411947489,0.9986485838890076,-0.04817979410290718,[0. 0. 0. 0. 0. 0. 0. 0. 0.],0.42724609375,-0.91552734375,-0.244140625,[0. 0. 0. 0. 0. 0. 0. 0. 0.],-0.0361328125,0.01513671875,1.00634765625,[0. 0. 0. 0. 0. 0. 0. 0. 0.]
0.15524554252624512,-0.01884498819708824,0.007270707283169031,0.9986354112625122,-0.04816155135631561,[0. 0. 0. 0. 0. 0. 0. 0. 0.],0.18310546875,-0.732421875,-0.18310546875,[0. 0. 0. 0. 0. 0. 0. 0. 0.],-0.037109375,0.0166015625,1.00244140625,[0. 0. 0. 0. 0. 0. 0. 0. 0.]
0.18256163597106934,-0.01861685700714588,0.007622749079018831,0.9986375570297241,-0.048148516565561295,[0. 0. 0. 0. 0. 0. 0. 0. 0.],-0.48828125,-0.48828125,-0.06103515625,[0. 0. 0. 0. 0. 0. 0. 0. 0.],-0.03662109375,0.0166015625,1.0029296875,[0. 0. 0. 0. 0. 0. 0. 0. 0.]
0.19527268409729004,-0.019268931820988655,0.007735132239758968,0.9986261129379272,-0.04811287298798561,[0. 0. 0. 0. 0. 0. 0. 0. 0.],-0.48828125,-0.42724609375,-0.1220703125,[0. 0. 0. 0. 0. 0. 0. 0. 0.],-0.0380859375,0.017578125,1.00341796875,[0. 0. 0. 0. 0. 0. 0. 0. 0.]
0.22430157661437988,-0.019556205719709396,0.007345383521169424,0.9986255168914795,-0.048068538308143616,[0. 0. 0. 0. 0. 0. 0. 0. 0.],0.30517578125,-0.3662109375,-0.18310546875,[0. 0. 0. 0. 0. 0. 0. 0. 0.],-0.0380859375,0.01611328125,1.00439453125,[0. 0. 0. 0. 0. 0. 0. 0. 0.]
0.23985624313354492,-0.018817046657204628,0.006622742395848036,0.9986461997032166,-0.04804099723696709,[0. 0. 0. 0. 0. 0. 0. 0. 0.],0.06103515625,-0.8544921875,-0.06103515625,[0. 0. 0. 0. 0. 0. 0. 0. 0.],-0.03662109375,0.01416015625,1.00390625,[0. 0. 0. 0. 0. 0. 0. 0. 0.]
0.26041245460510254,-0.018918808549642563,0.006099730264395475,0.9986487627029419,-0.04801562801003456,[0. 0. 0. 0. 0. 0. 0. 0. 0.],-0.244140625,-0.91552734375,-0.1220703125,[0. 0. 0. 0. 0. 0. 0. 0. 0.],-0.037109375,0.01416015625,1.0048828125,[0. 0. 0. 0. 0. 0. 0. 0. 0.]
0.2807176113128662,-0.019095787778496742,0.0071705542504787445,0.9986381530761719,-0.04801762476563454,[0. 0. 0. 0. 0. 0. 0. 0. 0.],-0.42724609375,-0.244140625,0.0,[0. 0. 0. 0. 0. 0. 0. 0. 0.],-0.03759765625,0.01611328125,1.00341796875,[0. 0. 0. 0. 0. 0. 0. 0. 0.]
0.30222415924072266,-0.019350435584783554,0.007081552408635616,0.9986361265182495,-0.04797225445508957,[0. 0. 0. 0. 0. 0. 0. 0. 0.],-0.244140625,-0.30517578125,-0.18310546875,[0. 0. 0. 0. 0. 0. 0. 0. 0.],-0.0380859375,0.01611328125,1.00146484375,[0. 0. 0. 0. 0. 0. 0. 0. 0.]
0.323775053024292,-0.0182995293289423,0.006728452630341053,0.998659074306488,-0.04795663431286812,[0. 0. 0. 0. 0. 0. 0. 0. 0.],-0.42724609375,-0.48828125,-0.1220703125,[0. 0. 0. 0. 0. 0. 0. 0. 0.],-0.0361328125,0.015625,1.0029296875,[0. 0. 0. 0. 0. 0. 0. 0. 0.]
0.3403308391571045,-0.01974107325077057,0.00706956721842289,0.9986314177513123,-0.04791323095560074,[0. 0. 0. 0. 0. 0. 0. 0. 0.],-0.1220703125,-0.79345703125,-0.1220703125,[0. 0. 0. 0. 0. 0. 0. 0. 0.],-0.0390625,0.01611328125,1.0048828125,[0. 0. 0. 0. 0. 0. 0. 0. 0.]
0.3601348400115967,-0.019094351679086685,0.006639198400080204,0.9986478090286255,-0.0478961244225502,[0. 0. 0. 0. 0. 0. 0. 0. 0.],0.18310546875,-0.6103515625,-0.18310546875,[0. 0. 0. 0. 0. 0. 0. 0. 0.],-0.037109375,0.0146484375,1.001953125,[0. 0. 0. 0. 0. 0. 0. 0. 0.]
0.37999844551086426,-0.01879049465060234,0.006829618010669947,0.9986533522605896,-0.04787323623895645,[0. 0. 0. 0. 0. 0. 0. 0. 0.],-0.18310546875,-0.244140625,-0.06103515625,[0. 0. 0. 0. 0. 0. 0. 0. 0.],-0.03759765625,0.0166015625,1.0029296875,[0. 0. 0. 0. 0. 0. 0. 0. 0.]
0.4005446434020996,-0.019417187198996544,0.007948694750666618,0.9986335039138794,-0.04786401987075806,[0. 0. 0. 0. 0. 0. 0. 0. 0.],-0.42724609375,-0.732421875,-0.1220703125,[0. 0. 0. 0. 0. 0. 0. 0. 0.],-0.0380859375,0.01806640625,1.00341796875,[0. 0. 0. 0. 0. 0. 0. 0. 0.]
0.4201996326446533,-0.01872328110039234,0.006128385663032532,0.998663067817688,-0.04779250919818878,[0. 0. 0. 0. 0. 0. 0. 0. 0.],0.06103515625,-0.91552734375,-0.30517578125,[0. 0. 0. 0. 0. 0. 0. 0. 0.],-0.037109375,0.013671875,1.005859375,[0. 0. 0. 0. 0. 0. 0. 0. 0.]
0.44013142585754395,-0.018742986023426056,0.006830007769167423,0.9986591339111328,-0.04777246341109276,[0. 0. 0. 0. 0. 0. 0. 0. 0.],0.244140625,-0.732421875,-0.244140625,[0. 0. 0. 0. 0. 0. 0. 0. 0.],-0.037109375,0.015625,1.00439453125,[0. 0. 0. 0. 0. 0. 0. 0. 0.]
0.46337461471557617,-0.019581731408834457,0.006180575117468834,0.998648464679718,-0.047745347023010254,[0. 0. 0. 0. 0. 0. 0. 0. 0.],-0.18310546875,-0.48828125,-0.1220703125,[0. 0. 0. 0. 0. 0. 0. 0. 0.],-0.03857421875,0.01513671875,1.0029296875,[0. 0. 0. 0. 0. 0. 0. 0. 0.]
0.48082613945007324,-0.018855102360248566,0.007594426162540913,0.9986520409584045,-0.04776030778884888,[0. 0. 0. 0. 0. 0. 0. 0. 0.],-0.3662109375,-0.6103515625,-0.06103515625,[0. 0. 0. 0. 0. 0. 0. 0. 0.],-0.037109375,0.01708984375,1.0029296875,[0. 0. 0. 0. 0. 0. 0. 0. 0.]
0.49587106704711914,-0.01920502819120884,0.007152577396482229,0.9986511468887329,-0.0477072112262249,[0. 0. 0. 0. 0. 0. 0. 0. 0.],0.244140625,-0.54931640625,-0.18310546875,[0. 0. 0. 0. 0. 0. 0. 0. 0.],-0.03759765625,0.01611328125,1.00244140625,[0. 0. 0. 0. 0. 0. 0. 0. 0.]
0.5206084251403809,-0.01808316260576248,0.007140503730624914,0.9986733794212341,-0.04768256098031998,[0. 0. 0. 0. 0. 0. 0. 0. 0.],0.18310546875,-0.732421875,-0.244140625,[0. 0. 0. 0. 0. 0. 0. 0. 0.],-0.0361328125,0.01611328125,1.0048828125,[0. 0. 0. 0. 0. 0. 0. 0. 0.]
0.5401573181152344,-0.019301148131489754,0.007122129667550325,0.9986521601676941,-0.04765232279896736,[0. 0. 0. 0. 0. 0. 0. 0. 0.],-0.244140625,-0.9765625,-0.1220703125,[0. 0. 0. 0. 0. 0. 0. 0. 0.],-0.0380859375,0.01611328125,1.00244140625,[0. 0. 0. 0. 0. 0. 0. 0. 0.]
0.5555684566497803,-0.019457560032606125,0.0071760243736207485,0.9986493587493896,-0.047639209777116776,[0. 0. 0. 0. 0. 0. 0. 0. 0.],-0.3662109375,-0.6103515625,-0.18310546875,[0. 0. 0. 0. 0. 0. 0. 0. 0.],-0.03857421875,0.01611328125,1.00390625,[0. 0. 0. 0. 0. 0. 0. 0. 0.]
0.5801658630371094,-0.01832500286400318,0.006810793187469244,0.9986742734909058,-0.04761975631117821,[0. 0. 0. 0. 0. 0. 0. 0. 0.],-0.06103515625,-0.18310546875,-0.1220703125,[0. 0. 0. 0. 0. 0. 0. 0. 0.],-0.0361328125,0.015625,1.00390625,[0. 0. 0. 0. 0. 0. 0. 0. 0.]
0.6001396179199219,-0.018268849700689316,0.006723851431161165,0.9986771941184998,-0.04759093001484871,[0. 0. 0. 0. 0. 0. 0. 0. 0.],-0.3662109375,-0.3662109375,-0.18310546875,[0. 0. 0. 0. 0. 0. 0. 0. 0.],-0.03662109375,0.015625,1.0048828125,[0. 0. 0. 0. 0. 0. 0. 0. 0.]
0.6210360527038574,-0.01894289255142212,0.006376917008310556,0.998668909072876,-0.047549404203891754,[0. 0. 0. 0. 0. 0. 0. 0. 0.],-0.1220703125,-0.8544921875,-0.06103515625,[0. 0. 0. 0. 0. 0. 0. 0. 0.],-0.03759765625,0.0146484375,1.00341796875,[0. 0. 0. 0. 0. 0. 0. 0. 0.]
0.6400861740112305,-0.01872953586280346,0.006674326490610838,0.998672366142273,-0.04752246290445328,[0. 0. 0. 0. 0. 0. 0. 0. 0.],0.1220703125,-0.79345703125,-0.30517578125,[0. 0. 0. 0. 0. 0. 0. 0. 0.],-0.037109375,0.015625,1.0048828125,[0. 0. 0. 0. 0. 0. 0. 0. 0.]
0.660151481628418,-0.018912678584456444,0.0071074771694839,0.998665988445282,-0.04752030596137047,[0. 0. 0. 0. 0. 0. 0. 0. 0.],0.0,-0.6103515625,-0.18310546875,[0. 0. 0. 0. 0. 0. 0. 0. 0.],-0.037109375,0.015625,1.0029296875,[0. 0. 0. 0. 0. 0. 0. 0. 0.]
0.680783748626709,-0.01880495250225067,0.007077467627823353,0.9986689686775208,-0.04750403016805649,[0. 0. 0. 0. 0. 0. 0. 0. 0.],-0.48828125,-0.54931640625,-0.1220703125,[0. 0. 0. 0. 0. 0. 0. 0. 0.],-0.037109375,0.01611328125,1.00244140625,[0. 0. 0. 0. 0. 0. 0. 0. 0.]
0.7001333236694336,-0.019065769389271736,0.006943872664123774,0.9986667633056641,-0.04746688902378082,[0. 0. 0. 0. 0. 0. 0. 0. 0.],-0.244140625,-0.42724609375,-0.06103515625,[0. 0. 0. 0. 0. 0. 0. 0. 0.],-0.03759765625,0.015625,1.0048828125,[0. 0. 0. 0. 0. 0. 0. 0. 0.]
0.7202129364013672,-0.0182723980396986,0.0069018579088151455,0.9986831545829773,-0.04744011163711548,[0. 0. 0. 0. 0. 0. 0. 0. 0.],0.42724609375,-0.6103515625,-0.06103515625,[0. 0. 0. 0. 0. 0. 0. 0. 0.],-0.0361328125,0.01513671875,1.00537109375,[0. 0. 0. 0. 0. 0. 0. 0. 0.]
0.7400500774383545,-0.01831197924911976,0.006729842163622379,0.9986851215362549,-0.04740844666957855,[0. 0. 0. 0. 0. 0. 0. 0. 0.],0.1220703125,-1.03759765625,-0.1220703125,[0. 0. 0. 0. 0. 0. 0. 0. 0.],-0.0361328125,0.0146484375,1.00390625,[0. 0. 0. 0. 0. 0. 0. 0. 0.]
0.7601842880249023,-0.01922054961323738,0.007029172498732805,0.9986673593521118,-0.04737858474254608,[0. 0. 0. 0. 0. 0. 0. 0. 0.],-0.42724609375,-0.9765625,-0.18310546875,[0. 0. 0. 0. 0. 0. 0. 0. 0.],-0.03759765625,0.01513671875,1.0029296875,[0. 0. 0. 0. 0. 0. 0. 0. 0.]
0.7809665203094482,-0.0192671287804842,0.0068885162472724915,0.9986685514450073,-0.047356463968753815,[0. 0. 0. 0. 0. 0. 0. 0. 0.],-0.244140625,-0.3662109375,-0.1220703125,[0. 0. 0. 0. 0. 0. 0. 0. 0.],-0.03857421875,0.015625,1.00439453125,[0. 0. 0. 0. 0. 0. 0. 0. 0.]
0.8001103401184082,-0.018257267773151398,0.0064491769298911095,0.9986913204193115,-0.04733653366565704,[0. 0. 0. 0. 0. 0. 0. 0. 0.],0.18310546875,-0.244140625,-0.06103515625,[0. 0. 0. 0. 0. 0. 0. 0. 0.],-0.0361328125,0.0146484375,1.0029296875,[0. 0. 0. 0. 0. 0. 0. 0. 0.]
0.8205804824829102,-0.018281923606991768,0.006506920792162418,0.9986919164657593,-0.047307491302490234,[0. 0. 0. 0. 0. 0. 0. 0. 0.],-0.06103515625,-1.03759765625,-0.06103515625,[0. 0. 0. 0. 0. 0. 0. 0. 0.],-0.0361328125,0.0146484375,1.0029296875,[0. 0. 0. 0. 0. 0. 0. 0. 0.]
0.8401601314544678,-0.01838570646941662,0.007397384382784367,0.9986836314201355,-0.04731279984116554,[0. 0. 0. 0. 0. 0. 0. 0. 0.],-0.1220703125,-1.03759765625,-0.18310546875,[0. 0. 0. 0. 0. 0. 0. 0. 0.],-0.03564453125,0.01611328125,1.0029296875,[0. 0. 0. 0. 0. 0. 0. 0. 0.]
0.8600184917449951,-0.018568485975265503,0.007444285787642002,0.9986814260482788,-0.0472789891064167,[0. 0. 0. 0. 0. 0. 0. 0. 0.],0.0,-0.3662109375,-0.18310546875,[0. 0. 0. 0. 0. 0. 0. 0. 0.],-0.03662109375,0.0166015625,1.00341796875,[0. 0. 0. 0. 0. 0. 0. 0. 0.]
0.8800861835479736,-0.019519364461302757,0.006841958034783602,0.9986698627471924,-0.04722987115383148,[0. 0. 0. 0. 0. 0. 0. 0. 0.],-0.18310546875,-0.06103515625,-0.1220703125,[0. 0. 0. 0. 0. 0. 0. 0. 0.],-0.03857421875,0.015625,1.00439453125,[0. 0. 0. 0. 0. 0. 0. 0. 0.]
0.9002366065979004,-0.01856253668665886,0.006542792543768883,0.9986918568611145,-0.047193605452775955,[0. 0. 0. 0. 0. 0. 0. 0. 0.],-0.244140625,-0.732421875,-0.244140625,[0. 0. 0. 0. 0. 0. 0. 0. 0.],-0.03662109375,0.0146484375,1.00439453125,[0. 0. 0. 0. 0. 0. 0. 0. 0.]
0.9178133010864258,-0.018543437123298645,0.007070027757436037,0.9986900091171265,-0.047162964940071106,[0. 0. 0. 0. 0. 0. 0. 0. 0.],0.0,-0.6103515625,-0.1220703125,[0. 0. 0. 0. 0. 0. 0. 0. 0.],-0.03662109375,0.015625,1.00537109375,[0. 0. 0. 0. 0. 0. 0. 0. 0.]
0.9401440620422363,-0.018815523013472557,0.007186324801295996,0.9986845850944519,-0.04715419188141823,[0. 0. 0. 0. 0. 0. 0. 0. 0.],0.1220703125,-0.79345703125,-0.1220703125,[0. 0. 0. 0. 0. 0. 0. 0. 0.],-0.037109375,0.01611328125,1.00439453125,[0. 0. 0. 0. 0. 0. 0. 0. 0.]
0.9585416316986084,-0.019562872126698494,0.008040479384362698,0.9986644983291626,-0.0471358485519886,[0. 0. 0. 0. 0. 0. 0. 0. 0.],-0.18310546875,-0.48828125,-0.30517578125,[0. 0. 0. 0. 0. 0. 0. 0. 0.],-0.03857421875,0.01806640625,1.00341796875,[0. 0. 0. 0. 0. 0. 0. 0. 0.]
0.9870939254760742,-0.01803687959909439,0.007293843198567629,0.9987013936042786,-0.04708539694547653,[0. 0. 0. 0. 0. 0. 0. 0. 0.],-0.244140625,-0.9765625,-0.1220703125,[0. 0. 0. 0. 0. 0. 0. 0. 0.],-0.03564453125,0.0166015625,1.00341796875,[0. 0. 0. 0. 0. 0. 0. 0. 0.]
1.002342939376831,-0.018609989434480667,0.00701811071485281,0.9986945390701294,-0.04704996198415756,[0. 0. 0. 0. 0. 0. 0. 0. 0.],0.06103515625,-0.1220703125,0.0,[0. 0. 0. 0. 0. 0. 0. 0. 0.],-0.0361328125,0.01611328125,1.0029296875,[0. 0. 0. 0. 0. 0. 0. 0. 0.]
1.0203945636749268,-0.018709037452936172,0.006559376139193773,0.9986974000930786,-0.04701768234372139,[0. 0. 0. 0. 0. 0. 0. 0. 0.],0.3662109375,-0.91552734375,-0.18310546875,[0. 0. 0. 0. 0. 0. 0. 0. 0.],-0.037109375,0.0146484375,1.0048828125,[0. 0. 0. 0. 0. 0. 0. 0. 0.]
1.0417673587799072,-0.019421255216002464,0.006328813266009092,0.9986865520477295,-0.046989619731903076,[0. 0. 0. 0. 0. 0. 0. 0. 0.],-0.3662109375,-1.03759765625,-0.244140625,[0. 0. 0. 0. 0. 0. 0. 0. 0.],-0.03857421875,0.0146484375,1.0048828125,[0. 0. 0. 0. 0. 0. 0. 0. 0.]
1.0679948329925537,-0.018916381523013115,0.007124134339392185,0.998691201210022,-0.04698420315980911,[0. 0. 0. 0. 0. 0. 0. 0. 0.],0.06103515625,-0.732421875,-0.30517578125,[0. 0. 0. 0. 0. 0. 0. 0. 0.],-0.037109375,0.0166015625,1.0048828125,[0. 0. 0. 0. 0. 0. 0. 0. 0.]
1.0798354148864746,-0.01943567395210266,0.00694851391017437,0.9986829161643982,-0.04697259142994881,[0. 0. 0. 0. 0. 0. 0. 0. 0.],-0.18310546875,-0.1220703125,0.06103515625,[0. 0. 0. 0. 0. 0. 0. 0. 0.],-0.0380859375,0.01611328125,1.0048828125,[0. 0. 0. 0. 0. 0. 0. 0. 0.]
1.0963466167449951,-0.01931828074157238,0.006870239973068237,0.9986864924430847,-0.04695694521069527,[0. 0. 0. 0. 0. 0. 0. 0. 0.],-0.1220703125,-0.30517578125,0.06103515625,[0. 0. 0. 0. 0. 0. 0. 0. 0.],-0.03759765625,0.01611328125,1.0029296875,[0. 0. 0. 0. 0. 0. 0. 0. 0.]
1.120624303817749,-0.01784704253077507,0.006682056002318859,0.9987168908119202,-0.04691968485713005,[0. 0. 0. 0. 0. 0. 0. 0. 0.],-0.06103515625,-0.8544921875,-0.3662109375,[0. 0. 0. 0. 0. 0. 0. 0. 0.],-0.03564453125,0.015625,1.005859375,[0. 0. 0. 0. 0. 0. 0. 0. 0.]
1.1357204914093018,-0.018785063177347183,0.006725608836859465,0.9987012147903442,-0.046882398426532745,[0. 0. 0. 0. 0. 0. 0. 0. 0.],0.30517578125,-0.79345703125,-0.30517578125,[0. 0. 0. 0. 0. 0. 0. 0. 0.],-0.037109375,0.01513671875,1.00439453125,[0. 0. 0. 0. 0. 0. 0. 0. 0.]
1.1599938869476318,-0.018979554995894432,0.006525419186800718,0.9987003803253174,-0.04684954136610031,[0. 0. 0. 0. 0. 0. 0. 0. 0.],-0.06103515625,-0.3662109375,-0.1220703125,[0. 0. 0. 0. 0. 0. 0. 0. 0.],-0.03759765625,0.01513671875,1.00390625,[0. 0. 0. 0. 0. 0. 0. 0. 0.]
1.1799845695495605,-0.018807893618941307,0.007193351164460182,0.9986989498138428,-0.04685181379318237,[0. 0. 0. 0. 0. 0. 0. 0. 0.],-0.54931640625,-0.48828125,-0.06103515625,[0. 0. 0. 0. 0. 0. 0. 0. 0.],-0.037109375,0.01611328125,1.00341796875,[0. 0. 0. 0. 0. 0. 0. 0. 0.]
1.200232744216919,-0.018538430333137512,0.006916464306414127,0.9987072348594666,-0.04682186618447304,[0. 0. 0. 0. 0. 0. 0. 0. 0.],-0.1220703125,-0.6103515625,-0.06103515625,[0. 0. 0. 0. 0. 0. 0. 0. 0.],-0.03662109375,0.015625,1.0048828125,[0. 0. 0. 0. 0. 0. 0. 0. 0.]
1.2217025756835938,-0.019426094368100166,0.00643733749166131,0.9986957907676697,-0.046774666756391525,[0. 0. 0. 0. 0. 0. 0. 0. 0.],0.3662109375,-0.732421875,-0.30517578125,[0. 0. 0. 0. 0. 0. 0. 0. 0.],-0.03857421875,0.0146484375,1.005859375,[0. 0. 0. 0. 0. 0. 0. 0. 0.]
1.239961862564087,-0.01929013803601265,0.006544474977999926,0.998698890209198,-0.04675024747848511,[0. 0. 0. 0. 0. 0. 0. 0. 0.],0.0,-0.732421875,-0.244140625,[0. 0. 0. 0. 0. 0. 0. 0. 0.],-0.0380859375,0.01416015625,1.0048828125,[0. 0. 0. 0. 0. 0. 0. 0. 0.]
1.2554073333740234,-0.019063351675868034,0.007307357154786587,0.9986984729766846,-0.04674024134874344,[0. 0. 0. 0. 0. 0. 0. 0. 0.],-0.48828125,-0.79345703125,-0.1220703125,[0. 0. 0. 0. 0. 0. 0. 0. 0.],-0.03759765625,0.0166015625,1.00439453125,[0. 0. 0. 0. 0. 0. 0. 0. 0.]
1.2757244110107422,-0.01945265382528305,0.008030939847230911,0.9986862540245056,-0.0467221699655056,[0. 0. 0. 0. 0. 0. 0. 0. 0.],-0.244140625,-0.3662109375,-0.1220703125,[0. 0. 0. 0. 0. 0. 0. 0. 0.],-0.0380859375,0.017578125,1.00390625,[0. 0. 0. 0. 0. 0. 0. 0. 0.]
1.2955684661865234,-0.018473489210009575,0.006602330133318901,0.9987178444862366,-0.04666918143630028,[0. 0. 0. 0. 0. 0. 0. 0. 0.],0.1220703125,-0.42724609375,-0.244140625,[0. 0. 0. 0. 0. 0. 0. 0. 0.],-0.03662109375,0.01513671875,1.00390625,[0. 0. 0. 0. 0. 0. 0. 0. 0.]
1.3159923553466797,-0.01869700290262699,0.005695641506463289,0.9987210035324097,-0.04663110896945,[0. 0. 0. 0. 0. 0. 0. 0. 0.],-0.06103515625,-0.9765625,-0.30517578125,[0. 0. 0. 0. 0. 0. 0. 0. 0.],-0.037109375,0.01318359375,1.0048828125,[0. 0. 0. 0. 0. 0. 0. 0. 0.]
1.3401484489440918,-0.018722711130976677,0.007198357954621315,0.9987107515335083,-0.04663286730647087,[0. 0. 0. 0. 0. 0. 0. 0. 0.],-0.06103515625,-0.9765625,-0.18310546875,[0. 0. 0. 0. 0. 0. 0. 0. 0.],-0.03662109375,0.0166015625,1.00439453125,[0. 0. 0. 0. 0. 0. 0. 0. 0.]
1.3603675365447998,-0.019592905417084694,0.007139874156564474,0.9986963868141174,-0.04658930376172066,[0. 0. 0. 0. 0. 0. 0. 0. 0.],0.0,-0.30517578125,-0.1220703125,[0. 0. 0. 0. 0. 0. 0. 0. 0.],-0.03857421875,0.01611328125,1.00244140625,[0. 0. 0. 0. 0. 0. 0. 0. 0.]
1.3799724578857422,-0.018802279606461525,0.00637054955586791,0.9987189173698425,-0.04654546082019806,[0. 0. 0. 0. 0. 0. 0. 0. 0.],-0.06103515625,-0.18310546875,0.0,[0. 0. 0. 0. 0. 0. 0. 0. 0.],-0.037109375,0.0146484375,1.00390625,[0. 0. 0. 0. 0. 0. 0. 0. 0.]
1.400160312652588,-0.019298236817121506,0.0065767415799200535,0.9987092018127441,-0.04652145877480507,[0. 0. 0. 0. 0. 0. 0. 0. 0.],-0.30517578125,-0.91552734375,-0.1220703125,[0. 0. 0. 0. 0. 0. 0. 0. 0.],-0.0380859375,0.0146484375,1.00537109375,[0. 0. 0. 0. 0. 0. 0. 0. 0.]
1.4202771186828613,-0.018901359289884567,0.006583674345165491,0.9987180233001709,-0.04649535194039345,[0. 0. 0. 0. 0. 0. 0. 0. 0.],0.06103515625,-1.0986328125,-0.244140625,[0. 0. 0. 0. 0. 0. 0. 0. 0.],-0.03759765625,0.01513671875,1.0048828125,[0. 0. 0. 0. 0. 0. 0. 0. 0.]
1.4412062168121338,-0.0192312840372324,0.006435457617044449,0.998714804649353,-0.04644901305437088,[0. 0. 0. 0. 0. 0. 0. 0. 0.],0.54931640625,-0.91552734375,-0.30517578125,[0. 0. 0. 0. 0. 0. 0. 0. 0.],-0.0380859375,0.01416015625,1.00390625,[0. 0. 0. 0. 0. 0. 0. 0. 0.]
1.4605066776275635,-0.018438884988427162,0.006472371984273195,0.9987295269966125,-0.046449583023786545,[0. 0. 0. 0. 0. 0. 0. 0. 0.],-0.30517578125,-0.3662109375,-0.06103515625,[0. 0. 0. 0. 0. 0. 0. 0. 0.],-0.03662109375,0.0146484375,1.00341796875,[0. 0. 0. 0. 0. 0. 0. 0. 0.]
1.4802885055541992,-0.018277322873473167,0.006810348015278578,0.9987305402755737,-0.0464426651597023,[0. 0. 0. 0. 0. 0. 0. 0. 0.],-0.3662109375,-0.6103515625,-0.06103515625,[0. 0. 0. 0. 0. 0. 0. 0. 0.],-0.0361328125,0.015625,1.00390625,[0. 0. 0. 0. 0. 0. 0. 0. 0.]
1.4999666213989258,-0.019014855846762657,0.0061288392171263695,0.9987232685089111,-0.046398699283599854,[0. 0. 0. 0. 0. 0. 0. 0. 0.],0.244140625,-0.732421875,-0.18310546875,[0. 0. 0. 0. 0. 0. 0. 0. 0.],-0.03759765625,0.01416015625,1.00439453125,[0. 0. 0. 0. 0. 0. 0. 0. 0.]
1.5217905044555664,-0.01877564564347267,0.007111190818250179,0.9987221360206604,-0.04637905955314636,[0. 0. 0. 0. 0. 0. 0. 0. 0.],-0.244140625,-0.30517578125,0.0,[0. 0. 0. 0. 0. 0. 0. 0. 0.],-0.037109375,0.01708984375,1.00439453125,[0. 0. 0. 0. 0. 0. 0. 0. 0.]
1.540013313293457,-0.01851317286491394,0.007469965610653162,0.9987253546714783,-0.04635864868760109,[0. 0. 0. 0. 0. 0. 0. 0. 0.],-0.244140625,-1.28173828125,-0.30517578125,[0. 0. 0. 0. 0. 0. 0. 0. 0.],-0.03662109375,0.01611328125,1.00439453125,[0. 0. 0. 0. 0. 0. 0. 0. 0.]
1.5601599216461182,-0.01914638839662075,0.006798001937568188,0.9987195134162903,-0.04633070528507233,[0. 0. 0. 0. 0. 0. 0. 0. 0.],-0.1220703125,-0.732421875,-0.1220703125,[0. 0. 0. 0. 0. 0. 0. 0. 0.],-0.03759765625,0.015625,1.00341796875,[0. 0. 0. 0. 0. 0. 0. 0. 0.]
1.5802955627441406,-0.018538711592555046,0.006448738742619753,0.9987344741821289,-0.046305540949106216,[0. 0. 0. 0. 0. 0. 0. 0. 0.],-0.18310546875,-0.06103515625,0.0,[0. 0. 0. 0. 0. 0. 0. 0. 0.],-0.037109375,0.0146484375,1.00537109375,[0. 0. 0. 0. 0. 0. 0. 0. 0.]
1.6001307964324951,-0.018249405547976494,0.0061054471880197525,0.9987432956695557,-0.04627785459160805,[0. 0. 0. 0. 0. 0. 0. 0. 0.],-0.06103515625,-0.48828125,-0.06103515625,[0. 0. 0. 0. 0. 0. 0. 0. 0.],-0.0361328125,0.013671875,1.00341796875,[0. 0. 0. 0. 0. 0. 0. 0. 0.]
1.622178077697754,-0.01898050308227539,0.005908461753278971,0.9987320303916931,-0.0462505966424942,[0. 0. 0. 0. 0. 0. 0. 0. 0.],-0.244140625,-1.0986328125,-0.18310546875,[0. 0. 0. 0. 0. 0. 0. 0. 0.],-0.03759765625,0.013671875,1.00537109375,[0. 0. 0. 0. 0. 0. 0. 0. 0.]
1.6400668621063232,-0.018807630985975266,0.006788026075810194,0.9987301826477051,-0.046241242438554764,[0. 0. 0. 0. 0. 0. 0. 0. 0.],0.18310546875,-0.79345703125,-0.30517578125,[0. 0. 0. 0. 0. 0. 0. 0. 0.],-0.037109375,0.01513671875,1.00439453125,[0. 0. 0. 0. 0. 0. 0. 0. 0.]
1.6679351329803467,-0.01878216676414013,0.007126491982489824,0.998729407787323,-0.046218231320381165,[0. 0. 0. 0. 0. 0. 0. 0. 0.],0.18310546875,-0.79345703125,-0.30517578125,[0. 0. 0. 0. 0. 0. 0. 0. 0.],-0.037109375,0.01611328125,1.00537109375,[0. 0. 0. 0. 0. 0. 0. 0. 0.]
1.6804287433624268,-0.01913824863731861,0.007945367135107517,0.9987163543701172,-0.04622002691030502,[0. 0. 0. 0. 0. 0. 0. 0. 0.],-0.54931640625,-0.54931640625,-0.1220703125,[0. 0. 0. 0. 0. 0. 0. 0. 0.],-0.0380859375,0.01708984375,1.00341796875,[0. 0. 0. 0. 0. 0. 0. 0. 0.]
1.700573205947876,-0.018270613625645638,0.006352666765451431,0.9987463355064392,-0.0461694709956646,[0. 0. 0. 0. 0. 0. 0. 0. 0.],-0.06103515625,-0.79345703125,0.0,[0. 0. 0. 0. 0. 0. 0. 0. 0.],-0.0361328125,0.01513671875,1.00390625,[0. 0. 0. 0. 0. 0. 0. 0. 0.]
1.7203309535980225,-0.018191508948802948,0.006388552486896515,0.9987484812736511,-0.046148210763931274,[0. 0. 0. 0. 0. 0. 0. 0. 0.],0.3662109375,-0.6103515625,-0.244140625,[0. 0. 0. 0. 0. 0. 0. 0. 0.],-0.03564453125,0.0146484375,1.00341796875,[0. 0. 0. 0. 0. 0. 0. 0. 0.]
1.7449414730072021,-0.017910173162817955,0.007476198021322489,0.9987466931343079,-0.0461367703974247,[0. 0. 0. 0. 0. 0. 0. 0. 0.],-0.06103515625,-0.8544921875,-0.30517578125,[0. 0. 0. 0. 0. 0. 0. 0. 0.],-0.03515625,0.0166015625,1.00537109375,[0. 0. 0. 0. 0. 0. 0. 0. 0.]
1.761791467666626,-0.01935490034520626,0.00654951948672533,0.9987294673919678,-0.046063389629125595,[0. 0. 0. 0. 0. 0. 0. 0. 0.],-0.30517578125,-1.15966796875,-0.30517578125,[0. 0. 0. 0. 0. 0. 0. 0. 0.],-0.03759765625,0.0146484375,1.00341796875,[0. 0. 0. 0. 0. 0. 0. 0. 0.]
1.7856261730194092,-0.01960156112909317,0.007590143475681543,0.998717725276947,-0.0460568405687809,[0. 0. 0. 0. 0. 0. 0. 0. 0.],-0.1220703125,-0.244140625,-0.06103515625,[0. 0. 0. 0. 0. 0. 0. 0. 0.],-0.03857421875,0.01708984375,1.00244140625,[0. 0. 0. 0. 0. 0. 0. 0. 0.]
1.7954766750335693,-0.01858149655163288,0.006597683299332857,0.9987459778785706,-0.046019647270441055,[0. 0. 0. 0. 0. 0. 0. 0. 0.],0.244140625,-0.6103515625,-0.18310546875,[0. 0. 0. 0. 0. 0. 0. 0. 0.],-0.03564453125,0.013671875,1.0048828125,[0. 0. 0. 0. 0. 0. 0. 0. 0.]
1.8203015327453613,-0.018111953511834145,0.006577387917786837,0.9987555146217346,-0.046000268310308456,[0. 0. 0. 0. 0. 0. 0. 0. 0.],-0.06103515625,-1.28173828125,-0.18310546875,[0. 0. 0. 0. 0. 0. 0. 0. 0.],-0.03564453125,0.0146484375,1.00439453125,[0. 0. 0. 0. 0. 0. 0. 0. 0.]
1.8399126529693604,-0.01938525401055813,0.00736178969964385,0.9987273812294006,-0.04597567021846771,[0. 0. 0. 0. 0. 0. 0. 0. 0.],-0.30517578125,-0.8544921875,-0.18310546875,[0. 0. 0. 0. 0. 0. 0. 0. 0.],-0.0380859375,0.0166015625,1.00341796875,[0. 0. 0. 0. 0. 0. 0. 0. 0.]
1.8602237701416016,-0.019534161314368248,0.008437915705144405,0.9987168312072754,-0.04595617204904556,[0. 0. 0. 0. 0. 0. 0. 0. 0.],-0.18310546875,-0.244140625,0.0,[0. 0. 0. 0. 0. 0. 0. 0. 0.],-0.03857421875,0.0185546875,1.00439453125,[0. 0. 0. 0. 0. 0. 0. 0. 0.]
1.8802237510681152,-0.018343470990657806,0.00699535571038723,0.9987523555755615,-0.045917410403490067,[0. 0. 0. 0. 0. 0. 0. 0. 0.],0.0,-0.3662109375,0.0,[0. 0. 0. 0. 0. 0. 0. 0. 0.],-0.03564453125,0.01513671875,1.0048828125,[0. 0. 0. 0. 0. 0. 0. 0. 0.]
1.9001638889312744,-0.018076788634061813,0.007066661491990089,0.9987573027610779,-0.04590391740202904,[0. 0. 0. 0. 0. 0. 0. 0. 0.],-0.1220703125,-1.0986328125,-0.1220703125,[0. 0. 0. 0. 0. 0. 0. 0. 0.],-0.03564453125,0.015625,1.00390625,[0. 0. 0. 0. 0. 0. 0. 0. 0.]
1.9200150966644287,-0.01844419352710247,0.007196400314569473,0.9987518787384033,-0.045857448130846024,[0. 0. 0. 0. 0. 0. 0. 0. 0.],0.1220703125,-0.9765625,-0.3662109375,[0. 0. 0. 0. 0. 0. 0. 0. 0.],-0.037109375,0.01611328125,1.00341796875,[0. 0. 0. 0. 0. 0. 0. 0. 0.]
1.9400007724761963,-0.01849064975976944,0.0072830235585570335,0.9987512826919556,-0.04583612084388733,[0. 0. 0. 0. 0. 0. 0. 0. 0.],0.06103515625,-0.54931640625,-0.18310546875,[0. 0. 0. 0. 0. 0. 0. 0. 0.],-0.0361328125,0.015625,1.00244140625,[0. 0. 0. 0. 0. 0. 0. 0. 0.]
1.9600086212158203,-0.018287744373083115,0.0073173088021576405,0.9987559914588928,-0.04581017419695854,[0. 0. 0. 0. 0. 0. 0. 0. 0.],-0.3662109375,-0.30517578125,-0.1220703125,[0. 0. 0. 0. 0. 0. 0. 0. 0.],-0.0361328125,0.0166015625,1.00390625,[0. 0. 0. 0. 0. 0. 0. 0. 0.]
1.9807562828063965,-0.019122518599033356,0.007417153101414442,0.9987407326698303,-0.045786406844854355,[0. 0. 0. 0. 0. 0. 0. 0. 0.],-0.48828125,-0.42724609375,-0.06103515625,[0. 0. 0. 0. 0. 0. 0. 0. 0.],-0.03955078125,0.01708984375,1.00390625,[0. 0. 0. 0. 0. 0. 0. 0. 0.]
1.9998998641967773,-0.01930186152458191,0.006714505143463612,0.9987446069717407,-0.04573395475745201,[0. 0. 0. 0. 0. 0. 0. 0. 0.],0.18310546875,-0.30517578125,-0.1220703125,[0. 0. 0. 0. 0. 0. 0. 0. 0.],-0.03857421875,0.01513671875,1.0029296875,[0. 0. 0. 0. 0. 0. 0. 0. 0.]
2.016248941421509,-0.01919953152537346,0.007226001005619764,0.9987444877624512,-0.04570253938436508,[0. 0. 0. 0. 0. 0. 0. 0. 0.],0.3662109375,-0.732421875,-0.30517578125,[0. 0. 0. 0. 0. 0. 0. 0. 0.],-0.0380859375,0.01611328125,1.0048828125,[0. 0. 0. 0. 0. 0. 0. 0. 0.]
2.041311025619507,-0.018890870735049248,0.007232975214719772,0.998751163482666,-0.045684508979320526,[0. 0. 0. 0. 0. 0. 0. 0. 0.],-0.244140625,-1.15966796875,-0.1220703125,[0. 0. 0. 0. 0. 0. 0. 0. 0.],-0.03759765625,0.015625,1.005859375,[0. 0. 0. 0. 0. 0. 0. 0. 0.]
2.062345504760742,-0.01894235797226429,0.006136024836450815,0.998759388923645,-0.04564467817544937,[0. 0. 0. 0. 0. 0. 0. 0. 0.],-0.244140625,-0.6103515625,-0.18310546875,[0. 0. 0. 0. 0. 0. 0. 0. 0.],-0.03759765625,0.01416015625,1.00341796875,[0. 0. 0. 0. 0. 0. 0. 0. 0.]
2.0802061557769775,-0.018552158027887344,0.007067605387419462,0.9987606406211853,-0.04564119875431061,[0. 0. 0. 0. 0. 0. 0. 0. 0.],-0.06103515625,-0.1220703125,-0.06103515625,[0. 0. 0. 0. 0. 0. 0. 0. 0.],-0.0361328125,0.0166015625,1.00244140625,[0. 0. 0. 0. 0. 0. 0. 0. 0.]
2.100477933883667,-0.01832869090139866,0.006969735957682133,0.9987666010856628,-0.045615293085575104,[0. 0. 0. 0. 0. 0. 0. 0. 0.],-0.1220703125,-0.54931640625,-0.06103515625,[0. 0. 0. 0. 0. 0. 0. 0. 0.],-0.0361328125,0.015625,1.00390625,[0. 0. 0. 0. 0. 0. 0. 0. 0.]
2.1204802989959717,-0.018780222162604332,0.006284747738391161,0.9987642168998718,-0.04558318853378296,[0. 0. 0. 0. 0. 0. 0. 0. 0.],0.0,-1.15966796875,-0.1220703125,[0. 0. 0. 0. 0. 0. 0. 0. 0.],-0.03857421875,0.01318359375,1.00341796875,[0. 0. 0. 0. 0. 0. 0. 0. 0.]
2.1402478218078613,-0.019487256184220314,0.006428982131183147,0.9987517595291138,-0.04554072767496109,[0. 0. 0. 0. 0. 0. 0. 0. 0.],0.18310546875,-0.8544921875,-0.3662109375,[0. 0. 0. 0. 0. 0. 0. 0. 0.],-0.03857421875,0.0146484375,1.00244140625,[0. 0. 0. 0. 0. 0. 0. 0. 0.]
2.1601760387420654,-0.019123947247862816,0.007767564617097378,0.9987491369247437,-0.0455428808927536,[0. 0. 0. 0. 0. 0. 0. 0. 0.],-0.18310546875,-0.30517578125,-0.244140625,[0. 0. 0. 0. 0. 0. 0. 0. 0.],-0.03759765625,0.017578125,1.001953125,[0. 0. 0. 0. 0. 0. 0. 0. 0.]
2.1849308013916016,-0.018836993724107742,0.007386340294033289,0.9987591505050659,-0.045507363975048065,[0. 0. 0. 0. 0. 0. 0. 0. 0.],-0.54931640625,-0.8544921875,-0.244140625,[0. 0. 0. 0. 0. 0. 0. 0. 0.],-0.03662109375,0.0166015625,1.00244140625,[0. 0. 0. 0. 0. 0. 0. 0. 0.]
2.2012856006622314,-0.018441537395119667,0.00722308736294508,0.9987688064575195,-0.045482560992240906,[0. 0. 0. 0. 0. 0. 0. 0. 0.],-0.1220703125,-0.79345703125,-0.18310546875,[0. 0. 0. 0. 0. 0. 0. 0. 0.],-0.03662109375,0.0166015625,1.00390625,[0. 0. 0. 0. 0. 0. 0. 0. 0.]
2.2209229469299316,-0.018998153507709503,0.006871366873383522,0.9987630248069763,-0.04543476179242134,[0. 0. 0. 0. 0. 0. 0. 0. 0.],0.30517578125,-0.732421875,-0.18310546875,[0. 0. 0. 0. 0. 0. 0. 0. 0.],-0.03759765625,0.0146484375,1.0048828125,[0. 0. 0. 0. 0. 0. 0. 0. 0.]
2.2402596473693848,-0.018688861280679703,0.00772178266197443,0.9987629652023315,-0.045428261160850525,[0. 0. 0. 0. 0. 0. 0. 0. 0.],-0.06103515625,-0.67138671875,-0.244140625,[0. 0. 0. 0. 0. 0. 0. 0. 0.],-0.037109375,0.0166015625,1.0029296875,[0. 0. 0. 0. 0. 0. 0. 0. 0.]
2.261349678039551,-0.01847517490386963,0.006858490873128176,0.9987751841545105,-0.04538687691092491,[0. 0. 0. 0. 0. 0. 0. 0. 0.],-0.54931640625,-0.6103515625,-0.18310546875,[0. 0. 0. 0. 0. 0. 0. 0. 0.],-0.03662109375,0.015625,1.0048828125,[0. 0. 0. 0. 0. 0. 0. 0. 0.]
2.2800610065460205,-0.017831727862358093,0.006519962102174759,0.998790442943573,-0.04535571113228798,[0. 0. 0. 0. 0. 0. 0. 0. 0.],-0.244140625,-0.48828125,-0.06103515625,[0. 0. 0. 0. 0. 0. 0. 0. 0.],-0.03515625,0.01513671875,1.00537109375,[0. 0. 0. 0. 0. 0. 0. 0. 0.]
2.3000664710998535,-0.017762426286935806,0.005628108978271484,0.9987990856170654,-0.04531439393758774,[0. 0. 0. 0. 0. 0. 0. 0. 0.],0.3662109375,-0.67138671875,-0.18310546875,[0. 0. 0. 0. 0. 0. 0. 0. 0.],-0.03515625,0.01318359375,1.00439453125,[0. 0. 0. 0. 0. 0. 0. 0. 0.]
2.3199288845062256,-0.0189210157841444,0.006936406716704369,0.9987698197364807,-0.04530817270278931,[0. 0. 0. 0. 0. 0. 0. 0. 0.],-0.1220703125,-1.03759765625,-0.18310546875,[0. 0. 0. 0. 0. 0. 0. 0. 0.],-0.03857421875,0.0166015625,1.00390625,[0. 0. 0. 0. 0. 0. 0. 0. 0.]
2.340010166168213,-0.01973150111734867,0.007141027133911848,0.9987537860870361,-0.04528406634926796,[0. 0. 0. 0. 0. 0. 0. 0. 0.],-0.18310546875,-0.79345703125,-0.1220703125,[0. 0. 0. 0. 0. 0. 0. 0. 0.],-0.03857421875,0.015625,1.0009765625,[0. 0. 0. 0. 0. 0. 0. 0. 0.]
2.358480215072632,-0.01857050135731697,0.007153401151299477,0.9987767934799194,-0.045264832675457,[0. 0. 0. 0. 0. 0. 0. 0. 0.],-0.244140625,-0.244140625,0.0,[0. 0. 0. 0. 0. 0. 0. 0. 0.],-0.03662109375,0.01611328125,1.00341796875,[0. 0. 0. 0. 0. 0. 0. 0. 0.]
2.380303144454956,-0.019069069996476173,0.007361822295933962,0.9987674355506897,-0.045230355113744736,[0. 0. 0. 0. 0. 0. 0. 0. 0.],0.0,-0.30517578125,-0.06103515625,[0. 0. 0. 0. 0. 0. 0. 0. 0.],-0.03759765625,0.01708984375,1.0029296875,[0. 0. 0. 0. 0. 0. 0. 0. 0.]
2.4028191566467285,-0.018633408471941948,0.006990659981966019,0.9987802505493164,-0.04518716037273407,[0. 0. 0. 0. 0. 0. 0. 0. 0.],-0.244140625,-0.48828125,-0.18310546875,[0. 0. 0. 0. 0. 0. 0. 0. 0.],-0.03662109375,0.015625,1.00390625,[0. 0. 0. 0. 0. 0. 0. 0. 0.]
2.42199444770813,-0.019284695386886597,0.006640435196459293,0.9987722635269165,-0.04514431208372116,[0. 0. 0. 0. 0. 0. 0. 0. 0.],0.06103515625,-0.8544921875,-0.1220703125,[0. 0. 0. 0. 0. 0. 0. 0. 0.],-0.03857421875,0.015625,1.00390625,[0. 0. 0. 0. 0. 0. 0. 0. 0.]
2.436260938644409,-0.01918964833021164,0.0072436402551829815,0.9987703561782837,-0.04513401538133621,[0. 0. 0. 0. 0. 0. 0. 0. 0.],0.30517578125,-0.79345703125,-0.244140625,[0. 0. 0. 0. 0. 0. 0. 0. 0.],-0.037109375,0.015625,1.0048828125,[0. 0. 0. 0. 0. 0. 0. 0. 0.]
2.460728168487549,-0.019743826240301132,0.007510561496019363,0.9987583160400391,-0.04511773958802223,[0. 0. 0. 0. 0. 0. 0. 0. 0.],-0.42724609375,-0.732421875,-0.1220703125,[0. 0. 0. 0. 0. 0. 0. 0. 0.],-0.0380859375,0.01708984375,1.00244140625,[0. 0. 0. 0. 0. 0. 0. 0. 0.]
2.480372428894043,-0.019071435555815697,0.007348177023231983,0.9987738132476807,-0.0450928770005703,[0. 0. 0. 0. 0. 0. 0. 0. 0.],-0.42724609375,-0.48828125,-0.18310546875,[0. 0. 0. 0. 0. 0. 0. 0. 0.],-0.0380859375,0.01611328125,1.0029296875,[0. 0. 0. 0. 0. 0. 0. 0. 0.]
2.500704526901245,-0.01918908953666687,0.006570255849510431,0.9987786412239075,-0.04505348950624466,[0. 0. 0. 0. 0. 0. 0. 0. 0.],0.1220703125,-0.48828125,-0.1220703125,[0. 0. 0. 0. 0. 0. 0. 0. 0.],-0.03759765625,0.0146484375,1.0048828125,[0. 0. 0. 0. 0. 0. 0. 0. 0.]
2.5204310417175293,-0.017882006242871284,0.007294575218111277,0.9987978935241699,-0.045054029673337936,[0. 0. 0. 0. 0. 0. 0. 0. 0.],0.1220703125,-0.732421875,-0.1220703125,[0. 0. 0. 0. 0. 0. 0. 0. 0.],-0.03564453125,0.01611328125,1.0068359375,[0. 0. 0. 0. 0. 0. 0. 0. 0.]
2.5408079624176025,-0.018850641325116158,0.007192805875092745,0.9987822771072388,-0.04502291977405548,[0. 0. 0. 0. 0. 0. 0. 0. 0.],-0.244140625,-1.0986328125,-0.18310546875,[0. 0. 0. 0. 0. 0. 0. 0. 0.],-0.037109375,0.0166015625,1.00390625,[0. 0. 0. 0. 0. 0. 0. 0. 0.]
2.5600221157073975,-0.019197100773453712,0.006611015181988478,0.9987810254096985,-0.04499290511012077,[0. 0. 0. 0. 0. 0. 0. 0. 0.],-0.18310546875,-0.48828125,-0.1220703125,[0. 0. 0. 0. 0. 0. 0. 0. 0.],-0.0380859375,0.01513671875,1.00439453125,[0. 0. 0. 0. 0. 0. 0. 0. 0.]
2.580193281173706,-0.01780186966061592,0.006418823730200529,0.9988096952438354,-0.04495713859796524,[0. 0. 0. 0. 0. 0. 0. 0. 0.],-0.1220703125,-0.244140625,-0.1220703125,[0. 0. 0. 0. 0. 0. 0. 0. 0.],-0.03515625,0.0146484375,1.00537109375,[0. 0. 0. 0. 0. 0. 0. 0. 0.]
2.6007416248321533,-0.018138865008950233,0.007243787869811058,0.9987983703613281,-0.04494862258434296,[0. 0. 0. 0. 0. 0. 0. 0. 0.],0.1220703125,-0.48828125,0.0,[0. 0. 0. 0. 0. 0. 0. 0. 0.],-0.0361328125,0.0166015625,1.0029296875,[0. 0. 0. 0. 0. 0. 0. 0. 0.]
2.6204144954681396,-0.018672339618206024,0.006768937688320875,0.9987937808036804,-0.04490578919649124,[0. 0. 0. 0. 0. 0. 0. 0. 0.],-0.1220703125,-1.15966796875,-0.18310546875,[0. 0. 0. 0. 0. 0. 0. 0. 0.],-0.03759765625,0.0146484375,1.00537109375,[0. 0. 0. 0. 0. 0. 0. 0. 0.]
2.64160418510437,-0.018985895439982414,0.006456188391894102,0.9987920522689819,-0.044859256595373154,[0. 0. 0. 0. 0. 0. 0. 0. 0.],0.18310546875,-0.79345703125,-0.3662109375,[0. 0. 0. 0. 0. 0. 0. 0. 0.],-0.03759765625,0.0146484375,1.0048828125,[0. 0. 0. 0. 0. 0. 0. 0. 0.]
2.661789655685425,-0.0188741497695446,0.007337410934269428,0.9987879395484924,-0.04486117884516716,[0. 0. 0. 0. 0. 0. 0. 0. 0.],-0.1220703125,-0.244140625,0.0,[0. 0. 0. 0. 0. 0. 0. 0. 0.],-0.03662109375,0.01806640625,1.0029296875,[0. 0. 0. 0. 0. 0. 0. 0. 0.]
2.6836977005004883,-0.01817932538688183,0.007235463242977858,0.9988023638725281,-0.04484567046165466,[0. 0. 0. 0. 0. 0. 0. 0. 0.],-0.48828125,-0.67138671875,-0.06103515625,[0. 0. 0. 0. 0. 0. 0. 0. 0.],-0.0361328125,0.01611328125,1.0029296875,[0. 0. 0. 0. 0. 0. 0. 0. 0.]
2.7001867294311523,-0.01852332428097725,0.007390831597149372,0.9987960457801819,-0.0448179617524147,[0. 0. 0. 0. 0. 0. 0. 0. 0.],-0.06103515625,-0.8544921875,-0.18310546875,[0. 0. 0. 0. 0. 0. 0. 0. 0.],-0.03662109375,0.01611328125,1.00341796875,[0. 0. 0. 0. 0. 0. 0. 0. 0.]
2.7201380729675293,-0.018417522311210632,0.00714315939694643,0.9988011121749878,-0.04479149356484413,[0. 0. 0. 0. 0. 0. 0. 0. 0.],0.30517578125,-0.79345703125,-0.244140625,[0. 0. 0. 0. 0. 0. 0. 0. 0.],-0.0361328125,0.01513671875,1.00244140625,[0. 0. 0. 0. 0. 0. 0. 0. 0.]
2.7425477504730225,-0.018465837463736534,0.006922243162989616,0.9988030195236206,-0.04476438835263252,[0. 0. 0. 0. 0. 0. 0. 0. 0.],-0.06103515625,-0.8544921875,-0.18310546875,[0. 0. 0. 0. 0. 0. 0. 0. 0.],-0.03662109375,0.015625,1.00341796875,[0. 0. 0. 0. 0. 0. 0. 0. 0.]
2.7600722312927246,-0.018501756712794304,0.00801327358931303,0.9987937211990356,-0.04477366432547569,[0. 0. 0. 0. 0. 0. 0. 0. 0.],-0.6103515625,-0.48828125,-0.06103515625,[0. 0. 0. 0. 0. 0. 0. 0. 0.],-0.03662109375,0.017578125,1.00244140625,[0. 0. 0. 0. 0. 0. 0. 0. 0.]
2.780704975128174,-0.019080257043242455,0.007678222376853228,0.9987875819206238,-0.044724177569150925,[0. 0. 0. 0. 0. 0. 0. 0. 0.],-0.1220703125,-0.3662109375,-0.06103515625,[0. 0. 0. 0. 0. 0. 0. 0. 0.],-0.03759765625,0.01708984375,1.00537109375,[0. 0. 0. 0. 0. 0. 0. 0. 0.]
2.8024022579193115,-0.019080229103565216,0.006820149254053831,0.9987959265708923,-0.04467805102467537,[0. 0. 0. 0. 0. 0. 0. 0. 0.],0.18310546875,-0.3662109375,-0.06103515625,[0. 0. 0. 0. 0. 0. 0. 0. 0.],-0.03759765625,0.01513671875,1.00537109375,[0. 0. 0. 0. 0. 0. 0. 0. 0.]
2.8155019283294678,-0.018929682672023773,0.00707764970138669,0.998797595500946,-0.0446648970246315,[0. 0. 0. 0. 0. 0. 0. 0. 0.],-0.06103515625,-1.0986328125,-0.244140625,[0. 0. 0. 0. 0. 0. 0. 0. 0.],-0.03759765625,0.01611328125,1.00390625,[0. 0. 0. 0. 0. 0. 0. 0. 0.]
2.8402493000030518,-0.018202833831310272,0.00711039500311017,0.9988113045692444,-0.044655267149209976,[0. 0. 0. 0. 0. 0. 0. 0. 0.],-0.30517578125,-0.91552734375,-0.06103515625,[0. 0. 0. 0. 0. 0. 0. 0. 0.],-0.0361328125,0.01611328125,1.00146484375,[0. 0. 0. 0. 0. 0. 0. 0. 0.]
2.8564021587371826,-0.019028425216674805,0.007004837039858103,0.9987978935241699,-0.04462727531790733,[0. 0. 0. 0. 0. 0. 0. 0. 0.],-0.18310546875,-0.06103515625,-0.1220703125,[0. 0. 0. 0. 0. 0. 0. 0. 0.],-0.03857421875,0.0166015625,1.00439453125,[0. 0. 0. 0. 0. 0. 0. 0. 0.]
2.8812365531921387,-0.019349802285432816,0.00824026670306921,0.998782753944397,-0.04461878910660744,[0. 0. 0. 0. 0. 0. 0. 0. 0.],-0.30517578125,-0.48828125,-0.1220703125,[0. 0. 0. 0. 0. 0. 0. 0. 0.],-0.0380859375,0.0185546875,1.0009765625,[0. 0. 0. 0. 0. 0. 0. 0. 0.]
2.9008677005767822,-0.019003653898835182,0.007795453071594238,0.9987944960594177,-0.044583577662706375,[0. 0. 0. 0. 0. 0. 0. 0. 0.],-0.30517578125,-0.8544921875,-0.244140625,[0. 0. 0. 0. 0. 0. 0. 0. 0.],-0.037109375,0.0166015625,1.00390625,[0. 0. 0. 0. 0. 0. 0. 0. 0.]
2.920048475265503,-0.018633199855685234,0.0072513846680521965,0.9988073110580444,-0.044543929398059845,[0. 0. 0. 0. 0. 0. 0. 0. 0.],0.1220703125,-0.732421875,-0.18310546875,[0. 0. 0. 0. 0. 0. 0. 0. 0.],-0.03662109375,0.01611328125,1.00634765625,[0. 0. 0. 0. 0. 0. 0. 0. 0.]
2.9401144981384277,-0.01923087239265442,0.006775213405489922,0.9988003969192505,-0.04452241212129593,[0. 0. 0. 0. 0. 0. 0. 0. 0.],0.3662109375,-0.8544921875,-0.1220703125,[0. 0. 0. 0. 0. 0. 0. 0. 0.],-0.0380859375,0.01513671875,1.00390625,[0. 0. 0. 0. 0. 0. 0. 0. 0.]
2.9600698947906494,-0.01938708685338497,0.0075428178533911705,0.9987919926643372,-0.04451853409409523,[0. 0. 0. 0. 0. 0. 0. 0. 0.],-0.42724609375,-0.67138671875,-0.06103515625,[0. 0. 0. 0. 0. 0. 0. 0. 0.],-0.0380859375,0.0166015625,1.0029296875,[0. 0. 0. 0. 0. 0. 0. 0. 0.]
2.980264663696289,-0.018093932420015335,0.0071988957934081554,0.9988204836845398,-0.044481415301561356,[0. 0. 0. 0. 0. 0. 0. 0. 0.],-0.244140625,-0.42724609375,-0.1220703125,[0. 0. 0. 0. 0. 0. 0. 0. 0.],-0.03564453125,0.01611328125,1.00244140625,[0. 0. 0. 0. 0. 0. 0. 0. 0.]
3.0003721714019775,-0.01924540288746357,0.006448236294090748,0.9988069534301758,-0.04441416263580322,[0. 0. 0. 0. 0. 0. 0. 0. 0.],0.1220703125,-0.3662109375,-0.1220703125,[0. 0. 0. 0. 0. 0. 0. 0. 0.],-0.0380859375,0.0146484375,1.00390625,[0. 0. 0. 0. 0. 0. 0. 0. 0.]
3.0202994346618652,-0.019271135330200195,0.006270158104598522,0.9988091588020325,-0.044381920248270035,[0. 0. 0. 0. 0. 0. 0. 0. 0.],0.30517578125,-0.79345703125,-0.244140625,[0. 0. 0. 0. 0. 0. 0. 0. 0.],-0.0380859375,0.01416015625,1.0048828125,[0. 0. 0. 0. 0. 0. 0. 0. 0.]
3.040445566177368,-0.018991874530911446,0.007067591417580843,0.9988099336624146,-0.044364605098962784,[0. 0. 0. 0. 0. 0. 0. 0. 0.],-0.30517578125,-1.220703125,-0.30517578125,[0. 0. 0. 0. 0. 0. 0. 0. 0.],-0.03759765625,0.01611328125,1.00390625,[0. 0. 0. 0. 0. 0. 0. 0. 0.]
3.0604169368743896,-0.018910285085439682,0.0064382534474134445,0.9988172650337219,-0.04432929307222366,[0. 0. 0. 0. 0. 0. 0. 0. 0.],-0.42724609375,-0.48828125,-0.18310546875,[0. 0. 0. 0. 0. 0. 0. 0. 0.],-0.03759765625,0.01513671875,1.0029296875,[0. 0. 0. 0. 0. 0. 0. 0. 0.]
3.080263137817383,-0.018406691029667854,0.0075575681403279305,0.9988185167312622,-0.04433523491024971,[0. 0. 0. 0. 0. 0. 0. 0. 0.],-0.1220703125,-0.18310546875,-0.06103515625,[0. 0. 0. 0. 0. 0. 0. 0. 0.],-0.03662109375,0.01806640625,1.0048828125,[0. 0. 0. 0. 0. 0. 0. 0. 0.]
3.1004490852355957,-0.019494177773594856,0.007731430232524872,0.9987981915473938,-0.04430004209280014,[0. 0. 0. 0. 0. 0. 0. 0. 0.],-0.1220703125,-0.67138671875,-0.18310546875,[0. 0. 0. 0. 0. 0. 0. 0. 0.],-0.03857421875,0.01708984375,1.00390625,[0. 0. 0. 0. 0. 0. 0. 0. 0.]
3.120241403579712,-0.018931839615106583,0.006549961864948273,0.9988189339637756,-0.04426661878824234,[0. 0. 0. 0. 0. 0. 0. 0. 0.],-0.1220703125,-1.15966796875,-0.1220703125,[0. 0. 0. 0. 0. 0. 0. 0. 0.],-0.03759765625,0.0146484375,1.00634765625,[0. 0. 0. 0. 0. 0. 0. 0. 0.]
3.140557289123535,-0.019521240144968033,0.007153455633670092,0.9988045692443848,-0.04424072802066803,[0. 0. 0. 0. 0. 0. 0. 0. 0.],0.18310546875,-0.732421875,-0.30517578125,[0. 0. 0. 0. 0. 0. 0. 0. 0.],-0.03857421875,0.01611328125,1.001953125,[0. 0. 0. 0. 0. 0. 0. 0. 0.]
3.1600847244262695,-0.019845180213451385,0.007226722780615091,0.9987986087799072,-0.04421861097216606,[0. 0. 0. 0. 0. 0. 0. 0. 0.],-0.06103515625,-0.30517578125,0.0,[0. 0. 0. 0. 0. 0. 0. 0. 0.],-0.0390625,0.01611328125,1.00341796875,[0. 0. 0. 0. 0. 0. 0. 0. 0.]
3.1759567260742188,-0.01933974400162697,0.006752722896635532,0.9988130331039429,-0.04419334605336189,[0. 0. 0. 0. 0. 0. 0. 0. 0.],-0.3662109375,-0.54931640625,-0.1220703125,[0. 0. 0. 0. 0. 0. 0. 0. 0.],-0.03759765625,0.015625,1.00537109375,[0. 0. 0. 0. 0. 0. 0. 0. 0.]
3.2004010677337646,-0.017682084813714027,0.007132667116820812,0.9988415837287903,-0.044181644916534424,[0. 0. 0. 0. 0. 0. 0. 0. 0.],-0.1220703125,-0.9765625,-0.1220703125,[0. 0. 0. 0. 0. 0. 0. 0. 0.],-0.03515625,0.01611328125,1.00390625,[0. 0. 0. 0. 0. 0. 0. 0. 0.]
3.2244632244110107,-0.01867385394871235,0.0077300891280174255,0.9988201260566711,-0.04415782168507576,[0. 0. 0. 0. 0. 0. 0. 0. 0.],0.30517578125,-0.732421875,-0.30517578125,[0. 0. 0. 0. 0. 0. 0. 0. 0.],-0.037109375,0.0166015625,1.0048828125,[0. 0. 0. 0. 0. 0. 0. 0. 0.]
3.240389585494995,-0.01954672858119011,0.007502101361751556,0.9988064169883728,-0.04412961006164551,[0. 0. 0. 0. 0. 0. 0. 0. 0.],-0.244140625,-0.42724609375,-0.06103515625,[0. 0. 0. 0. 0. 0. 0. 0. 0.],-0.0390625,0.01611328125,1.00390625,[0. 0. 0. 0. 0. 0. 0. 0. 0.]
3.2605655193328857,-0.019026093184947968,0.006542468909174204,0.9988254904747009,-0.04407736286520958,[0. 0. 0. 0. 0. 0. 0. 0. 0.],-0.54931640625,-0.48828125,-0.18310546875,[0. 0. 0. 0. 0. 0. 0. 0. 0.],-0.03759765625,0.01513671875,1.0048828125,[0. 0. 0. 0. 0. 0. 0. 0. 0.]
3.286813497543335,-0.018792303279042244,0.007501962594687939,0.998823881149292,-0.044061142951250076,[0. 0. 0. 0. 0. 0. 0. 0. 0.],-0.06103515625,-0.42724609375,-0.1220703125,[0. 0. 0. 0. 0. 0. 0. 0. 0.],-0.037109375,0.0166015625,1.00439453125,[0. 0. 0. 0. 0. 0. 0. 0. 0.]
3.3010640144348145,-0.018981149420142174,0.0069171348586678505,0.9988270401954651,-0.044005926698446274,[0. 0. 0. 0. 0. 0. 0. 0. 0.],0.3662109375,-0.732421875,-0.244140625,[0. 0. 0. 0. 0. 0. 0. 0. 0.],-0.03759765625,0.01513671875,1.00439453125,[0. 0. 0. 0. 0. 0. 0. 0. 0.]
3.317595958709717,-0.018005499616265297,0.006482284516096115,0.9988487362861633,-0.0439886748790741,[0. 0. 0. 0. 0. 0. 0. 0. 0.],-0.18310546875,-0.9765625,-0.1220703125,[0. 0. 0. 0. 0. 0. 0. 0. 0.],-0.03564453125,0.0146484375,1.00341796875,[0. 0. 0. 0. 0. 0. 0. 0. 0.]
3.3403496742248535,-0.017992928624153137,0.007413418032228947,0.9988435506820679,-0.043964795768260956,[0. 0. 0. 0. 0. 0. 0. 0. 0.],-0.3662109375,-0.79345703125,-0.18310546875,[0. 0. 0. 0. 0. 0. 0. 0. 0.],-0.03564453125,0.01806640625,1.00439453125,[0. 0. 0. 0. 0. 0. 0. 0. 0.]
3.359961986541748,-0.019435511901974678,0.007158938329666853,0.9988201856613159,-0.04392430931329727,[0. 0. 0. 0. 0. 0. 0. 0. 0.],0.0,-0.3662109375,-0.1220703125,[0. 0. 0. 0. 0. 0. 0. 0. 0.],-0.0380859375,0.01611328125,1.00390625,[0. 0. 0. 0. 0. 0. 0. 0. 0.]
3.3801677227020264,-0.018907122313976288,0.007030949462205172,0.9988321661949158,-0.04390266537666321,[0. 0. 0. 0. 0. 0. 0. 0. 0.],-0.244140625,-0.18310546875,-0.06103515625,[0. 0. 0. 0. 0. 0. 0. 0. 0.],-0.03759765625,0.015625,1.00537109375,[0. 0. 0. 0. 0. 0. 0. 0. 0.]
3.3999898433685303,-0.019181091338396072,0.007123397197574377,0.9988273978233337,-0.043876901268959045,[0. 0. 0. 0. 0. 0. 0. 0. 0.],-0.06103515625,-0.8544921875,-0.18310546875,[0. 0. 0. 0. 0. 0. 0. 0. 0.],-0.0380859375,0.01513671875,1.00439453125,[0. 0. 0. 0. 0. 0. 0. 0. 0.]
3.4202675819396973,-0.019014880061149597,0.007220033090561628,0.9988306164741516,-0.04386148229241371,[0. 0. 0. 0. 0. 0. 0. 0. 0.],0.0,-0.9765625,-0.1220703125,[0. 0. 0. 0. 0. 0. 0. 0. 0.],-0.03759765625,0.01611328125,1.00341796875,[0. 0. 0. 0. 0. 0. 0. 0. 0.]
3.440495491027832,-0.018336541950702667,0.007228981703519821,0.9988436102867126,-0.043852075934410095,[0. 0. 0. 0. 0. 0. 0. 0. 0.],0.30517578125,-0.67138671875,-0.18310546875,[0. 0. 0. 0. 0. 0. 0. 0. 0.],-0.03662109375,0.0166015625,1.00439453125,[0. 0. 0. 0. 0. 0. 0. 0. 0.]
3.457594633102417,-0.01902736909687519,0.006476233247667551,0.9988377094268799,-0.04381086304783821,[0. 0. 0. 0. 0. 0. 0. 0. 0.],-0.42724609375,-1.0986328125,-0.1220703125,[0. 0. 0. 0. 0. 0. 0. 0. 0.],-0.0380859375,0.0146484375,1.00341796875,[0. 0. 0. 0. 0. 0. 0. 0. 0.]
3.475522994995117,-0.0194824431091547,0.0069062793627381325,0.998826801776886,-0.04379346966743469,[0. 0. 0. 0. 0. 0. 0. 0. 0.],-0.30517578125,-0.67138671875,-0.1220703125,[0. 0. 0. 0. 0. 0. 0. 0. 0.],-0.03857421875,0.015625,1.00341796875,[0. 0. 0. 0. 0. 0. 0. 0. 0.]
3.4965758323669434,-0.018792014569044113,0.006454597692936659,0.9988448619842529,-0.04375124350190163,[0. 0. 0. 0. 0. 0. 0. 0. 0.],0.3662109375,-0.732421875,-0.06103515625,[0. 0. 0. 0. 0. 0. 0. 0. 0.],-0.037109375,0.0146484375,1.00341796875,[0. 0. 0. 0. 0. 0. 0. 0. 0.]
3.5205423831939697,-0.01856871508061886,0.007067193742841482,0.998845100402832,-0.04374714195728302,[0. 0. 0. 0. 0. 0. 0. 0. 0.],0.1220703125,-0.8544921875,-0.18310546875,[0. 0. 0. 0. 0. 0. 0. 0. 0.],-0.03662109375,0.015625,1.00537109375,[0. 0. 0. 0. 0. 0. 0. 0. 0.]
3.5408775806427,-0.01912415586411953,0.007638649083673954,0.9988312721252441,-0.04372663423418999,[0. 0. 0. 0. 0. 0. 0. 0. 0.],-0.244140625,-0.9765625,-0.30517578125,[0. 0. 0. 0. 0. 0. 0. 0. 0.],-0.03759765625,0.0166015625,1.00341796875,[0. 0. 0. 0. 0. 0. 0. 0. 0.]
3.560457229614258,-0.018997207283973694,0.007400467526167631,0.9988370537757874,-0.04369009658694267,[0. 0. 0. 0. 0. 0. 0. 0. 0.],-0.244140625,-0.3662109375,-0.30517578125,[0. 0. 0. 0. 0. 0. 0. 0. 0.],-0.037109375,0.01611328125,1.00244140625,[0. 0. 0. 0. 0. 0. 0. 0. 0.]
3.5801682472229004,-0.01877816952764988,0.007128132041543722,0.9988445043563843,-0.04366022348403931,[0. 0. 0. 0. 0. 0. 0. 0. 0.],0.0,-0.244140625,0.0,[0. 0. 0. 0. 0. 0. 0. 0. 0.],-0.037109375,0.01611328125,1.001953125,[0. 0. 0. 0. 0. 0. 0. 0. 0.]
3.600116729736328,-0.018887925893068314,0.007069986313581467,0.9988444447517395,-0.043624360114336014,[0. 0. 0. 0. 0. 0. 0. 0. 0.],0.1220703125,-0.8544921875,-0.18310546875,[0. 0. 0. 0. 0. 0. 0. 0. 0.],-0.037109375,0.0166015625,1.00244140625,[0. 0. 0. 0. 0. 0. 0. 0. 0.]
3.621771812438965,-0.01825786754488945,0.0068269395269453526,0.9988588690757751,-0.04360102117061615,[0. 0. 0. 0. 0. 0. 0. 0. 0.],-0.06103515625,-1.0986328125,-0.18310546875,[0. 0. 0. 0. 0. 0. 0. 0. 0.],-0.0361328125,0.01513671875,1.00390625,[0. 0. 0. 0. 0. 0. 0. 0. 0.]
3.635329246520996,-0.01865595206618309,0.007527773734182119,0.9988475441932678,-0.04357801005244255,[0. 0. 0. 0. 0. 0. 0. 0. 0.],0.06103515625,-0.6103515625,-0.1220703125,[0. 0. 0. 0. 0. 0. 0. 0. 0.],-0.03662109375,0.01708984375,1.00390625,[0. 0. 0. 0. 0. 0. 0. 0. 0.]
3.660098075866699,-0.01870379038155079,0.0077728829346597195,0.9988453984260559,-0.04356099292635918,[0. 0. 0. 0. 0. 0. 0. 0. 0.],-0.244140625,-0.244140625,0.0,[0. 0. 0. 0. 0. 0. 0. 0. 0.],-0.03662109375,0.01708984375,1.00341796875,[0. 0. 0. 0. 0. 0. 0. 0. 0.]
3.680311679840088,-0.019422350451350212,0.0069276620633900166,0.9988401532173157,-0.04350962117314339,[0. 0. 0. 0. 0. 0. 0. 0. 0.],-0.30517578125,-0.732421875,-0.1220703125,[0. 0. 0. 0. 0. 0. 0. 0. 0.],-0.0380859375,0.015625,1.00390625,[0. 0. 0. 0. 0. 0. 0. 0. 0.]
3.701922655105591,-0.018863659352064133,0.007176463957875967,0.9988498687744141,-0.04349472001194954,[0. 0. 0. 0. 0. 0. 0. 0. 0.],0.0,-1.03759765625,-0.18310546875,[0. 0. 0. 0. 0. 0. 0. 0. 0.],-0.0361328125,0.01513671875,1.005859375,[0. 0. 0. 0. 0. 0. 0. 0. 0.]
3.7202329635620117,-0.01846492476761341,0.006281865295022726,0.9988645911216736,-0.043464601039886475,[0. 0. 0. 0. 0. 0. 0. 0. 0.],0.18310546875,-0.8544921875,-0.244140625,[0. 0. 0. 0. 0. 0. 0. 0. 0.],-0.03662109375,0.01416015625,1.0048828125,[0. 0. 0. 0. 0. 0. 0. 0. 0.]
3.736492395401001,-0.018767224624753,0.0068229497410357,0.9988560080528259,-0.0434507317841053,[0. 0. 0. 0. 0. 0. 0. 0. 0.],-0.18310546875,-0.42724609375,-0.18310546875,[0. 0. 0. 0. 0. 0. 0. 0. 0.],-0.03662109375,0.015625,1.00244140625,[0. 0. 0. 0. 0. 0. 0. 0. 0.]
3.7617578506469727,-0.01902795024216175,0.007730030920356512,0.9988455176353455,-0.04342732951045036,[0. 0. 0. 0. 0. 0. 0. 0. 0.],-0.48828125,-0.67138671875,-0.1220703125,[0. 0. 0. 0. 0. 0. 0. 0. 0.],-0.037109375,0.01708984375,1.0029296875,[0. 0. 0. 0. 0. 0. 0. 0. 0.]
3.781712293624878,-0.018899057060480118,0.006979646626859903,0.9988554120063782,-0.04338332638144493,[0. 0. 0. 0. 0. 0. 0. 0. 0.],-0.06103515625,-0.6103515625,-0.18310546875,[0. 0. 0. 0. 0. 0. 0. 0. 0.],-0.037109375,0.015625,1.00390625,[0. 0. 0. 0. 0. 0. 0. 0. 0.]
3.800492286682129,-0.01796931028366089,0.0066167088225483894,0.9988768696784973,-0.043339747935533524,[0. 0. 0. 0. 0. 0. 0. 0. 0.],0.30517578125,-0.79345703125,-0.30517578125,[0. 0. 0. 0. 0. 0. 0. 0. 0.],-0.0361328125,0.01513671875,1.00537109375,[0. 0. 0. 0. 0. 0. 0. 0. 0.]
3.8240249156951904,-0.01835988461971283,0.006821486633270979,0.9988688230514526,-0.04333128780126572,[0. 0. 0. 0. 0. 0. 0. 0. 0.],-0.1220703125,-1.15966796875,-0.18310546875,[0. 0. 0. 0. 0. 0. 0. 0. 0.],-0.03662109375,0.01416015625,1.00537109375,[0. 0. 0. 0. 0. 0. 0. 0. 0.]
3.8402743339538574,-0.018384097144007683,0.007115327287465334,0.9988670945167542,-0.04331311210989952,[0. 0. 0. 0. 0. 0. 0. 0. 0.],-0.18310546875,-0.9765625,-0.18310546875,[0. 0. 0. 0. 0. 0. 0. 0. 0.],-0.03662109375,0.01611328125,1.00439453125,[0. 0. 0. 0. 0. 0. 0. 0. 0.]
3.8552987575531006,-0.018915480002760887,0.007054192945361137,0.9988587498664856,-0.04328487440943718,[0. 0. 0. 0. 0. 0. 0. 0. 0.],0.06103515625,-0.1220703125,-0.06103515625,[0. 0. 0. 0. 0. 0. 0. 0. 0.],-0.03759765625,0.01611328125,1.00390625,[0. 0. 0. 0. 0. 0. 0. 0. 0.]
3.881056785583496,-0.018804630264639854,0.007327132858335972,0.9988599419593811,-0.04326227307319641,[0. 0. 0. 0. 0. 0. 0. 0. 0.],-0.244140625,-0.18310546875,-0.06103515625,[0. 0. 0. 0. 0. 0. 0. 0. 0.],-0.037109375,0.01611328125,1.00439453125,[0. 0. 0. 0. 0. 0. 0. 0. 0.]
3.896249771118164,-0.017758473753929138,0.007223582360893488,0.9988808631896973,-0.04323885962367058,[0. 0. 0. 0. 0. 0. 0. 0. 0.],-0.18310546875,-0.9765625,-0.18310546875,[0. 0. 0. 0. 0. 0. 0. 0. 0.],-0.03564453125,0.01611328125,1.0048828125,[0. 0. 0. 0. 0. 0. 0. 0. 0.]
3.9203548431396484,-0.0184165108948946,0.0065666064620018005,0.9988758563995361,-0.043183837085962296,[0. 0. 0. 0. 0. 0. 0. 0. 0.],0.18310546875,-1.0986328125,-0.30517578125,[0. 0. 0. 0. 0. 0. 0. 0. 0.],-0.03662109375,0.0146484375,1.00537109375,[0. 0. 0. 0. 0. 0. 0. 0. 0.]
3.9403629302978516,-0.019261281937360764,0.0074335928075015545,0.9988544583320618,-0.043169908225536346,[0. 0. 0. 0. 0. 0. 0. 0. 0.],0.0,-0.54931640625,-0.1220703125,[0. 0. 0. 0. 0. 0. 0. 0. 0.],-0.03759765625,0.01708984375,1.0029296875,[0. 0. 0. 0. 0. 0. 0. 0. 0.]
3.9606072902679443,-0.018725745379924774,0.0067765130661427975,0.9988700151443481,-0.043153099715709686,[0. 0. 0. 0. 0. 0. 0. 0. 0.],-0.54931640625,-0.42724609375,0.0,[0. 0. 0. 0. 0. 0. 0. 0. 0.],-0.037109375,0.01513671875,1.00341796875,[0. 0. 0. 0. 0. 0. 0. 0. 0.]
3.9808340072631836,-0.01943221129477024,0.006488427519798279,0.9988602995872498,-0.043109361082315445,[0. 0. 0. 0. 0. 0. 0. 0. 0.],-0.1220703125,-0.6103515625,-0.244140625,[0. 0. 0. 0. 0. 0. 0. 0. 0.],-0.0380859375,0.0146484375,1.00439453125,[0. 0. 0. 0. 0. 0. 0. 0. 0.]
4.000311851501465,-0.018446454778313637,0.007187968119978905,0.9988744854927063,-0.04310183972120285,[0. 0. 0. 0. 0. 0. 0. 0. 0.],0.18310546875,-0.54931640625,-0.1220703125,[0. 0. 0. 0. 0. 0. 0. 0. 0.],-0.03662109375,0.015625,1.005859375,[0. 0. 0. 0. 0. 0. 0. 0. 0.]
4.022185802459717,-0.019196882843971252,0.0068501755595207214,0.998863935470581,-0.04307672381401062,[0. 0. 0. 0. 0. 0. 0. 0. 0.],0.244140625,-0.8544921875,-0.18310546875,[0. 0. 0. 0. 0. 0. 0. 0. 0.],-0.0380859375,0.015625,1.00732421875,[0. 0. 0. 0. 0. 0. 0. 0. 0.]
4.035231351852417,-0.019194345921278,0.007027722429484129,0.9988633990287781,-0.04305948317050934,[0. 0. 0. 0. 0. 0. 0. 0. 0.],-0.48828125,-0.79345703125,-0.18310546875,[0. 0. 0. 0. 0. 0. 0. 0. 0.],-0.03857421875,0.01611328125,1.00390625,[0. 0. 0. 0. 0. 0. 0. 0. 0.]
4.06446385383606,-0.018825538456439972,0.007740289904177189,0.9988659620285034,-0.043039821088314056,[0. 0. 0. 0. 0. 0. 0. 0. 0.],-0.18310546875,-0.6103515625,-0.1220703125,[0. 0. 0. 0. 0. 0. 0. 0. 0.],-0.037109375,0.0166015625,1.00341796875,[0. 0. 0. 0. 0. 0. 0. 0. 0.]
4.083811521530151,-0.01882447488605976,0.007472124882042408,0.9988692402839661,-0.043011367321014404,[0. 0. 0. 0. 0. 0. 0. 0. 0.],0.18310546875,-0.3662109375,-0.06103515625,[0. 0. 0. 0. 0. 0. 0. 0. 0.],-0.037109375,0.0166015625,1.001953125,[0. 0. 0. 0. 0. 0. 0. 0. 0.]
4.100440979003906,-0.018978461623191833,0.006692428141832352,0.9988738894462585,-0.042967066168785095,[0. 0. 0. 0. 0. 0. 0. 0. 0.],0.0,-0.9765625,-0.244140625,[0. 0. 0. 0. 0. 0. 0. 0. 0.],-0.03759765625,0.01416015625,1.00439453125,[0. 0. 0. 0. 0. 0. 0. 0. 0.]
4.115264654159546,-0.018436752259731293,0.005999448709189892,0.9988897442817688,-0.04293688014149666,[0. 0. 0. 0. 0. 0. 0. 0. 0.],-0.244140625,-1.03759765625,-0.244140625,[0. 0. 0. 0. 0. 0. 0. 0. 0.],-0.03662109375,0.013671875,1.0048828125,[0. 0. 0. 0. 0. 0. 0. 0. 0.]
4.14060378074646,-0.018338041380047798,0.007730264216661453,0.9988796710968018,-0.04293520376086235,[0. 0. 0. 0. 0. 0. 0. 0. 0.],0.0,-0.42724609375,-0.18310546875,[0. 0. 0. 0. 0. 0. 0. 0. 0.],-0.0361328125,0.017578125,1.001953125,[0. 0. 0. 0. 0. 0. 0. 0. 0.]
4.15724515914917,-0.018822476267814636,0.007741126231849194,0.9988716840744019,-0.04290897026658058,[0. 0. 0. 0. 0. 0. 0. 0. 0.],-0.1220703125,-0.18310546875,0.0,[0. 0. 0. 0. 0. 0. 0. 0. 0.],-0.037109375,0.0166015625,1.00390625,[0. 0. 0. 0. 0. 0. 0. 0. 0.]
4.1804563999176025,-0.018734557554125786,0.006805144716054201,0.9988817572593689,-0.04287256300449371,[0. 0. 0. 0. 0. 0. 0. 0. 0.],-0.18310546875,-0.732421875,-0.1220703125,[0. 0. 0. 0. 0. 0. 0. 0. 0.],-0.037109375,0.01513671875,1.00390625,[0. 0. 0. 0. 0. 0. 0. 0. 0.]
4.2002222537994385,-0.018688082695007324,0.006688620429486036,0.9988844990730286,-0.04284639656543732,[0. 0. 0. 0. 0. 0. 0. 0. 0.],0.0,-1.0986328125,-0.244140625,[0. 0. 0. 0. 0. 0. 0. 0. 0.],-0.03662109375,0.01416015625,1.0048828125,[0. 0. 0. 0. 0. 0. 0. 0. 0.]
4.220081806182861,-0.018223270773887634,0.007569605950266123,0.9988871216773987,-0.04284092038869858,[0. 0. 0. 0. 0. 0. 0. 0. 0.],0.18310546875,-0.54931640625,-0.18310546875,[0. 0. 0. 0. 0. 0. 0. 0. 0.],-0.0361328125,0.0166015625,1.0048828125,[0. 0. 0. 0. 0. 0. 0. 0. 0.]
4.2413623332977295,-0.018229244276881218,0.008420800790190697,0.9988807439804077,-0.04282822459936142,[0. 0. 0. 0. 0. 0. 0. 0. 0.],-0.18310546875,-0.30517578125,-0.18310546875,[0. 0. 0. 0. 0. 0. 0. 0. 0.],-0.0361328125,0.01806640625,1.00146484375,[0. 0. 0. 0. 0. 0. 0. 0. 0.]
4.26146936416626,-0.01924924924969673,0.007397059816867113,0.9988727569580078,-0.04275405779480934,[0. 0. 0. 0. 0. 0. 0. 0. 0.],-0.1220703125,-0.9765625,-0.30517578125,[0. 0. 0. 0. 0. 0. 0. 0. 0.],-0.03759765625,0.0166015625,1.00390625,[0. 0. 0. 0. 0. 0. 0. 0. 0.]
4.280682802200317,-0.018845176324248314,0.007561203092336655,0.99888014793396,-0.042732592672109604,[0. 0. 0. 0. 0. 0. 0. 0. 0.],0.06103515625,-0.3662109375,-0.06103515625,[0. 0. 0. 0. 0. 0. 0. 0. 0.],-0.037109375,0.01708984375,1.00244140625,[0. 0. 0. 0. 0. 0. 0. 0. 0.]
4.3012144565582275,-0.019131449982523918,0.007299115415662527,0.9988786578178406,-0.04268718883395195,[0. 0. 0. 0. 0. 0. 0. 0. 0.],0.18310546875,-0.54931640625,-0.1220703125,[0. 0. 0. 0. 0. 0. 0. 0. 0.],-0.03759765625,0.01513671875,1.00390625,[0. 0. 0. 0. 0. 0. 0. 0. 0.]
4.324542999267578,-0.018764764070510864,0.006852535530924797,0.9988899827003479,-0.04265955463051796,[0. 0. 0. 0. 0. 0. 0. 0. 0.],-0.244140625,-1.03759765625,-0.1220703125,[0. 0. 0. 0. 0. 0. 0. 0. 0.],-0.037109375,0.01513671875,1.00390625,[0. 0. 0. 0. 0. 0. 0. 0. 0.]
4.340481519699097,-0.018057718873023987,0.00797838345170021,0.9988940358161926,-0.04267321154475212,[0. 0. 0. 0. 0. 0. 0. 0. 0.],-0.244140625,-0.8544921875,-0.1220703125,[0. 0. 0. 0. 0. 0. 0. 0. 0.],-0.03564453125,0.017578125,1.00390625,[0. 0. 0. 0. 0. 0. 0. 0. 0.]
4.360291004180908,-0.01833844557404518,0.0072029586881399155,0.9988968372344971,-0.04262566938996315,[0. 0. 0. 0. 0. 0. 0. 0. 0.],0.1220703125,-0.48828125,-0.18310546875,[0. 0. 0. 0. 0. 0. 0. 0. 0.],-0.03662109375,0.01611328125,1.0048828125,[0. 0. 0. 0. 0. 0. 0. 0. 0.]
4.38056206703186,-0.018717888742685318,0.00755195552483201,0.998888373374939,-0.042598284780979156,[0. 0. 0. 0. 0. 0. 0. 0. 0.],-0.1220703125,-0.30517578125,-0.30517578125,[0. 0. 0. 0. 0. 0. 0. 0. 0.],-0.037109375,0.0166015625,1.00537109375,[0. 0. 0. 0. 0. 0. 0. 0. 0.]
4.405429840087891,-0.018822280690073967,0.007358180824667215,0.998890221118927,-0.04254309833049774,[0. 0. 0. 0. 0. 0. 0. 0. 0.],-0.244140625,-0.3662109375,-0.18310546875,[0. 0. 0. 0. 0. 0. 0. 0. 0.],-0.037109375,0.0166015625,1.00390625,[0. 0. 0. 0. 0. 0. 0. 0. 0.]
4.420497417449951,-0.018326183781027794,0.006648121867328882,0.9989057183265686,-0.042514361441135406,[0. 0. 0. 0. 0. 0. 0. 0. 0.],0.0,-0.9765625,-0.1220703125,[0. 0. 0. 0. 0. 0. 0. 0. 0.],-0.03662109375,0.01513671875,1.0029296875,[0. 0. 0. 0. 0. 0. 0. 0. 0.]
4.440641403198242,-0.01820947229862213,0.0067218695767223835,0.9989076256752014,-0.04250697046518326,[0. 0. 0. 0. 0. 0. 0. 0. 0.],0.1220703125,-0.244140625,0.0,[0. 0. 0. 0. 0. 0. 0. 0. 0.],-0.03662109375,0.015625,1.00341796875,[0. 0. 0. 0. 0. 0. 0. 0. 0.]
4.460277080535889,-0.019610339775681496,0.007732489611953497,0.9988740086555481,-0.04250035062432289,[0. 0. 0. 0. 0. 0. 0. 0. 0.],-0.54931640625,-0.244140625,-0.06103515625,[0. 0. 0. 0. 0. 0. 0. 0. 0.],-0.0390625,0.017578125,1.00341796875,[0. 0. 0. 0. 0. 0. 0. 0. 0.]
4.4769532680511475,-0.018808940425515175,0.007738841697573662,0.9988906383514404,-0.042473431676626205,[0. 0. 0. 0. 0. 0. 0. 0. 0.],-0.06103515625,-0.8544921875,-0.06103515625,[0. 0. 0. 0. 0. 0. 0. 0. 0.],-0.037109375,0.01708984375,1.001953125,[0. 0. 0. 0. 0. 0. 0. 0. 0.]
4.495603799819946,-0.019141342490911484,0.007355547044426203,0.9988890290260315,-0.04243034869432449,[0. 0. 0. 0. 0. 0. 0. 0. 0.],0.1220703125,-0.79345703125,-0.06103515625,[0. 0. 0. 0. 0. 0. 0. 0. 0.],-0.03759765625,0.0166015625,1.00244140625,[0. 0. 0. 0. 0. 0. 0. 0. 0.]
4.520116567611694,-0.019566331058740616,0.008163330145180225,0.998874306678772,-0.04243621975183487,[0. 0. 0. 0. 0. 0. 0. 0. 0.],0.1220703125,-0.732421875,-0.1220703125,[0. 0. 0. 0. 0. 0. 0. 0. 0.],-0.0380859375,0.017578125,1.0048828125,[0. 0. 0. 0. 0. 0. 0. 0. 0.]
4.5400800704956055,-0.018640093505382538,0.008022792637348175,0.9988939166069031,-0.04241688549518585,[0. 0. 0. 0. 0. 0. 0. 0. 0.],-0.3662109375,-0.8544921875,-0.1220703125,[0. 0. 0. 0. 0. 0. 0. 0. 0.],-0.03662109375,0.017578125,1.00244140625,[0. 0. 0. 0. 0. 0. 0. 0. 0.]
4.560711860656738,-0.019095610827207565,0.007358345668762922,0.9988921880722046,-0.04237377643585205,[0. 0. 0. 0. 0. 0. 0. 0. 0.],-0.30517578125,-0.42724609375,-0.1220703125,[0. 0. 0. 0. 0. 0. 0. 0. 0.],-0.03759765625,0.01611328125,1.00341796875,[0. 0. 0. 0. 0. 0. 0. 0. 0.]
4.575403451919556,-0.01788734458386898,0.006980714853852987,0.998918354511261,-0.04235038906335831,[0. 0. 0. 0. 0. 0. 0. 0. 0.],0.244140625,-0.42724609375,-0.1220703125,[0. 0. 0. 0. 0. 0. 0. 0. 0.],-0.0361328125,0.015625,1.00537109375,[0. 0. 0. 0. 0. 0. 0. 0. 0.]
4.600570201873779,-0.01828276738524437,0.007771557196974754,0.9989063739776611,-0.042327575385570526,[0. 0. 0. 0. 0. 0. 0. 0. 0.],0.1220703125,-0.9765625,-0.18310546875,[0. 0. 0. 0. 0. 0. 0. 0. 0.],-0.0361328125,0.0166015625,1.0048828125,[0. 0. 0. 0. 0. 0. 0. 0. 0.]
4.620743989944458,-0.019025254994630814,0.007707744836807251,0.998894453048706,-0.04229329898953438,[0. 0. 0. 0. 0. 0. 0. 0. 0.],-0.244140625,-1.220703125,-0.244140625,[0. 0. 0. 0. 0. 0. 0. 0. 0.],-0.03759765625,0.01708984375,1.0048828125,[0. 0. 0. 0. 0. 0. 0. 0. 0.]
4.635288715362549,-0.018078237771987915,0.006667507346719503,0.9989214539527893,-0.04224516823887825,[0. 0. 0. 0. 0. 0. 0. 0. 0.],-0.1220703125,-0.30517578125,-0.1220703125,[0. 0. 0. 0. 0. 0. 0. 0. 0.],-0.0361328125,0.0146484375,1.0029296875,[0. 0. 0. 0. 0. 0. 0. 0. 0.]
4.655680418014526,-0.017776893451809883,0.005248651839792728,0.9989376664161682,-0.04219154268503189,[0. 0. 0. 0. 0. 0. 0. 0. 0.],-2.0751953125,0.18310546875,-0.3662109375,[0. 0. 0. 0. 0. 0. 0. 0. 0.],-0.033203125,-0.00244140625,1.0009765625,[0. 0. 0. 0. 0. 0. 0. 0. 0.]
4.680319786071777,-0.01786522939801216,0.0017140472773462534,0.9989412426948547,-0.04236028715968132,[0. 0. 0. 0. 0. 0. 0. 0. 0.],-6.34765625,2.0751953125,2.197265625,[0. 0. 0. 0. 0. 0. 0. 0. 0.],-0.0458984375,-0.310546875,0.92578125,[0. 0. 0. 0. 0. 0. 0. 0. 0.]
4.700232982635498,-0.01753278635442257,-0.0004500152717810124,0.9989526271820068,-0.04226312413811684,[0. 0. 0. 0. 0. 0. 0. 0. 0.],-2.197265625,9.1552734375,3.90625,[0. 0. 0. 0. 0. 0. 0. 0. 0.],-0.0205078125,-0.28369140625,1.10400390625,[0. 0. 0. 0. 0. 0. 0. 0. 0.]
4.725094318389893,-0.01754601299762726,-0.002177896909415722,0.9989472031593323,-0.042330943048000336,[0. 0. 0. 0. 0. 0. 0. 0. 0.],4.39453125,3.0517578125,2.8076171875,[0. 0. 0. 0. 0. 0. 0. 0. 0.],-0.0419921875,-0.296875,1.03271484375,[0. 0. 0. 0. 0. 0. 0. 0. 0.]
4.740578889846802,-0.017196062952280045,-0.002875945996493101,0.9989577531814575,-0.042184796184301376,[0. 0. 0. 0. 0. 0. 0. 0. 0.],0.0,0.9765625,1.03759765625,[0. 0. 0. 0. 0. 0. 0. 0. 0.],-0.03515625,-0.1181640625,0.94921875,[0. 0. 0. 0. 0. 0. 0. 0. 0.]
4.760124683380127,-0.017716696485877037,-0.005738126114010811,0.9989272356033325,-0.04239967092871666,[0. 0. 0. 0. 0. 0. 0. 0. 0.],-5.7373046875,1.15966796875,-0.18310546875,[0. 0. 0. 0. 0. 0. 0. 0. 0.],-0.0263671875,-0.2607421875,0.9326171875,[0. 0. 0. 0. 0. 0. 0. 0. 0.]
4.780219554901123,-0.01778220571577549,-0.008236977271735668,0.9989044070243835,-0.04249775782227516,[0. 0. 0. 0. 0. 0. 0. 0. 0.],-3.41796875,1.64794921875,0.0,[0. 0. 0. 0. 0. 0. 0. 0. 0.],-0.025390625,-0.33203125,1.0185546875,[0. 0. 0. 0. 0. 0. 0. 0. 0.]
4.801313638687134,-0.018196869641542435,-0.01062802318483591,0.99886554479599,-0.042703449726104736,[0. 0. 0. 0. 0. 0. 0. 0. 0.],0.54931640625,3.84521484375,0.79345703125,[0. 0. 0. 0. 0. 0. 0. 0. 0.],-0.02001953125,-0.30419921875,0.986328125,[0. 0. 0. 0. 0. 0. 0. 0. 0.]
4.820422410964966,-0.018902488052845,-0.01204238086938858,0.9988275170326233,-0.042909909039735794,[0. 0. 0. 0. 0. 0. 0. 0. 0.],-0.67138671875,5.2490234375,1.28173828125,[0. 0. 0. 0. 0. 0. 0. 0. 0.],-0.02783203125,-0.29248046875,0.96435546875,[0. 0. 0. 0. 0. 0. 0. 0. 0.]
4.8409740924835205,-0.018701370805501938,-0.013608166947960854,0.9988047480583191,-0.043060507625341415,[0. 0. 0. 0. 0. 0. 0. 0. 0.],0.1220703125,-5.06591796875,1.0986328125,[0. 0. 0. 0. 0. 0. 0. 0. 0.],-0.0751953125,-0.2861328125,0.986328125,[0. 0. 0. 0. 0. 0. 0. 0. 0.]
4.860286474227905,-0.018281949684023857,-0.014875289052724838,0.9987866878509521,-0.04324013739824295,[0. 0. 0. 0. 0. 0. 0. 0. 0.],2.197265625,-4.08935546875,-1.03759765625,[0. 0. 0. 0. 0. 0. 0. 0. 0.],-0.0234375,-0.28369140625,1.07080078125,[0. 0. 0. 0. 0. 0. 0. 0. 0.]
4.88022255897522,-0.018335407599806786,-0.01643211394548416,0.9987513422966003,-0.04347050189971924,[0. 0. 0. 0. 0. 0. 0. 0. 0.],-2.38037109375,-1.77001953125,0.06103515625,[0. 0. 0. 0. 0. 0. 0. 0. 0.],-0.02490234375,-0.27294921875,1.00927734375,[0. 0. 0. 0. 0. 0. 0. 0. 0.]
4.900465965270996,-0.01821749284863472,-0.01790500245988369,0.9987168908119202,-0.04372715204954147,[0. 0. 0. 0. 0. 0. 0. 0. 0.],-0.30517578125,-4.21142578125,1.28173828125,[0. 0. 0. 0. 0. 0. 0. 0. 0.],-0.07177734375,-0.27490234375,0.974609375,[0. 0. 0. 0. 0. 0. 0. 0. 0.]
4.9203550815582275,-0.017737213522195816,-0.019597386941313744,0.9986783266067505,-0.044079456478357315,[0. 0. 0. 0. 0. 0. 0. 0. 0.],-1.03759765625,-2.62451171875,2.50244140625,[0. 0. 0. 0. 0. 0. 0. 0. 0.],-0.06298828125,-0.22509765625,0.9013671875,[0. 0. 0. 0. 0. 0. 0. 0. 0.]
4.93994665145874,-0.016922110691666603,-0.021369226276874542,0.9986466765403748,-0.04429319128394127,[0. 0. 0. 0. 0. 0. 0. 0. 0.],1.77001953125,4.638671875,2.38037109375,[0. 0. 0. 0. 0. 0. 0. 0. 0.],0.01904296875,-0.23876953125,1.04345703125,[0. 0. 0. 0. 0. 0. 0. 0. 0.]
4.96528172492981,-0.017135009169578552,-0.022164838388562202,0.9986377358436584,-0.04402177035808563,[0. 0. 0. 0. 0. 0. 0. 0. 0.],0.6103515625,12.0849609375,1.15966796875,[0. 0. 0. 0. 0. 0. 0. 0. 0.],0.00341796875,-0.19775390625,1.0546875,[0. 0. 0. 0. 0. 0. 0. 0. 0.]
4.981341600418091,-0.017490198835730553,-0.023351572453975677,0.9986151456832886,-0.04377890005707741,[0. 0. 0. 0. 0. 0. 0. 0. 0.],-2.0751953125,5.67626953125,0.1220703125,[0. 0. 0. 0. 0. 0. 0. 0. 0.],-0.0712890625,-0.20751953125,0.8955078125,[0. 0. 0. 0. 0. 0. 0. 0. 0.]
5.000427007675171,-0.018932655453681946,-0.025370556861162186,0.9985478520393372,-0.04359131678938866,[0. 0. 0. 0. 0. 0. 0. 0. 0.],0.244140625,-2.44140625,-3.60107421875,[0. 0. 0. 0. 0. 0. 0. 0. 0.],-0.146484375,-0.19677734375,0.90771484375,[0. 0. 0. 0. 0. 0. 0. 0. 0.]
5.021603584289551,-0.01954634115099907,-0.028184296563267708,0.9985380172729492,-0.04177882522344589,[0. 0. 0. 0. 0. 0. 0. 0. 0.],-7.4462890625,-5.67626953125,-16.29638671875,[0. 0. 0. 0. 0. 0. 0. 0. 0.],-0.12451171875,-0.20703125,0.90576171875,[0. 0. 0. 0. 0. 0. 0. 0. 0.]
5.041352987289429,-0.02025517076253891,-0.031074322760105133,0.9986390471458435,-0.03666286543011665,[0. 0. 0. 0. 0. 0. 0. 0. 0.],2.99072265625,3.7841796875,-27.64892578125,[0. 0. 0. 0. 0. 0. 0. 0. 0.],-0.11767578125,-0.26708984375,1.09375,[0. 0. 0. 0. 0. 0. 0. 0. 0.]
5.060110092163086,-0.021612323820590973,-0.03156602755188942,0.9987361431121826,-0.032597534358501434,[0. 0. 0. 0. 0. 0. 0. 0. 0.],3.41796875,6.04248046875,-33.38623046875,[0. 0. 0. 0. 0. 0. 0. 0. 0.],-0.16162109375,-0.19970703125,1.1142578125,[0. 0. 0. 0. 0. 0. 0. 0. 0.]
5.080134630203247,-0.024112170562148094,-0.03164741024374962,0.998872697353363,-0.025895649567246437,[0. 0. 0. 0. 0. 0. 0. 0. 0.],4.39453125,2.99072265625,-42.48046875,[0. 0. 0. 0. 0. 0. 0. 0. 0.],-0.20556640625,-0.1201171875,0.9921875,[0. 0. 0. 0. 0. 0. 0. 0. 0.]
5.100692510604858,-0.0249659214168787,-0.03190437704324722,0.9990245699882507,-0.017574677243828773,[0. 0. 0. 0. 0. 0. 0. 0. 0.],0.732421875,0.30517578125,-52.06298828125,[0. 0. 0. 0. 0. 0. 0. 0. 0.],-0.20751953125,-0.11376953125,0.89892578125,[0. 0. 0. 0. 0. 0. 0. 0. 0.]
5.119894742965698,-0.027097826823592186,-0.032622791826725006,0.9990736246109009,-0.007299001794308424,[0. 0. 0. 0. 0. 0. 0. 0. 0.],7.8125,14.95361328125,-61.46240234375,[0. 0. 0. 0. 0. 0. 0. 0. 0.],-0.04931640625,-0.12255859375,1.1328125,[0. 0. 0. 0. 0. 0. 0. 0. 0.]
5.140071868896484,-0.030670469626784325,-0.03279980644583702,0.9989847540855408,0.0036171923857182264,[0. 0. 0. 0. 0. 0. 0. 0. 0.],2.38037109375,16.357421875,-62.5,[0. 0. 0. 0. 0. 0. 0. 0. 0.],-0.19384765625,-0.09033203125,0.95361328125,[0. 0. 0. 0. 0. 0. 0. 0. 0.]
5.1602067947387695,-0.033531371504068375,-0.03293931484222412,0.9987859129905701,0.014742441475391388,[0. 0. 0. 0. 0. 0. 0. 0. 0.],2.3193359375,-2.38037109375,-64.0869140625,[0. 0. 0. 0. 0. 0. 0. 0. 0.],-0.29248046875,-0.09716796875,0.92333984375,[0. 0. 0. 0. 0. 0. 0. 0. 0.]
5.18009614944458,-0.03429628163576126,-0.0335833914577961,0.9985083937644958,0.026018492877483368,[0. 0. 0. 0. 0. 0. 0. 0. 0.],5.126953125,0.8544921875,-65.12451171875,[0. 0. 0. 0. 0. 0. 0. 0. 0.],-0.22802734375,-0.2001953125,1.03466796875,[0. 0. 0. 0. 0. 0. 0. 0. 0.]
5.199932336807251,-0.03485817462205887,-0.0340798981487751,0.9981238842010498,0.03704302757978439,[0. 0. 0. 0. 0. 0. 0. 0. 0.],5.615234375,-8.4228515625,-59.814453125,[0. 0. 0. 0. 0. 0. 0. 0. 0.],-0.23193359375,-0.1748046875,1.02685546875,[0. 0. 0. 0. 0. 0. 0. 0. 0.]
5.2175822257995605,-0.03433338552713394,-0.03436791151762009,0.997604250907898,0.04925385117530823,[0. 0. 0. 0. 0. 0. 0. 0. 0.],6.103515625,-0.1220703125,-54.62646484375,[0. 0. 0. 0. 0. 0. 0. 0. 0.],-0.06494140625,-0.1669921875,1.02685546875,[0. 0. 0. 0. 0. 0. 0. 0. 0.]
5.235196352005005,-0.03391779214143753,-0.03543546423316002,0.9972246289253235,0.05600844323635101,[0. 0. 0. 0. 0. 0. 0. 0. 0.],-1.708984375,2.197265625,-47.7294921875,[0. 0. 0. 0. 0. 0. 0. 0. 0.],-0.04736328125,-0.19970703125,0.9501953125,[0. 0. 0. 0. 0. 0. 0. 0. 0.]
5.261049509048462,-0.03372565656900406,-0.036847542971372604,0.9967929124832153,0.06251987814903259,[0. 0. 0. 0. 0. 0. 0. 0. 0.],6.53076171875,-9.58251953125,-31.06689453125,[0. 0. 0. 0. 0. 0. 0. 0. 0.],-0.16845703125,-0.2529296875,0.9384765625,[0. 0. 0. 0. 0. 0. 0. 0. 0.]
5.275205373764038,-0.032648954540491104,-0.0388861708343029,0.9965088367462158,0.06627313047647476,[0. 0. 0. 0. 0. 0. 0. 0. 0.],-8.11767578125,-5.79833984375,-16.4794921875,[0. 0. 0. 0. 0. 0. 0. 0. 0.],-0.0947265625,-0.17236328125,0.873046875,[0. 0. 0. 0. 0. 0. 0. 0. 0.]
5.302398204803467,-0.03146471828222275,-0.04160579666495323,0.9963201284408569,0.06800941377878189,[0. 0. 0. 0. 0. 0. 0. 0. 0.],-2.44140625,-5.0048828125,-5.859375,[0. 0. 0. 0. 0. 0. 0. 0. 0.],-0.01611328125,-0.2607421875,1.10205078125,[0. 0. 0. 0. 0. 0. 0. 0. 0.]
5.315683603286743,-0.029899070039391518,-0.041997477412223816,0.9963046312332153,0.0686970204114914,[0. 0. 0. 0. 0. 0. 0. 0. 0.],7.8125,-9.6435546875,-2.86865234375,[0. 0. 0. 0. 0. 0. 0. 0. 0.],-0.01025390625,-0.17578125,1.08544921875,[0. 0. 0. 0. 0. 0. 0. 0. 0.]
5.340606451034546,-0.028534889221191406,-0.04276697337627411,0.9962677359580994,0.06933601200580597,[0. 0. 0. 0. 0. 0. 0. 0. 0.],-4.0283203125,9.09423828125,-4.21142578125,[0. 0. 0. 0. 0. 0. 0. 0. 0.],0.09814453125,-0.08935546875,0.9912109375,[0. 0. 0. 0. 0. 0. 0. 0. 0.]
5.3568713665008545,-0.027744555845856667,-0.043239276856184006,0.9961806535720825,0.07060248404741287,[0. 0. 0. 0. 0. 0. 0. 0. 0.],1.77001953125,11.962890625,-7.01904296875,[0. 0. 0. 0. 0. 0. 0. 0. 0.],0.0419921875,-0.13037109375,0.974609375,[0. 0. 0. 0. 0. 0. 0. 0. 0.]
5.381357192993164,-0.028086146339774132,-0.0437648706138134,0.9960642457008362,0.07177581638097763,[0. 0. 0. 0. 0. 0. 0. 0. 0.],2.9296875,0.42724609375,-6.04248046875,[0. 0. 0. 0. 0. 0. 0. 0. 0.],-0.07177734375,-0.1064453125,1.03759765625,[0. 0. 0. 0. 0. 0. 0. 0. 0.]
5.402682781219482,-0.029283400624990463,-0.04283362627029419,0.9959871768951416,0.07292012125253677,[0. 0. 0. 0. 0. 0. 0. 0. 0.],-1.708984375,-0.67138671875,-6.9580078125,[0. 0. 0. 0. 0. 0. 0. 0. 0.],-0.0751953125,-0.07177734375,1.02490234375,[0. 0. 0. 0. 0. 0. 0. 0. 0.]
5.417538404464722,-0.0295330248773098,-0.042407259345054626,0.9959318041801453,0.07381995767354965,[0. 0. 0. 0. 0. 0. 0. 0. 0.],-0.3662109375,-4.08935546875,-6.89697265625,[0. 0. 0. 0. 0. 0. 0. 0. 0.],-0.080078125,-0.0732421875,0.95947265625,[0. 0. 0. 0. 0. 0. 0. 0. 0.]
5.442223310470581,-0.02857743203639984,-0.041972506791353226,0.9958423972129822,0.07562878727912903,[0. 0. 0. 0. 0. 0. 0. 0. 0.],3.72314453125,1.52587890625,-10.55908203125,[0. 0. 0. 0. 0. 0. 0. 0. 0.],0.00390625,-0.095703125,1.05712890625,[0. 0. 0. 0. 0. 0. 0. 0. 0.]
5.460413455963135,-0.028080526739358902,-0.04107276350259781,0.9957676529884338,0.0772748813033104,[0. 0. 0. 0. 0. 0. 0. 0. 0.],0.9765625,-5.2490234375,-10.80322265625,[0. 0. 0. 0. 0. 0. 0. 0. 0.],-0.0966796875,-0.05908203125,0.94873046875,[0. 0. 0. 0. 0. 0. 0. 0. 0.]
5.480034112930298,-0.029018592089414597,-0.03998355567455292,0.995675265789032,0.07867758721113205,[0. 0. 0. 0. 0. 0. 0. 0. 0.],-1.8310546875,-5.37109375,-8.544921875,[0. 0. 0. 0. 0. 0. 0. 0. 0.],-0.0888671875,-0.03466796875,0.85888671875,[0. 0. 0. 0. 0. 0. 0. 0. 0.]
5.502472639083862,-0.028240464627742767,-0.040171172469854355,0.9955941438674927,0.07988163083791733,[0. 0. 0. 0. 0. 0. 0. 0. 0.],-6.40869140625,-12.5732421875,-6.8359375,[0. 0. 0. 0. 0. 0. 0. 0. 0.],-0.13623046875,-0.02490234375,1.00830078125,[0. 0. 0. 0. 0. 0. 0. 0. 0.]
5.520181655883789,-0.02772701345384121,-0.03942210227251053,0.9955359101295471,0.0811510756611824,[0. 0. 0. 0. 0. 0. 0. 0. 0.],0.732421875,-0.3662109375,-6.4697265625,[0. 0. 0. 0. 0. 0. 0. 0. 0.],-0.02783203125,-0.06005859375,1.10791015625,[0. 0. 0. 0. 0. 0. 0. 0. 0.]
5.542234182357788,-0.027320269495248795,-0.037302758544683456,0.9955065846443176,0.08263703435659409,[0. 0. 0. 0. 0. 0. 0. 0. 0.],1.15966796875,12.02392578125,-9.765625,[0. 0. 0. 0. 0. 0. 0. 0. 0.],0.00927734375,-0.02783203125,1.095703125,[0. 0. 0. 0. 0. 0. 0. 0. 0.]
5.560239791870117,-0.027340900152921677,-0.035972364246845245,0.9954137802124023,0.08432034403085709,[0. 0. 0. 0. 0. 0. 0. 0. 0.],-0.6103515625,0.3662109375,-10.498046875,[0. 0. 0. 0. 0. 0. 0. 0. 0.],-0.06787109375,0.005859375,0.9501953125,[0. 0. 0. 0. 0. 0. 0. 0. 0.]
5.580407619476318,-0.027130572125315666,-0.03304160758852959,0.995388925075531,0.08586675673723221,[0. 0. 0. 0. 0. 0. 0. 0. 0.],10.6201171875,2.44140625,-9.33837890625,[0. 0. 0. 0. 0. 0. 0. 0. 0.],-0.03955078125,-0.04296875,1.072265625,[0. 0. 0. 0. 0. 0. 0. 0. 0.]
5.600346088409424,-0.026858286932110786,-0.031282808631658554,0.9953096508979797,0.08751469105482101,[0. 0. 0. 0. 0. 0. 0. 0. 0.],-2.13623046875,0.18310546875,-9.6435546875,[0. 0. 0. 0. 0. 0. 0. 0. 0.],-0.05712890625,0.02734375,0.96728515625,[0. 0. 0. 0. 0. 0. 0. 0. 0.]
5.620378017425537,-0.027626559138298035,-0.029941273853182793,0.9952004551887512,0.08897469192743301,[0. 0. 0. 0. 0. 0. 0. 0. 0.],-0.18310546875,9.8876953125,-10.1318359375,[0. 0. 0. 0. 0. 0. 0. 0. 0.],-0.05810546875,-0.00341796875,1.00244140625,[0. 0. 0. 0. 0. 0. 0. 0. 0.]
5.640235424041748,-0.029180806130170822,-0.027738526463508606,0.994997501373291,0.09142846614122391,[0. 0. 0. 0. 0. 0. 0. 0. 0.],8.6669921875,3.47900390625,-16.6015625,[0. 0. 0. 0. 0. 0. 0. 0. 0.],-0.12646484375,-0.01416015625,1.07861328125,[0. 0. 0. 0. 0. 0. 0. 0. 0.]
5.655193090438843,-0.031664956361055374,-0.02569391019642353,0.9945740103721619,0.095707468688488,[0. 0. 0. 0. 0. 0. 0. 0. 0.],4.7607421875,14.95361328125,-28.25927734375,[0. 0. 0. 0. 0. 0. 0. 0. 0.],-0.177734375,0.0400390625,0.9072265625,[0. 0. 0. 0. 0. 0. 0. 0. 0.]
5.682126760482788,-0.03369409590959549,-0.0234039518982172,0.9936215877532959,0.10503878444433212,[0. 0. 0. 0. 0. 0. 0. 0. 0.],1.220703125,2.3193359375,-49.37744140625,[0. 0. 0. 0. 0. 0. 0. 0. 0.],-0.2607421875,0.08203125,1.00439453125,[0. 0. 0. 0. 0. 0. 0. 0. 0.]
5.7008891105651855,-0.03601349517703056,-0.022350167855620384,0.992762565612793,0.11236636340618134,[0. 0. 0. 0. 0. 0. 0. 0. 0.],-0.79345703125,21.484375,-60.36376953125,[0. 0. 0. 0. 0. 0. 0. 0. 0.],-0.13818359375,0.0810546875,1.04150390625,[0. 0. 0. 0. 0. 0. 0. 0. 0.]
5.721763849258423,-0.039074428379535675,-0.02062360756099224,0.9912846684455872,0.1241074949502945,[0. 0. 0. 0. 0. 0. 0. 0. 0.],5.7373046875,13.12255859375,-72.69287109375,[0. 0. 0. 0. 0. 0. 0. 0. 0.],-0.24462890625,0.06787109375,1.03759765625,[0. 0. 0. 0. 0. 0. 0. 0. 0.]
5.735510349273682,-0.042521219700574875,-0.01868392340838909,0.9892948865890503,0.13834208250045776,[0. 0. 0. 0. 0. 0. 0. 0. 0.],1.64794921875,17.9443359375,-86.669921875,[0. 0. 0. 0. 0. 0. 0. 0. 0.],-0.197265625,0.0947265625,0.9990234375,[0. 0. 0. 0. 0. 0. 0. 0. 0.]
5.760262727737427,-0.04377801716327667,-0.016798721626400948,0.9868795275688171,0.15449976921081543,[0. 0. 0. 0. 0. 0. 0. 0. 0.],15.07568359375,-8.85009765625,-99.7314453125,[0. 0. 0. 0. 0. 0. 0. 0. 0.],-0.3466796875,0.06640625,1.0380859375,[0. 0. 0. 0. 0. 0. 0. 0. 0.]
5.7762792110443115,-0.04457051306962967,-0.014233946800231934,0.9838692545890808,0.17266257107257843,[0. 0. 0. 0. 0. 0. 0. 0. 0.],9.09423828125,17.333984375,-109.55810546875,[0. 0. 0. 0. 0. 0. 0. 0. 0.],-0.21044921875,0.17626953125,0.98291015625,[0. 0. 0. 0. 0. 0. 0. 0. 0.]
5.796555280685425,-0.04771599546074867,-0.012935630977153778,0.9801291227340698,0.19210098683834076,[0. 0. 0. 0. 0. 0. 0. 0. 0.],-0.54931640625,9.46044921875,-115.90576171875,[0. 0. 0. 0. 0. 0. 0. 0. 0.],-0.3583984375,0.16845703125,0.9248046875,[0. 0. 0. 0. 0. 0. 0. 0. 0.]
5.8203675746917725,-0.04843613877892494,-0.012585503980517387,0.9760096073150635,0.21189779043197632,[0. 0. 0. 0. 0. 0. 0. 0. 0.],6.53076171875,0.0,-117.1875,[0. 0. 0. 0. 0. 0. 0. 0. 0.],-0.45947265625,0.087890625,1.05517578125,[0. 0. 0. 0. 0. 0. 0. 0. 0.]
5.839446306228638,-0.05127018317580223,-0.010314173996448517,0.971464216709137,0.23134897649288177,[0. 0. 0. 0. 0. 0. 0. 0. 0.],13.36669921875,9.21630859375,-112.79296875,[0. 0. 0. 0. 0. 0. 0. 0. 0.],-0.37646484375,0.0634765625,1.02587890625,[0. 0. 0. 0. 0. 0. 0. 0. 0.]
5.8570356369018555,-0.049990806728601456,-0.009410370141267776,0.9655023217201233,0.2553773820400238,[0. 0. 0. 0. 0. 0. 0. 0. 0.],3.90625,-6.103515625,-113.037109375,[0. 0. 0. 0. 0. 0. 0. 0. 0.],-0.4619140625,0.14794921875,0.8642578125,[0. 0. 0. 0. 0. 0. 0. 0. 0.]
5.880382061004639,-0.05149799585342407,-0.008736666291952133,0.9615892767906189,0.2694767415523529,[0. 0. 0. 0. 0. 0. 0. 0. 0.],3.5400390625,11.04736328125,-111.51123046875,[0. 0. 0. 0. 0. 0. 0. 0. 0.],-0.34619140625,0.11669921875,0.88671875,[0. 0. 0. 0. 0. 0. 0. 0. 0.]
5.900498151779175,-0.05236782878637314,-0.00851841364055872,0.9561594128608704,0.2880003750324249,[0. 0. 0. 0. 0. 0. 0. 0. 0.],0.79345703125,-5.37109375,-110.83984375,[0. 0. 0. 0. 0. 0. 0. 0. 0.],-0.453125,0.0966796875,0.98974609375,[0. 0. 0. 0. 0. 0. 0. 0. 0.]
5.920225143432617,-0.054023128002882004,-0.008248476311564445,0.9504733085632324,0.3059638738632202,[0. 0. 0. 0. 0. 0. 0. 0. 0.],-2.197265625,10.19287109375,-105.77392578125,[0. 0. 0. 0. 0. 0. 0. 0. 0.],-0.35546875,0.08984375,1.025390625,[0. 0. 0. 0. 0. 0. 0. 0. 0.]
5.940779685974121,-0.05347573384642601,-0.008030801080167294,0.9449729323387146,0.322648286819458,[0. 0. 0. 0. 0. 0. 0. 0. 0.],7.14111328125,-18.9208984375,-99.06005859375,[0. 0. 0. 0. 0. 0. 0. 0. 0.],-0.44189453125,0.02001953125,1.103515625,[0. 0. 0. 0. 0. 0. 0. 0. 0.]
5.9552836418151855,-0.05335400626063347,-0.007211579009890556,0.9397054314613342,0.3377206027507782,[0. 0. 0. 0. 0. 0. 0. 0. 0.],6.9580078125,2.9296875,-88.5009765625,[0. 0. 0. 0. 0. 0. 0. 0. 0.],-0.23779296875,0.04541015625,1.13671875,[0. 0. 0. 0. 0. 0. 0. 0. 0.]
5.980374336242676,-0.05307596176862717,-0.006103626452386379,0.9348399639129639,0.3510269820690155,[0. 0. 0. 0. 0. 0. 0. 0. 0.],5.7373046875,-11.16943359375,-77.7587890625,[0. 0. 0. 0. 0. 0. 0. 0. 0.],-0.26953125,0.02001953125,1.01171875,[0. 0. 0. 0. 0. 0. 0. 0. 0.]
5.995531320571899,-0.050921451300382614,-0.005584243685007095,0.9308064579963684,0.36190491914749146,[0. 0. 0. 0. 0. 0. 0. 0. 0.],8.1787109375,-15.80810546875,-58.7158203125,[0. 0. 0. 0. 0. 0. 0. 0. 0.],-0.26123046875,0.001953125,0.94189453125,[0. 0. 0. 0. 0. 0. 0. 0. 0.]
6.021742105484009,-0.05045432597398758,-0.0033059348352253437,0.9272255897521973,0.37107452750205994,[0. 0. 0. 0. 0. 0. 0. 0. 0.],4.638671875,1.8310546875,-35.70556640625,[0. 0. 0. 0. 0. 0. 0. 0. 0.],-0.083984375,0.0185546875,0.958984375,[0. 0. 0. 0. 0. 0. 0. 0. 0.]
6.040683746337891,-0.04926739260554314,-0.0027515001129359007,0.92583167552948,0.37470120191574097,[0. 0. 0. 0. 0. 0. 0. 0. 0.],-1.89208984375,-17.08984375,-26.9775390625,[0. 0. 0. 0. 0. 0. 0. 0. 0.],-0.1962890625,0.04833984375,0.912109375,[0. 0. 0. 0. 0. 0. 0. 0. 0.]
6.061100006103516,-0.04835890978574753,-0.0012577541638165712,0.9242867827415466,0.37862110137939453,[0. 0. 0. 0. 0. 0. 0. 0. 0.],2.86865234375,9.1552734375,-15.9912109375,[0. 0. 0. 0. 0. 0. 0. 0. 0.],-0.029296875,0.021484375,1.1025390625,[0. 0. 0. 0. 0. 0. 0. 0. 0.]
6.080155611038208,-0.047263022512197495,0.0004524350515566766,0.9236690402030945,0.38026508688926697,[0. 0. 0. 0. 0. 0. 0. 0. 0.],8.11767578125,-7.50732421875,-12.75634765625,[0. 0. 0. 0. 0. 0. 0. 0. 0.],-0.1171875,0.009765625,1.005859375,[0. 0. 0. 0. 0. 0. 0. 0. 0.]
6.100183725357056,-0.04607820883393288,0.0010942812077701092,0.9231041669845581,0.381777822971344,[0. 0. 0. 0. 0. 0. 0. 0. 0.],-5.7373046875,-8.056640625,-9.6435546875,[0. 0. 0. 0. 0. 0. 0. 0. 0.],-0.13330078125,0.0849609375,0.8115234375,[0. 0. 0. 0. 0. 0. 0. 0. 0.]
6.120442628860474,-0.04635118320584297,0.0009172549471259117,0.9224672317504883,0.38328197598457336,[0. 0. 0. 0. 0. 0. 0. 0. 0.],-8.4228515625,8.30078125,-9.46044921875,[0. 0. 0. 0. 0. 0. 0. 0. 0.],-0.0517578125,0.06005859375,0.95556640625,[0. 0. 0. 0. 0. 0. 0. 0. 0.]
6.140039443969727,-0.04635811969637871,0.0012850331841036677,0.9219309687614441,0.38456812500953674,[0. 0. 0. 0. 0. 0. 0. 0. 0.],-1.953125,-7.568359375,-7.080078125,[0. 0. 0. 0. 0. 0. 0. 0. 0.],-0.17578125,-0.05810546875,1.10595703125,[0. 0. 0. 0. 0. 0. 0. 0. 0.]
6.1602442264556885,-0.046870388090610504,-0.0009089412051253021,0.921479344367981,0.3855883479118347,[0. 0. 0. 0. 0. 0. 0. 0. 0.],-5.126953125,-11.29150390625,-6.591796875,[0. 0. 0. 0. 0. 0. 0. 0. 0.],-0.1328125,-0.10888671875,1.0439453125,[0. 0. 0. 0. 0. 0. 0. 0. 0.]
6.180354833602905,-0.04628187045454979,-0.002214820357039571,0.9209632277488708,0.3868847191333771,[0. 0. 0. 0. 0. 0. 0. 0. 0.],3.662109375,0.91552734375,-8.11767578125,[0. 0. 0. 0. 0. 0. 0. 0. 0.],0.0029296875,-0.08447265625,1.15771484375,[0. 0. 0. 0. 0. 0. 0. 0. 0.]
6.200502634048462,-0.04594830796122551,-0.0031769501511007547,0.9205493330955505,0.3879016041755676,[0. 0. 0. 0. 0. 0. 0. 0. 0.],-0.732421875,-11.23046875,-6.04248046875,[0. 0. 0. 0. 0. 0. 0. 0. 0.],-0.12939453125,-0.083984375,0.92333984375,[0. 0. 0. 0. 0. 0. 0. 0. 0.]
6.220466613769531,-0.04633186012506485,-0.005607124883681536,0.9201120734214783,0.38886457681655884,[0. 0. 0. 0. 0. 0. 0. 0. 0.],-8.1787109375,8.4228515625,-5.06591796875,[0. 0. 0. 0. 0. 0. 0. 0. 0.],0.00732421875,-0.1806640625,0.8798828125,[0. 0. 0. 0. 0. 0. 0. 0. 0.]
6.240218877792358,-0.04738602414727211,-0.008412759751081467,0.9197323322296143,0.3895849287509918,[0. 0. 0. 0. 0. 0. 0. 0. 0.],-8.30078125,-15.07568359375,-2.38037109375,[0. 0. 0. 0. 0. 0. 0. 0. 0.],-0.11376953125,-0.21826171875,0.93701171875,[0. 0. 0. 0. 0. 0. 0. 0. 0.]
6.260580062866211,-0.04543539509177208,-0.012685118243098259,0.9203582406044006,0.38822096586227417,[0. 0. 0. 0. 0. 0. 0. 0. 0.],-6.89697265625,-19.10400390625,13.73291015625,[0. 0. 0. 0. 0. 0. 0. 0. 0.],-0.0703125,-0.2685546875,1.048828125,[0. 0. 0. 0. 0. 0. 0. 0. 0.]
6.2802770137786865,-0.043267231434583664,-0.017110463231801987,0.9225510358810425,0.3830597400665283,[0. 0. 0. 0. 0. 0. 0. 0. 0.],-4.45556640625,-19.8974609375,34.7900390625,[0. 0. 0. 0. 0. 0. 0. 0. 0.],0.06005859375,-0.228515625,0.9130859375,[0. 0. 0. 0. 0. 0. 0. 0. 0.]
6.301934480667114,-0.04233267158269882,-0.020453691482543945,0.9248054623603821,0.377524197101593,[0. 0. 0. 0. 0. 0. 0. 0. 0.],-15.13671875,-11.04736328125,51.08642578125,[0. 0. 0. 0. 0. 0. 0. 0. 0.],0.02099609375,-0.216796875,0.8740234375,[0. 0. 0. 0. 0. 0. 0. 0. 0.]
6.31768798828125,-0.03894985094666481,-0.024341676384210587,0.9286651015281677,0.3680647313594818,[0. 0. 0. 0. 0. 0. 0. 0. 0.],-5.43212890625,-19.95849609375,64.75830078125,[0. 0. 0. 0. 0. 0. 0. 0. 0.],0.10888671875,-0.2861328125,1.08984375,[0. 0. 0. 0. 0. 0. 0. 0. 0.]
6.340939044952393,-0.03695736825466156,-0.026636824011802673,0.93342125415802,0.3558782637119293,[0. 0. 0. 0. 0. 0. 0. 0. 0.],-3.41796875,-5.37109375,80.9326171875,[0. 0. 0. 0. 0. 0. 0. 0. 0.],0.20166015625,-0.283203125,1.12841796875,[0. 0. 0. 0. 0. 0. 0. 0. 0.]
6.360444784164429,-0.03450443595647812,-0.028391560539603233,0.9404265880584717,0.3370477557182312,[0. 0. 0. 0. 0. 0. 0. 0. 0.],0.91552734375,-3.5400390625,101.62353515625,[0. 0. 0. 0. 0. 0. 0. 0. 0.],0.19091796875,-0.26220703125,1.05712890625,[0. 0. 0. 0. 0. 0. 0. 0. 0.]
6.380264043807983,-0.0333709679543972,-0.02961522899568081,0.9449906945228577,0.324040025472641,[0. 0. 0. 0. 0. 0. 0. 0. 0.],1.89208984375,-25.2685546875,106.50634765625,[0. 0. 0. 0. 0. 0. 0. 0. 0.],0.16162109375,-0.26025390625,0.97314453125,[0. 0. 0. 0. 0. 0. 0. 0. 0.]
6.395740747451782,-0.031059080734848976,-0.030316496267914772,0.9515113830566406,0.30453652143478394,[0. 0. 0. 0. 0. 0. 0. 0. 0.],-1.3427734375,1.28173828125,124.08447265625,[0. 0. 0. 0. 0. 0. 0. 0. 0.],0.240234375,-0.24267578125,1.01123046875,[0. 0. 0. 0. 0. 0. 0. 0. 0.]
6.4203972816467285,-0.030430123209953308,-0.0315835140645504,0.9581628441810608,0.282843679189682,[0. 0. 0. 0. 0. 0. 0. 0. 0.],-8.11767578125,-9.70458984375,133.72802734375,[0. 0. 0. 0. 0. 0. 0. 0. 0.],0.16796875,-0.16748046875,0.7607421875,[0. 0. 0. 0. 0. 0. 0. 0. 0.]
6.440551519393921,-0.024841539561748505,-0.034610677510499954,0.9648462533950806,0.25933924317359924,[0. 0. 0. 0. 0. 0. 0. 0. 0.],-2.99072265625,-38.4521484375,142.822265625,[0. 0. 0. 0. 0. 0. 0. 0. 0.],0.1455078125,-0.27685546875,0.95556640625,[0. 0. 0. 0. 0. 0. 0. 0. 0.]
6.460120677947998,-0.022953353822231293,-0.03617139533162117,0.9712375402450562,0.23422761261463165,[0. 0. 0. 0. 0. 0. 0. 0. 0.],-1.0986328125,1.52587890625,150.0244140625,[0. 0. 0. 0. 0. 0. 0. 0. 0.],0.47119140625,-0.32421875,1.18212890625,[0. 0. 0. 0. 0. 0. 0. 0. 0.]
6.480534791946411,-0.021447114646434784,-0.03532029315829277,0.9772952795028687,0.2078133374452591,[0. 0. 0. 0. 0. 0. 0. 0. 0.],7.87353515625,-18.9208984375,155.33447265625,[0. 0. 0. 0. 0. 0. 0. 0. 0.],0.30224609375,-0.3056640625,1.09814453125,[0. 0. 0. 0. 0. 0. 0. 0. 0.]
6.500460147857666,-0.018939457833766937,-0.03544826805591583,0.9828684329986572,0.17987337708473206,[0. 0. 0. 0. 0. 0. 0. 0. 0.],2.685546875,-3.35693359375,165.46630859375,[0. 0. 0. 0. 0. 0. 0. 0. 0.],0.33447265625,-0.25244140625,0.96630859375,[0. 0. 0. 0. 0. 0. 0. 0. 0.]
6.520296335220337,-0.01862838678061962,-0.03605044633150101,0.9878265857696533,0.15017342567443848,[0. 0. 0. 0. 0. 0. 0. 0. 0.],-2.0751953125,-29.72412109375,173.64501953125,[0. 0. 0. 0. 0. 0. 0. 0. 0.],0.193359375,-0.22509765625,0.78955078125,[0. 0. 0. 0. 0. 0. 0. 0. 0.]
6.54007887840271,-0.011881430633366108,-0.03810799494385719,0.9920597672462463,0.11926496028900146,[0. 0. 0. 0. 0. 0. 0. 0. 0.],-5.126953125,-19.22607421875,183.59375,[0. 0. 0. 0. 0. 0. 0. 0. 0.],0.32421875,-0.2939453125,0.91552734375,[0. 0. 0. 0. 0. 0. 0. 0. 0.]
6.5606749057769775,-0.011525962501764297,-0.0386638306081295,0.9953379034996033,0.08760607242584229,[0. 0. 0. 0. 0. 0. 0. 0. 0.],2.50244140625,-2.44140625,180.7861328125,[0. 0. 0. 0. 0. 0. 0. 0. 0.],0.5439453125,-0.373046875,1.19384765625,[0. 0. 0. 0. 0. 0. 0. 0. 0.]
6.580507278442383,-0.008110623806715012,-0.03695801645517349,0.9977341294288635,0.05563284829258919,[0. 0. 0. 0. 0. 0. 0. 0. 0.],19.6533203125,-24.658203125,184.14306640625,[0. 0. 0. 0. 0. 0. 0. 0. 0.],0.35595703125,-0.34765625,1.0751953125,[0. 0. 0. 0. 0. 0. 0. 0. 0.]
6.600384473800659,-0.007956629619002342,-0.03581273928284645,0.9990794062614441,0.022238878533244133,[0. 0. 0. 0. 0. 0. 0. 0. 0.],13.36669921875,-29.1748046875,192.3828125,[0. 0. 0. 0. 0. 0. 0. 0. 0.],0.283203125,-0.25146484375,0.8212890625,[0. 0. 0. 0. 0. 0. 0. 0. 0.]
6.623309850692749,-0.0013654453214257956,-0.036913152784109116,0.9992412328720093,-0.012350370176136494,[0. 0. 0. 0. 0. 0. 0. 0. 0.],-6.2255859375,-26.06201171875,201.59912109375,[0. 0. 0. 0. 0. 0. 0. 0. 0.],0.28369140625,-0.23876953125,0.76123046875,[0. 0. 0. 0. 0. 0. 0. 0. 0.]
6.640311002731323,-0.0014558176044374704,-0.03774626925587654,0.9981417655944824,-0.047815605998039246,[0. 0. 0. 0. 0. 0. 0. 0. 0.],3.11279296875,6.40869140625,204.7119140625,[0. 0. 0. 0. 0. 0. 0. 0. 0.],0.5712890625,-0.400390625,1.181640625,[0. 0. 0. 0. 0. 0. 0. 0. 0.]
6.6552557945251465,0.00012833041546400636,-0.035575661808252335,0.9958747625350952,-0.08347372710704803,[0. 0. 0. 0. 0. 0. 0. 0. 0.],14.16015625,-11.65771484375,207.70263671875,[0. 0. 0. 0. 0. 0. 0. 0. 0.],0.3955078125,-0.37109375,1.03955078125,[0. 0. 0. 0. 0. 0. 0. 0. 0.]
6.680518388748169,0.0012067408533766866,-0.03400050103664398,0.9922557473182678,-0.1194612979888916,[0. 0. 0. 0. 0. 0. 0. 0. 0.],11.41357421875,-17.02880859375,207.275390625,[0. 0. 0. 0. 0. 0. 0. 0. 0.],0.4267578125,-0.31298828125,0.9541015625,[0. 0. 0. 0. 0. 0. 0. 0. 0.]
6.703253746032715,0.00581082608550787,-0.03298231214284897,0.9871939420700073,-0.15596960484981537,[0. 0. 0. 0. 0. 0. 0. 0. 0.],3.41796875,-30.33447265625,212.34130859375,[0. 0. 0. 0. 0. 0. 0. 0. 0.],0.3056640625,-0.2900390625,0.7998046875,[0. 0. 0. 0. 0. 0. 0. 0. 0.]
6.722157955169678,0.005820809863507748,-0.03198147937655449,0.9788311123847961,-0.20207148790359497,[0. 0. 0. 0. 0. 0. 0. 0. 0.],9.33837890625,6.7138671875,213.19580078125,[0. 0. 0. 0. 0. 0. 0. 0. 0.],0.66162109375,-0.345703125,1.01806640625,[0. 0. 0. 0. 0. 0. 0. 0. 0.]
6.742884874343872,0.008109425194561481,-0.030122818425297737,0.9731109142303467,-0.22821466624736786,[0. 0. 0. 0. 0. 0. 0. 0. 0.],15.869140625,-22.52197265625,200.74462890625,[0. 0. 0. 0. 0. 0. 0. 0. 0.],0.6689453125,-0.3583984375,1.0078125,[0. 0. 0. 0. 0. 0. 0. 0. 0.]
6.757477760314941,0.011768702417612076,-0.027737131342291832,0.9626383185386658,-0.2691090703010559,[0. 0. 0. 0. 0. 0. 0. 0. 0.],7.01904296875,-20.08056640625,184.08203125,[0. 0. 0. 0. 0. 0. 0. 0. 0.],0.73095703125,-0.15869140625,0.81787109375,[0. 0. 0. 0. 0. 0. 0. 0. 0.]
6.783886432647705,0.01122606173157692,-0.027312202379107475,0.9536563158035278,-0.2994455099105835,[0. 0. 0. 0. 0. 0. 0. 0. 0.],0.30517578125,14.7705078125,179.443359375,[0. 0. 0. 0. 0. 0. 0. 0. 0.],0.7119140625,-0.154296875,0.82421875,[0. 0. 0. 0. 0. 0. 0. 0. 0.]
6.80088472366333,0.011936760507524014,-0.02583199366927147,0.9467803239822388,-0.3206203579902649,[0. 0. 0. 0. 0. 0. 0. 0. 0.],14.6484375,-23.193359375,164.55078125,[0. 0. 0. 0. 0. 0. 0. 0. 0.],0.6240234375,-0.322265625,1.08935546875,[0. 0. 0. 0. 0. 0. 0. 0. 0.]
6.824124336242676,0.013572623021900654,-0.022732213139533997,0.9349265098571777,-0.35385245084762573,[0. 0. 0. 0. 0. 0. 0. 0. 0.],14.09912109375,-8.30078125,162.04833984375,[0. 0. 0. 0. 0. 0. 0. 0. 0.],0.6533203125,-0.19189453125,1.0205078125,[0. 0. 0. 0. 0. 0. 0. 0. 0.]
6.840359210968018,0.013210847042500973,-0.021475117653608322,0.9272298812866211,-0.37364310026168823,[0. 0. 0. 0. 0. 0. 0. 0. 0.],11.5966796875,8.23974609375,164.0625,[0. 0. 0. 0. 0. 0. 0. 0. 0.],0.5859375,-0.1669921875,0.94287109375,[0. 0. 0. 0. 0. 0. 0. 0. 0.]
6.862695693969727,0.01570383831858635,-0.021417908370494843,0.9161453247070312,-0.3999656140804291,[0. 0. 0. 0. 0. 0. 0. 0. 0.],1.03759765625,-29.84619140625,161.9873046875,[0. 0. 0. 0. 0. 0. 0. 0. 0.],0.37353515625,-0.2060546875,0.74755859375,[0. 0. 0. 0. 0. 0. 0. 0. 0.]
6.880229234695435,0.01956934668123722,-0.02110479213297367,0.904625654220581,-0.42523419857025146,[0. 0. 0. 0. 0. 0. 0. 0. 0.],-1.8310546875,-4.150390625,158.203125,[0. 0. 0. 0. 0. 0. 0. 0. 0.],0.57373046875,-0.27587890625,0.9267578125,[0. 0. 0. 0. 0. 0. 0. 0. 0.]
6.9004058837890625,0.01983698457479477,-0.019903894513845444,0.8928394317626953,-0.4494977593421936,[0. 0. 0. 0. 0. 0. 0. 0. 0.],13.5498046875,-8.7890625,150.81787109375,[0. 0. 0. 0. 0. 0. 0. 0. 0.],0.64404296875,-0.34375,1.16650390625,[0. 0. 0. 0. 0. 0. 0. 0. 0.]
6.920327663421631,0.01997046358883381,-0.018998024985194206,0.8804742097854614,-0.47329211235046387,[0. 0. 0. 0. 0. 0. 0. 0. 0.],3.72314453125,-4.21142578125,153.86962890625,[0. 0. 0. 0. 0. 0. 0. 0. 0.],0.56201171875,-0.25341796875,0.958984375,[0. 0. 0. 0. 0. 0. 0. 0. 0.]
6.940770626068115,0.022588346153497696,-0.01788165606558323,0.8675680160522461,-0.49648353457450867,[0. 0. 0. 0. 0. 0. 0. 0. 0.],-0.732421875,-3.5400390625,150.390625,[0. 0. 0. 0. 0. 0. 0. 0. 0.],0.63134765625,-0.2646484375,1.015625,[0. 0. 0. 0. 0. 0. 0. 0. 0.]
6.960960388183594,0.024900412186980247,-0.0161126721650362,0.8544209003448486,-0.5187343955039978,[0. 0. 0. 0. 0. 0. 0. 0. 0.],5.9814453125,-14.404296875,148.98681640625,[0. 0. 0. 0. 0. 0. 0. 0. 0.],0.54541015625,-0.24951171875,0.93798828125,[0. 0. 0. 0. 0. 0. 0. 0. 0.]
6.980499267578125,0.024431558325886726,-0.017384298145771027,0.8403888940811157,-0.5411537885665894,[0. 0. 0. 0. 0. 0. 0. 0. 0.],5.0048828125,3.662109375,153.74755859375,[0. 0. 0. 0. 0. 0. 0. 0. 0.],0.44970703125,-0.212890625,0.8056640625,[0. 0. 0. 0. 0. 0. 0. 0. 0.]
7.00035285949707,0.026141684502363205,-0.01673389971256256,0.8257803320884705,-0.5631371736526489,[0. 0. 0. 0. 0. 0. 0. 0. 0.],0.3662109375,-0.42724609375,152.28271484375,[0. 0. 0. 0. 0. 0. 0. 0. 0.],0.52783203125,-0.3076171875,1.02392578125,[0. 0. 0. 0. 0. 0. 0. 0. 0.]
7.015588760375977,0.02659236453473568,-0.016562916338443756,0.8109424114227295,-0.5842866897583008,[0. 0. 0. 0. 0. 0. 0. 0. 0.],10.3759765625,-9.58251953125,144.287109375,[0. 0. 0. 0. 0. 0. 0. 0. 0.],0.634765625,-0.30078125,1.07421875,[0. 0. 0. 0. 0. 0. 0. 0. 0.]
7.04015326499939,0.029022248461842537,-0.013525862246751785,0.7961684465408325,-0.6042272448539734,[0. 0. 0. 0. 0. 0. 0. 0. 0.],8.6669921875,-14.83154296875,141.90673828125,[0. 0. 0. 0. 0. 0. 0. 0. 0.],0.5859375,-0.29248046875,1.0234375,[0. 0. 0. 0. 0. 0. 0. 0. 0.]
7.0601043701171875,0.030262883752584457,-0.01323031634092331,0.7807987332344055,-0.623909056186676,[0. 0. 0. 0. 0. 0. 0. 0. 0.],-3.35693359375,-3.72314453125,143.73779296875,[0. 0. 0. 0. 0. 0. 0. 0. 0.],0.56494140625,-0.1982421875,0.86669921875,[0. 0. 0. 0. 0. 0. 0. 0. 0.]
7.080145597457886,0.03293698653578758,-0.013240087777376175,0.7652155756950378,-0.6427946090698242,[0. 0. 0. 0. 0. 0. 0. 0. 0.],-0.30517578125,-18.9208984375,137.63427734375,[0. 0. 0. 0. 0. 0. 0. 0. 0.],0.48974609375,-0.216796875,0.8193359375,[0. 0. 0. 0. 0. 0. 0. 0. 0.]
7.100187063217163,0.03556064888834953,-0.012117471545934677,0.7496485710144043,-0.660768985748291,[0. 0. 0. 0. 0. 0. 0. 0. 0.],6.2255859375,-5.18798828125,134.6435546875,[0. 0. 0. 0. 0. 0. 0. 0. 0.],0.62646484375,-0.26708984375,1.044921875,[0. 0. 0. 0. 0. 0. 0. 0. 0.]
7.1201841831207275,0.03442372754216194,-0.012824267148971558,0.7339586615562439,-0.6782000064849854,[0. 0. 0. 0. 0. 0. 0. 0. 0.],0.18310546875,17.2119140625,134.521484375,[0. 0. 0. 0. 0. 0. 0. 0. 0.],0.71728515625,-0.20556640625,1.05224609375,[0. 0. 0. 0. 0. 0. 0. 0. 0.]
7.140336751937866,0.036043282598257065,-0.011605840176343918,0.718355655670166,-0.6946448087692261,[0. 0. 0. 0. 0. 0. 0. 0. 0.],2.38037109375,-17.88330078125,127.685546875,[0. 0. 0. 0. 0. 0. 0. 0. 0.],0.58447265625,-0.19677734375,1.04248046875,[0. 0. 0. 0. 0. 0. 0. 0. 0.]
7.160085439682007,0.03815528005361557,-0.010115055367350578,0.7027747631072998,-0.7103164792060852,[0. 0. 0. 0. 0. 0. 0. 0. 0.],2.0751953125,-1.220703125,124.57275390625,[0. 0. 0. 0. 0. 0. 0. 0. 0.],0.69775390625,-0.1806640625,1.0595703125,[0. 0. 0. 0. 0. 0. 0. 0. 0.]
7.181939363479614,0.03626653924584389,-0.010313889943063259,0.6880278587341309,-0.7247041463851929,[0. 0. 0. 0. 0. 0. 0. 0. 0.],16.7236328125,11.04736328125,116.27197265625,[0. 0. 0. 0. 0. 0. 0. 0. 0.],0.634765625,-0.17138671875,0.98779296875,[0. 0. 0. 0. 0. 0. 0. 0. 0.]
7.200212478637695,0.03712429106235504,-0.007624591700732708,0.6731945276260376,-0.7384936809539795,[0. 0. 0. 0. 0. 0. 0. 0. 0.],4.150390625,-27.099609375,114.74609375,[0. 0. 0. 0. 0. 0. 0. 0. 0.],0.3447265625,-0.10107421875,0.66943359375,[0. 0. 0. 0. 0. 0. 0. 0. 0.]
7.2202112674713135,0.04103792831301689,-0.004263666924089193,0.65788733959198,-0.7519853711128235,[0. 0. 0. 0. 0. 0. 0. 0. 0.],-2.38037109375,-14.95361328125,114.990234375,[0. 0. 0. 0. 0. 0. 0. 0. 0.],0.6181640625,-0.09716796875,0.89453125,[0. 0. 0. 0. 0. 0. 0. 0. 0.]
7.241550922393799,0.04044177010655403,-0.0041924151591956615,0.6394549608230591,-0.7677528262138367,[0. 0. 0. 0. 0. 0. 0. 0. 0.],14.46533203125,7.38525390625,105.46875,[0. 0. 0. 0. 0. 0. 0. 0. 0.],0.77587890625,-0.15478515625,1.17529296875,[0. 0. 0. 0. 0. 0. 0. 0. 0.]
7.260603427886963,0.039411112666130066,-0.0030330270528793335,0.6291126608848572,-0.7763084173202515,[0. 0. 0. 0. 0. 0. 0. 0. 0.],13.671875,0.1220703125,104.248046875,[0. 0. 0. 0. 0. 0. 0. 0. 0.],0.6455078125,-0.12109375,1.04833984375,[0. 0. 0. 0. 0. 0. 0. 0. 0.]
7.2816407680511475,0.03928764536976814,9.697075438452885e-05,0.6128056049346924,-0.7892565727233887,[0. 0. 0. 0. 0. 0. 0. 0. 0.],19.53125,-10.07080078125,85.26611328125,[0. 0. 0. 0. 0. 0. 0. 0. 0.],0.68115234375,-0.0751953125,1.08544921875,[0. 0. 0. 0. 0. 0. 0. 0. 0.]
7.300897598266602,0.03745925799012184,0.0014903233386576176,0.6050207018852234,-0.7953267693519592,[0. 0. 0. 0. 0. 0. 0. 0. 0.],19.04296875,9.521484375,71.71630859375,[0. 0. 0. 0. 0. 0. 0. 0. 0.],0.7109375,-0.02783203125,1.05712890625,[0. 0. 0. 0. 0. 0. 0. 0. 0.]
7.320282697677612,0.036231134086847305,0.003154316684231162,0.5963846445083618,-0.8018745183944702,[0. 0. 0. 0. 0. 0. 0. 0. 0.],7.14111328125,-7.01904296875,54.931640625,[0. 0. 0. 0. 0. 0. 0. 0. 0.],0.48876953125,0.05419921875,0.8330078125,[0. 0. 0. 0. 0. 0. 0. 0. 0.]
7.340255498886108,0.03517479449510574,0.0041925641708076,0.5914702415466309,-0.8055483102798462,[0. 0. 0. 0. 0. 0. 0. 0. 0.],10.498046875,7.568359375,22.27783203125,[0. 0. 0. 0. 0. 0. 0. 0. 0.],0.65966796875,0.07177734375,1.04052734375,[0. 0. 0. 0. 0. 0. 0. 0. 0.]
7.3602821826934814,0.034198466688394547,0.006946622859686613,0.5912001132965088,-0.8057696223258972,[0. 0. 0. 0. 0. 0. 0. 0. 0.],12.26806640625,-6.7138671875,-9.58251953125,[0. 0. 0. 0. 0. 0. 0. 0. 0.],0.52587890625,0.12255859375,0.955078125,[0. 0. 0. 0. 0. 0. 0. 0. 0.]
7.37538480758667,0.03396162390708923,0.008759913966059685,0.5948989391326904,-0.8030349612236023,[0. 0. 0. 0. 0. 0. 0. 0. 0.],-1.953125,1.220703125,-35.64453125,[0. 0. 0. 0. 0. 0. 0. 0. 0.],0.49169921875,0.15869140625,0.81005859375,[0. 0. 0. 0. 0. 0. 0. 0. 0.]
7.400260925292969,0.03502273932099342,0.010400309227406979,0.6020383238792419,-0.7976309657096863,[0. 0. 0. 0. 0. 0. 0. 0. 0.],-2.0751953125,-4.57763671875,-59.75341796875,[0. 0. 0. 0. 0. 0. 0. 0. 0.],0.505859375,0.1083984375,0.958984375,[0. 0. 0. 0. 0. 0. 0. 0. 0.]
7.415470838546753,0.03520427271723747,0.012601647526025772,0.6120242476463318,-0.7899546027183533,[0. 0. 0. 0. 0. 0. 0. 0. 0.],3.0517578125,0.91552734375,-79.345703125,[0. 0. 0. 0. 0. 0. 0. 0. 0.],0.48095703125,0.09375,1.060546875,[0. 0. 0. 0. 0. 0. 0. 0. 0.]
7.440417289733887,0.03225305676460266,0.011923957616090775,0.6269463300704956,-0.7783032655715942,[0. 0. 0. 0. 0. 0. 0. 0. 0.],0.9765625,26.18408203125,-88.0126953125,[0. 0. 0. 0. 0. 0. 0. 0. 0.],0.1806640625,0.25390625,1.0380859375,[0. 0. 0. 0. 0. 0. 0. 0. 0.]
7.4603025913238525,0.0283444095402956,0.010843981057405472,0.6362527012825012,-0.7708836793899536,[0. 0. 0. 0. 0. 0. 0. 0. 0.],10.1318359375,26.123046875,-92.1630859375,[0. 0. 0. 0. 0. 0. 0. 0. 0.],0.00341796875,0.25537109375,1.0751953125,[0. 0. 0. 0. 0. 0. 0. 0. 0.]
7.480128049850464,0.022721484303474426,0.009280904196202755,0.6486673355102539,-0.7606763243675232,[0. 0. 0. 0. 0. 0. 0. 0. 0.],7.080078125,22.76611328125,-91.1865234375,[0. 0. 0. 0. 0. 0. 0. 0. 0.],-0.14453125,0.32080078125,0.96630859375,[0. 0. 0. 0. 0. 0. 0. 0. 0.]
7.5005106925964355,0.01872377283871174,0.009310596622526646,0.6607149243354797,-0.7503456473350525,[0. 0. 0. 0. 0. 0. 0. 0. 0.],10.7421875,7.32421875,-90.6982421875,[0. 0. 0. 0. 0. 0. 0. 0. 0.],-0.193359375,0.30517578125,0.9951171875,[0. 0. 0. 0. 0. 0. 0. 0. 0.]
7.520456552505493,0.015014417469501495,0.009660095907747746,0.6726123690605164,-0.7397796511650085,[0. 0. 0. 0. 0. 0. 0. 0. 0.],4.94384765625,9.94873046875,-91.61376953125,[0. 0. 0. 0. 0. 0. 0. 0. 0.],-0.1142578125,0.3408203125,0.96044921875,[0. 0. 0. 0. 0. 0. 0. 0. 0.]
7.540188789367676,0.012307797558605671,0.008609204553067684,0.684177041053772,-0.7291613221168518,[0. 0. 0. 0. 0. 0. 0. 0. 0.],-2.8076171875,6.77490234375,-89.05029296875,[0. 0. 0. 0. 0. 0. 0. 0. 0.],-0.16552734375,0.3623046875,1.00341796875,[0. 0. 0. 0. 0. 0. 0. 0. 0.]
7.560271739959717,0.01043525617569685,0.008788486942648888,0.695379376411438,-0.7185133099555969,[0. 0. 0. 0. 0. 0. 0. 0. 0.],0.3662109375,1.28173828125,-88.07373046875,[0. 0. 0. 0. 0. 0. 0. 0. 0.],-0.181640625,0.328125,1.078125,[0. 0. 0. 0. 0. 0. 0. 0. 0.]
7.580418348312378,0.008655191399157047,0.009429930709302425,0.7062146663665771,-0.7078821063041687,[0. 0. 0. 0. 0. 0. 0. 0. 0.],1.220703125,1.3427734375,-85.99853515625,[0. 0. 0. 0. 0. 0. 0. 0. 0.],-0.154296875,0.326171875,0.98291015625,[0. 0. 0. 0. 0. 0. 0. 0. 0.]
7.600107431411743,0.00676075229421258,0.00946094747632742,0.7165622711181641,-0.6974263191223145,[0. 0. 0. 0. 0. 0. 0. 0. 0.],-1.708984375,3.41796875,-82.3974609375,[0. 0. 0. 0. 0. 0. 0. 0. 0.],-0.15185546875,0.32373046875,0.962890625,[0. 0. 0. 0. 0. 0. 0. 0. 0.]
7.621675491333008,0.004243247676640749,0.009329845197498798,0.7262002825737,-0.6874067783355713,[0. 0. 0. 0. 0. 0. 0. 0. 0.],3.84521484375,7.4462890625,-77.7587890625,[0. 0. 0. 0. 0. 0. 0. 0. 0.],-0.16015625,0.2939453125,1.009765625,[0. 0. 0. 0. 0. 0. 0. 0. 0.]
7.640126466751099,0.0020982418209314346,0.010366175323724747,0.7350455522537231,-0.6779353618621826,[0. 0. 0. 0. 0. 0. 0. 0. 0.],1.220703125,0.0,-72.81494140625,[0. 0. 0. 0. 0. 0. 0. 0. 0.],-0.20458984375,0.3359375,0.99072265625,[0. 0. 0. 0. 0. 0. 0. 0. 0.]
7.660344123840332,0.0004204456927254796,0.010303610004484653,0.7432212233543396,-0.6689662933349609,[0. 0. 0. 0. 0. 0. 0. 0. 0.],-2.3193359375,0.9765625,-68.115234375,[0. 0. 0. 0. 0. 0. 0. 0. 0.],-0.17431640625,0.36279296875,1.03125,[0. 0. 0. 0. 0. 0. 0. 0. 0.]
7.6799681186676025,-0.000826536095701158,0.010678223334252834,0.7506371140480042,-0.6606280207633972,[0. 0. 0. 0. 0. 0. 0. 0. 0.],0.18310546875,1.15966796875,-61.95068359375,[0. 0. 0. 0. 0. 0. 0. 0. 0.],-0.18408203125,0.3291015625,1.06494140625,[0. 0. 0. 0. 0. 0. 0. 0. 0.]
7.700559139251709,-0.0029002302326261997,0.01139836385846138,0.7572063207626343,-0.6530699133872986,[0. 0. 0. 0. 0. 0. 0. 0. 0.],5.67626953125,0.18310546875,-54.931640625,[0. 0. 0. 0. 0. 0. 0. 0. 0.],-0.14404296875,0.2978515625,1.00732421875,[0. 0. 0. 0. 0. 0. 0. 0. 0.]
7.720095634460449,-0.004350999835878611,0.012369194999337196,0.7629631161689758,-0.6463090181350708,[0. 0. 0. 0. 0. 0. 0. 0. 0.],-1.708984375,-0.42724609375,-49.98779296875,[0. 0. 0. 0. 0. 0. 0. 0. 0.],-0.1318359375,0.33251953125,0.9375,[0. 0. 0. 0. 0. 0. 0. 0. 0.]
7.743265390396118,-0.0053662569262087345,0.012467703782022,0.7682124972343445,-0.640051007270813,[0. 0. 0. 0. 0. 0. 0. 0. 0.],-6.04248046875,0.06103515625,-45.47119140625,[0. 0. 0. 0. 0. 0. 0. 0. 0.],-0.1083984375,0.3388671875,0.9833984375,[0. 0. 0. 0. 0. 0. 0. 0. 0.]
7.7602221965789795,-0.006227354984730482,0.013180213049054146,0.7729281187057495,-0.6343262195587158,[0. 0. 0. 0. 0. 0. 0. 0. 0.],-0.244140625,-4.0283203125,-40.52734375,[0. 0. 0. 0. 0. 0. 0. 0. 0.],-0.10791015625,0.31396484375,1.06884765625,[0. 0. 0. 0. 0. 0. 0. 0. 0.]
7.780690431594849,-0.007273567840456963,0.014034761115908623,0.7771015763282776,-0.6291766166687012,[0. 0. 0. 0. 0. 0. 0. 0. 0.],-1.52587890625,-0.67138671875,-36.376953125,[0. 0. 0. 0. 0. 0. 0. 0. 0.],-0.0537109375,0.3095703125,1.0185546875,[0. 0. 0. 0. 0. 0. 0. 0. 0.]
7.802186727523804,-0.008910775184631348,0.014830856584012508,0.7814925312995911,-0.623674750328064,[0. 0. 0. 0. 0. 0. 0. 0. 0.],0.8544921875,0.91552734375,-30.1513671875,[0. 0. 0. 0. 0. 0. 0. 0. 0.],-0.048828125,0.2890625,1.00537109375,[0. 0. 0. 0. 0. 0. 0. 0. 0.]
7.820119619369507,-0.009994227439165115,0.015623696148395538,0.783727765083313,-0.6208276152610779,[0. 0. 0. 0. 0. 0. 0. 0. 0.],0.9765625,1.0986328125,-26.7333984375,[0. 0. 0. 0. 0. 0. 0. 0. 0.],-0.03564453125,0.2890625,1.0224609375,[0. 0. 0. 0. 0. 0. 0. 0. 0.]
7.8401782512664795,-0.011416551657021046,0.016824157908558846,0.7864352464675903,-0.6173381209373474,[0. 0. 0. 0. 0. 0. 0. 0. 0.],0.48828125,0.30517578125,-24.658203125,[0. 0. 0. 0. 0. 0. 0. 0. 0.],-0.01318359375,0.29150390625,1.02685546875,[0. 0. 0. 0. 0. 0. 0. 0. 0.]
7.860245227813721,-0.012641080655157566,0.017677733674645424,0.7888838648796082,-0.6141578555107117,[0. 0. 0. 0. 0. 0. 0. 0. 0.],0.18310546875,0.732421875,-22.8271484375,[0. 0. 0. 0. 0. 0. 0. 0. 0.],-0.0283203125,0.28955078125,1.005859375,[0. 0. 0. 0. 0. 0. 0. 0. 0.]
7.87538743019104,-0.013817922212183475,0.018767666071653366,0.7910405397415161,-0.6113196611404419,[0. 0. 0. 0. 0. 0. 0. 0. 0.],0.06103515625,-1.46484375,-18.4326171875,[0. 0. 0. 0. 0. 0. 0. 0. 0.],-0.0595703125,0.27294921875,1.01025390625,[0. 0. 0. 0. 0. 0. 0. 0. 0.]
7.900190353393555,-0.01495225727558136,0.01978374645113945,0.792755126953125,-0.6090356707572937,[0. 0. 0. 0. 0. 0. 0. 0. 0.],0.67138671875,-0.732421875,-14.95361328125,[0. 0. 0. 0. 0. 0. 0. 0. 0.],-0.05126953125,0.25927734375,1.00634765625,[0. 0. 0. 0. 0. 0. 0. 0. 0.]
7.921283960342407,-0.016259634867310524,0.021117428317666054,0.7944315075874329,-0.606768786907196,[0. 0. 0. 0. 0. 0. 0. 0. 0.],-0.79345703125,-2.197265625,-11.90185546875,[0. 0. 0. 0. 0. 0. 0. 0. 0.],-0.025390625,0.232421875,0.9873046875,[0. 0. 0. 0. 0. 0. 0. 0. 0.]
7.940832138061523,-0.016922153532505035,0.022051244974136353,0.7952721118927002,-0.6056150794029236,[0. 0. 0. 0. 0. 0. 0. 0. 0.],-0.732421875,0.06103515625,-10.07080078125,[0. 0. 0. 0. 0. 0. 0. 0. 0.],-0.00634765625,0.20849609375,1.0,[0. 0. 0. 0. 0. 0. 0. 0. 0.]
7.961495637893677,-0.01794324442744255,0.023166775703430176,0.796184241771698,-0.604344367980957,[0. 0. 0. 0. 0. 0. 0. 0. 0.],-0.30517578125,0.3662109375,-8.11767578125,[0. 0. 0. 0. 0. 0. 0. 0. 0.],-0.01025390625,0.19140625,1.0048828125,[0. 0. 0. 0. 0. 0. 0. 0. 0.]
7.98063850402832,-0.01838798262178898,0.023914240300655365,0.7970398664474487,-0.603172779083252,[0. 0. 0. 0. 0. 0. 0. 0. 0.],-4.5166015625,4.21142578125,-9.3994140625,[0. 0. 0. 0. 0. 0. 0. 0. 0.],0.03369140625,0.09619140625,0.966796875,[0. 0. 0. 0. 0. 0. 0. 0. 0.]
8.000010013580322,-0.017559465020895004,0.022223880514502525,0.7980157136917114,-0.6019707322120667,[0. 0. 0. 0. 0. 0. 0. 0. 0.],-7.62939453125,4.94384765625,-7.32421875,[0. 0. 0. 0. 0. 0. 0. 0. 0.],-0.04736328125,-0.0107421875,0.99609375,[0. 0. 0. 0. 0. 0. 0. 0. 0.]
8.020707607269287,-0.017294010147452354,0.018021177500486374,0.7987567186355591,-0.6011356115341187,[0. 0. 0. 0. 0. 0. 0. 0. 0.],-9.33837890625,5.615234375,-8.60595703125,[0. 0. 0. 0. 0. 0. 0. 0. 0.],-0.1044921875,-0.1669921875,1.0009765625,[0. 0. 0. 0. 0. 0. 0. 0. 0.]
8.040181159973145,-0.0170734953135252,0.014687508344650269,0.7995795607566833,-0.6001378893852234,[0. 0. 0. 0. 0. 0. 0. 0. 0.],-8.4228515625,9.46044921875,-7.080078125,[0. 0. 0. 0. 0. 0. 0. 0. 0.],-0.1064453125,-0.15576171875,1.02978515625,[0. 0. 0. 0. 0. 0. 0. 0. 0.]
8.056918144226074,-0.0171037670224905,0.013656051829457283,0.8009454011917114,-0.5983373522758484,[0. 0. 0. 0. 0. 0. 0. 0. 0.],12.26806640625,-11.23046875,-15.68603515625,[0. 0. 0. 0. 0. 0. 0. 0. 0.],-0.05615234375,0.03369140625,1.115234375,[0. 0. 0. 0. 0. 0. 0. 0. 0.]
8.0804123878479,-0.017332401126623154,0.011134428903460503,0.8021765351295471,-0.5967314839363098,[0. 0. 0. 0. 0. 0. 0. 0. 0.],-12.5732421875,11.5966796875,-11.71875,[0. 0. 0. 0. 0. 0. 0. 0. 0.],-0.044921875,-0.1279296875,0.80810546875,[0. 0. 0. 0. 0. 0. 0. 0. 0.]
8.100908041000366,-0.015340736135840416,0.007846400141716003,0.8038186430931091,-0.594624936580658,[0. 0. 0. 0. 0. 0. 0. 0. 0.],-14.404296875,6.2255859375,-13.61083984375,[0. 0. 0. 0. 0. 0. 0. 0. 0.],-0.05078125,-0.2783203125,1.01220703125,[0. 0. 0. 0. 0. 0. 0. 0. 0.]
8.120348691940308,-0.014697181060910225,0.00485587865114212,0.8056498765945435,-0.5921897888183594,[0. 0. 0. 0. 0. 0. 0. 0. 0.],1.28173828125,6.103515625,-19.22607421875,[0. 0. 0. 0. 0. 0. 0. 0. 0.],-0.05078125,-0.22802734375,1.12353515625,[0. 0. 0. 0. 0. 0. 0. 0. 0.]
8.140867710113525,-0.015077999792993069,0.005279455799609423,0.8078362941741943,-0.5891903638839722,[0. 0. 0. 0. 0. 0. 0. 0. 0.],-4.21142578125,-9.765625,-20.20263671875,[0. 0. 0. 0. 0. 0. 0. 0. 0.],-0.07421875,0.04052734375,0.94482421875,[0. 0. 0. 0. 0. 0. 0. 0. 0.]
8.161478996276855,-0.014002530835568905,0.001454829005524516,0.8101210594177246,-0.5860936641693115,[0. 0. 0. 0. 0. 0. 0. 0. 0.],-13.3056640625,-4.5166015625,-26.91650390625,[0. 0. 0. 0. 0. 0. 0. 0. 0.],-0.00927734375,-0.28466796875,0.99169921875,[0. 0. 0. 0. 0. 0. 0. 0. 0.]
8.176276683807373,-0.013050565496087074,-0.0023884563706815243,0.8127121329307556,-0.5825144648551941,[0. 0. 0. 0. 0. 0. 0. 0. 0.],-4.638671875,16.90673828125,-23.25439453125,[0. 0. 0. 0. 0. 0. 0. 0. 0.],-0.1201171875,-0.279296875,0.87255859375,[0. 0. 0. 0. 0. 0. 0. 0. 0.]
8.200651407241821,-0.01108061894774437,-0.005196418147534132,0.8160284161567688,-0.5778821706771851,[0. 0. 0. 0. 0. 0. 0. 0. 0.],-15.31982421875,8.4228515625,-31.92138671875,[0. 0. 0. 0. 0. 0. 0. 0. 0.],-0.0537109375,-0.32568359375,1.02587890625,[0. 0. 0. 0. 0. 0. 0. 0. 0.]
8.220718383789062,-0.010219610296189785,-0.00668599596247077,0.819520890712738,-0.5729191899299622,[0. 0. 0. 0. 0. 0. 0. 0. 0.],7.50732421875,-12.63427734375,-42.236328125,[0. 0. 0. 0. 0. 0. 0. 0. 0.],-0.07080078125,-0.35009765625,1.12939453125,[0. 0. 0. 0. 0. 0. 0. 0. 0.]
8.240117311477661,-0.010011555626988411,-0.008541315793991089,0.8232349753379822,-0.5675482749938965,[0. 0. 0. 0. 0. 0. 0. 0. 0.],-1.708984375,3.84521484375,-39.61181640625,[0. 0. 0. 0. 0. 0. 0. 0. 0.],-0.07861328125,-0.29248046875,1.09765625,[0. 0. 0. 0. 0. 0. 0. 0. 0.]
8.25596833229065,-0.010283779352903366,-0.00994172040373087,0.8275847434997559,-0.5611585378646851,[0. 0. 0. 0. 0. 0. 0. 0. 0.],0.9765625,7.87353515625,-43.15185546875,[0. 0. 0. 0. 0. 0. 0. 0. 0.],-0.1005859375,-0.27587890625,1.017578125,[0. 0. 0. 0. 0. 0. 0. 0. 0.]
8.280112743377686,-0.010232693515717983,-0.010894186794757843,0.8323712944984436,-0.5540168881416321,[0. 0. 0. 0. 0. 0. 0. 0. 0.],3.173828125,1.52587890625,-49.9267578125,[0. 0. 0. 0. 0. 0. 0. 0. 0.],-0.11083984375,-0.2763671875,0.94873046875,[0. 0. 0. 0. 0. 0. 0. 0. 0.]
8.300135135650635,-0.010014918632805347,-0.01207688543945551,0.8374744653701782,-0.5462513566017151,[0. 0. 0. 0. 0. 0. 0. 0. 0.],1.8310546875,-1.52587890625,-55.908203125,[0. 0. 0. 0. 0. 0. 0. 0. 0.],-0.087890625,-0.2431640625,0.9345703125,[0. 0. 0. 0. 0. 0. 0. 0. 0.]
8.320066928863525,-0.009911916218698025,-0.014471858739852905,0.8427729606628418,-0.5379834771156311,[0. 0. 0. 0. 0. 0. 0. 0. 0.],-1.15966796875,1.220703125,-58.7158203125,[0. 0. 0. 0. 0. 0. 0. 0. 0.],-0.12548828125,-0.2685546875,1.0078125,[0. 0. 0. 0. 0. 0. 0. 0. 0.]
8.340846300125122,-0.010043548420071602,-0.016418250277638435,0.8482863306999207,-0.5291879773139954,[0. 0. 0. 0. 0. 0. 0. 0. 0.],-0.79345703125,3.60107421875,-60.36376953125,[0. 0. 0. 0. 0. 0. 0. 0. 0.],-0.1748046875,-0.263671875,1.02880859375,[0. 0. 0. 0. 0. 0. 0. 0. 0.]
8.355798482894897,-0.010555083863437176,-0.018163856118917465,0.8539441227912903,-0.5199406147003174,[0. 0. 0. 0. 0. 0. 0. 0. 0.],2.74658203125,3.47900390625,-63.3544921875,[0. 0. 0. 0. 0. 0. 0. 0. 0.],-0.162109375,-0.23486328125,0.9267578125,[0. 0. 0. 0. 0. 0. 0. 0. 0.]
8.381662368774414,-0.011242908425629139,-0.019478240981698036,0.8595994114875793,-0.5104733109474182,[0. 0. 0. 0. 0. 0. 0. 0. 0.],6.89697265625,-1.15966796875,-62.6220703125,[0. 0. 0. 0. 0. 0. 0. 0. 0.],-0.2041015625,-0.26171875,1.060546875,[0. 0. 0. 0. 0. 0. 0. 0. 0.]
8.400165796279907,-0.011227979324758053,-0.01996014267206192,0.8648442625999451,-0.5015175938606262,[0. 0. 0. 0. 0. 0. 0. 0. 0.],1.89208984375,-5.06591796875,-58.65478515625,[0. 0. 0. 0. 0. 0. 0. 0. 0.],-0.22802734375,-0.20849609375,1.0224609375,[0. 0. 0. 0. 0. 0. 0. 0. 0.]
8.417715311050415,-0.010135482996702194,-0.021128444001078606,0.8697081804275513,-0.49300986528396606,[0. 0. 0. 0. 0. 0. 0. 0. 0.],-3.11279296875,-5.126953125,-53.7109375,[0. 0. 0. 0. 0. 0. 0. 0. 0.],-0.14794921875,-0.19287109375,0.890625,[0. 0. 0. 0. 0. 0. 0. 0. 0.]
8.441380500793457,-0.00906737893819809,-0.023796778172254562,0.8737531900405884,-0.4857025444507599,[0. 0. 0. 0. 0. 0. 0. 0. 0.],-6.34765625,3.11279296875,-43.5791015625,[0. 0. 0. 0. 0. 0. 0. 0. 0.],-0.09375,-0.244140625,0.888671875,[0. 0. 0. 0. 0. 0. 0. 0. 0.]
8.460824966430664,-0.007508172187954187,-0.02588181011378765,0.8768253922462463,-0.4800531268119812,[0. 0. 0. 0. 0. 0. 0. 0. 0.],-7.080078125,-3.41796875,-31.8603515625,[0. 0. 0. 0. 0. 0. 0. 0. 0.],-0.12890625,-0.232421875,0.97314453125,[0. 0. 0. 0. 0. 0. 0. 0. 0.]
8.480271816253662,-0.0059316158294677734,-0.027614569291472435,0.8788352012634277,-0.47628873586654663,[0. 0. 0. 0. 0. 0. 0. 0. 0.],1.5869140625,-9.765625,-19.4091796875,[0. 0. 0. 0. 0. 0. 0. 0. 0.],-0.0908203125,-0.2353515625,1.1455078125,[0. 0. 0. 0. 0. 0. 0. 0. 0.]
8.50089955329895,-0.004097954835742712,-0.027537424117326736,0.8797329664230347,-0.47465232014656067,[0. 0. 0. 0. 0. 0. 0. 0. 0.],6.2255859375,-6.4697265625,-7.38525390625,[0. 0. 0. 0. 0. 0. 0. 0. 0.],-0.0224609375,-0.201171875,1.13916015625,[0. 0. 0. 0. 0. 0. 0. 0. 0.]
8.515181541442871,-0.003034107619896531,-0.027260059490799904,0.8801705241203308,-0.47386443614959717,[0. 0. 0. 0. 0. 0. 0. 0. 0.],2.9296875,0.732421875,-2.685546875,[0. 0. 0. 0. 0. 0. 0. 0. 0.],0.04150390625,-0.13525390625,0.9912109375,[0. 0. 0. 0. 0. 0. 0. 0. 0.]
8.540468215942383,-0.0012195489834994078,-0.028348328545689583,0.880379855632782,-0.47341975569725037,[0. 0. 0. 0. 0. 0. 0. 0. 0.],-3.662109375,-3.662109375,-2.74658203125,[0. 0. 0. 0. 0. 0. 0. 0. 0.],0.01123046875,-0.11962890625,0.91162109375,[0. 0. 0. 0. 0. 0. 0. 0. 0.]
8.560421466827393,6.570978439413011e-05,-0.029007259756326675,0.8807214498519897,-0.47274547815322876,[0. 0. 0. 0. 0. 0. 0. 0. 0.],5.79833984375,6.77490234375,-4.94384765625,[0. 0. 0. 0. 0. 0. 0. 0. 0.],0.05810546875,-0.16748046875,1.015625,[0. 0. 0. 0. 0. 0. 0. 0. 0.]
8.58053970336914,0.00031207603751681745,-0.029152171686291695,0.8811507225036621,-0.4719359874725342,[0. 0. 0. 0. 0. 0. 0. 0. 0.],3.35693359375,-0.6103515625,-4.69970703125,[0. 0. 0. 0. 0. 0. 0. 0. 0.],-0.03173828125,-0.09716796875,0.978515625,[0. 0. 0. 0. 0. 0. 0. 0. 0.]
8.600082635879517,-5.614074325421825e-06,-0.030930524691939354,0.8814290165901184,-0.4713028073310852,[0. 0. 0. 0. 0. 0. 0. 0. 0.],-9.1552734375,-1.52587890625,-5.4931640625,[0. 0. 0. 0. 0. 0. 0. 0. 0.],-0.07275390625,-0.0517578125,0.90771484375,[0. 0. 0. 0. 0. 0. 0. 0. 0.]
8.620195388793945,6.808643775002565e-06,-0.03236733749508858,0.8818877935409546,-0.47034716606140137,[0. 0. 0. 0. 0. 0. 0. 0. 0.],11.16943359375,7.568359375,-4.94384765625,[0. 0. 0. 0. 0. 0. 0. 0. 0.],0.00244140625,-0.14697265625,1.23583984375,[0. 0. 0. 0. 0. 0. 0. 0. 0.]
8.640535593032837,-0.0004717110132332891,-0.031538140028715134,0.8822163343429565,-0.4697866439819336,[0. 0. 0. 0. 0. 0. 0. 0. 0.],6.7138671875,-11.65771484375,-3.5400390625,[0. 0. 0. 0. 0. 0. 0. 0. 0.],-0.15576171875,-0.0751953125,0.97216796875,[0. 0. 0. 0. 0. 0. 0. 0. 0.]
8.660186529159546,-0.00037890757084824145,-0.030624626204371452,0.8825843334197998,-0.46915552020072937,[0. 0. 0. 0. 0. 0. 0. 0. 0.],-6.2255859375,-3.2958984375,-5.31005859375,[0. 0. 0. 0. 0. 0. 0. 0. 0.],-0.0224609375,-0.01953125,0.77099609375,[0. 0. 0. 0. 0. 0. 0. 0. 0.]
8.680302619934082,8.570805221097544e-05,-0.031337589025497437,0.8830565214157104,-0.4682191014289856,[0. 0. 0. 0. 0. 0. 0. 0. 0.],-2.5634765625,8.056640625,-5.9814453125,[0. 0. 0. 0. 0. 0. 0. 0. 0.],0.03955078125,-0.06591796875,0.939453125,[0. 0. 0. 0. 0. 0. 0. 0. 0.]
8.700562238693237,-0.0001953623868757859,-0.03249434009194374,0.8833553194999695,-0.46757614612579346,[0. 0. 0. 0. 0. 0. 0. 0. 0.],0.244140625,-5.7373046875,-2.9296875,[0. 0. 0. 0. 0. 0. 0. 0. 0.],-0.13232421875,-0.0625,1.01171875,[0. 0. 0. 0. 0. 0. 0. 0. 0.]
8.720317363739014,-0.0005101826973259449,-0.03141743317246437,0.8836216330528259,-0.46714627742767334,[0. 0. 0. 0. 0. 0. 0. 0. 0.],3.90625,-3.2958984375,-3.173828125,[0. 0. 0. 0. 0. 0. 0. 0. 0.],-0.0458984375,-0.03564453125,1.1826171875,[0. 0. 0. 0. 0. 0. 0. 0. 0.]
8.741733074188232,-0.000612529693171382,-0.029317840933799744,0.8841496109962463,-0.4662829041481018,[0. 0. 0. 0. 0. 0. 0. 0. 0.],8.23974609375,-2.25830078125,-5.859375,[0. 0. 0. 0. 0. 0. 0. 0. 0.],0.00390625,-0.0224609375,1.18017578125,[0. 0. 0. 0. 0. 0. 0. 0. 0.]
8.76002550125122,-0.0012212949804961681,-0.027209002524614334,0.8847175240516663,-0.46533119678497314,[0. 0. 0. 0. 0. 0. 0. 0. 0.],2.25830078125,-1.15966796875,-6.77490234375,[0. 0. 0. 0. 0. 0. 0. 0. 0.],-0.037109375,0.00341796875,0.94580078125,[0. 0. 0. 0. 0. 0. 0. 0. 0.]
8.780092477798462,-0.0016450114781036973,-0.026224225759506226,0.8852909207344055,-0.4642946720123291,[0. 0. 0. 0. 0. 0. 0. 0. 0.],-0.18310546875,-0.3662109375,-6.77490234375,[0. 0. 0. 0. 0. 0. 0. 0. 0.],-0.02587890625,-0.01171875,0.90576171875,[0. 0. 0. 0. 0. 0. 0. 0. 0.]
8.800178527832031,-0.0023238693829625845,-0.0259538721293211,0.8858309984207153,-0.46327582001686096,[0. 0. 0. 0. 0. 0. 0. 0. 0.],7.4462890625,0.9765625,-5.4931640625,[0. 0. 0. 0. 0. 0. 0. 0. 0.],-0.04052734375,-0.05224609375,0.96630859375,[0. 0. 0. 0. 0. 0. 0. 0. 0.]
8.820550680160522,-0.0033440254628658295,-0.026016445830464363,0.8860974311828613,-0.4627563953399658,[0. 0. 0. 0. 0. 0. 0. 0. 0.],-6.4697265625,0.6103515625,-3.72314453125,[0. 0. 0. 0. 0. 0. 0. 0. 0.],-0.078125,0.04541015625,0.89599609375,[0. 0. 0. 0. 0. 0. 0. 0. 0.]
8.84054946899414,-0.0044229100458323956,-0.02500889264047146,0.8864727020263672,-0.462083637714386,[0. 0. 0. 0. 0. 0. 0. 0. 0.],5.7373046875,5.2490234375,-2.685546875,[0. 0. 0. 0. 0. 0. 0. 0. 0.],-0.02392578125,-0.03369140625,1.21875,[0. 0. 0. 0. 0. 0. 0. 0. 0.]
8.862596988677979,-0.005791959818452597,-0.023939374834299088,0.8866109251976013,-0.4618598222732544,[0. 0. 0. 0. 0. 0. 0. 0. 0.],4.2724609375,-11.16943359375,0.0,[0. 0. 0. 0. 0. 0. 0. 0. 0.],-0.13427734375,-0.00390625,0.98193359375,[0. 0. 0. 0. 0. 0. 0. 0. 0.]
8.875324249267578,-0.005629636347293854,-0.02320176735520363,0.8864779472351074,-0.4621548354625702,[0. 0. 0. 0. 0. 0. 0. 0. 0.],-6.40869140625,-5.2490234375,3.0517578125,[0. 0. 0. 0. 0. 0. 0. 0. 0.],-0.0390625,0.037109375,0.78564453125,[0. 0. 0. 0. 0. 0. 0. 0. 0.]
8.900429725646973,-0.0047265226021409035,-0.023102406412363052,0.8858622312545776,-0.46334874629974365,[0. 0. 0. 0. 0. 0. 0. 0. 0.],-4.150390625,1.220703125,11.04736328125,[0. 0. 0. 0. 0. 0. 0. 0. 0.],0.01708984375,-0.01220703125,0.94091796875,[0. 0. 0. 0. 0. 0. 0. 0. 0.]
8.920164823532104,-0.0040542869828641415,-0.02157045528292656,0.884488046169281,-0.4660463333129883,[0. 0. 0. 0. 0. 0. 0. 0. 0.],3.2958984375,-21.66748046875,19.287109375,[0. 0. 0. 0. 0. 0. 0. 0. 0.],-0.08056640625,-0.0234375,1.13720703125,[0. 0. 0. 0. 0. 0. 0. 0. 0.]
8.940397500991821,-0.0031324082519859076,-0.018658695742487907,0.882510781288147,-0.4699114263057709,[0. 0. 0. 0. 0. 0. 0. 0. 0.],6.16455078125,-4.69970703125,26.67236328125,[0. 0. 0. 0. 0. 0. 0. 0. 0.],0.0888671875,0.02880859375,1.20068359375,[0. 0. 0. 0. 0. 0. 0. 0. 0.]
8.960713386535645,-0.0018681869842112064,-0.015858590602874756,0.8799616098403931,-0.47477641701698303,[0. 0. 0. 0. 0. 0. 0. 0. 0.],4.08935546875,-4.8828125,33.63037109375,[0. 0. 0. 0. 0. 0. 0. 0. 0.],0.07177734375,0.033203125,1.04736328125,[0. 0. 0. 0. 0. 0. 0. 0. 0.]
8.980318784713745,-0.0007438975153490901,-0.014069612137973309,0.8769022226333618,-0.48046231269836426,[0. 0. 0. 0. 0. 0. 0. 0. 0.],-0.1220703125,-7.26318359375,39.85595703125,[0. 0. 0. 0. 0. 0. 0. 0. 0.],0.064453125,0.03369140625,0.94921875,[0. 0. 0. 0. 0. 0. 0. 0. 0.]
