time,orientation.x,orientation.y,orientation.z,orientation.w,orientation_covariance,angular_velocity.x,angular_velocity.y,angular_velocity.z,angular_velocity_covariance,linear_acceleration.x,linear_acceleration.y,linear_acceleration.z,linear_acceleration_covariance
0.1270444393157959,0.01953156292438507,-0.008244928903877735,-0.9850875735282898,0.1707429140806198,[0. 0. 0. 0. 0. 0. 0. 0. 0.],-0.3662109375,-0.91552734375,-0.18310546875,[0. 0. 0. 0. 0. 0. 0. 0. 0.],-0.0361328125,0.02294921875,1.00390625,[0. 0. 0. 0. 0. 0. 0. 0. 0.]
0.14342045783996582,0.01964469999074936,-0.007440492976456881,-0.9850983619689941,0.17070423066616058,[0. 0. 0. 0. 0. 0. 0. 0. 0.],-0.3662109375,-0.6103515625,0.0,[0. 0. 0. 0. 0. 0. 0. 0. 0.],-0.037109375,0.021484375,1.00537109375,[0. 0. 0. 0. 0. 0. 0. 0. 0.]
0.16370153427124023,0.02021176926791668,-0.007195181213319302,-0.9850954413414001,0.17066529393196106,[0. 0. 0. 0. 0. 0. 0. 0. 0.],0.18310546875,-0.3662109375,0.0,[0. 0. 0. 0. 0. 0. 0. 0. 0.],-0.03759765625,0.02099609375,1.00537109375,[0. 0. 0. 0. 0. 0. 0. 0. 0.]
0.1833937168121338,0.02006586454808712,-0.007021659519523382,-0.9851048588752747,0.17063570022583008,[0. 0. 0. 0. 0. 0. 0. 0. 0.],0.1220703125,-0.67138671875,-0.06103515625,[0. 0. 0. 0. 0. 0. 0. 0. 0.],-0.03759765625,0.02099609375,1.005859375,[0. 0. 0. 0. 0. 0. 0. 0. 0.]
0.20343995094299316,0.019172506406903267,-0.006609999109059572,-0.9851298928260803,0.1706104725599289,[0. 0. 0. 0. 0. 0. 0. 0. 0.],-0.1220703125,-0.91552734375,-0.18310546875,[0. 0. 0. 0. 0. 0. 0. 0. 0.],-0.03564453125,0.01953125,1.0029296875,[0. 0. 0. 0. 0. 0. 0. 0. 0.]
0.22577929496765137,0.019591592252254486,-0.007096561137586832,-0.985124945640564,0.17057207226753235,[0. 0. 0. 0. 0. 0. 0. 0. 0.],0.3662109375,-0.54931640625,-0.1220703125,[0. 0. 0. 0. 0. 0. 0. 0. 0.],-0.03662109375,0.02099609375,1.00732421875,[0. 0. 0. 0. 0. 0. 0. 0. 0.]
0.24521183967590332,0.01981988176703453,-0.00793201383203268,-0.9851141571998596,0.17057079076766968,[0. 0. 0. 0. 0. 0. 0. 0. 0.],0.0,-0.3662109375,-0.1220703125,[0. 0. 0. 0. 0. 0. 0. 0. 0.],-0.03662109375,0.0224609375,1.00537109375,[0. 0. 0. 0. 0. 0. 0. 0. 0.]
0.28917860984802246,0.018973462283611298,-0.0070248194970190525,-0.985146164894104,0.17052258551120758,[0. 0. 0. 0. 0. 0. 0. 0. 0.],-0.42724609375,-0.6103515625,-0.18310546875,[0. 0. 0. 0. 0. 0. 0. 0. 0.],-0.03515625,0.02099609375,1.00244140625,[0. 0. 0. 0. 0. 0. 0. 0. 0.]
0.28933024406433105,0.019456936046481133,-0.007100761402398348,-0.9851411581039429,0.1704937219619751,[0. 0. 0. 0. 0. 0. 0. 0. 0.],0.1220703125,-0.9765625,-0.30517578125,[0. 0. 0. 0. 0. 0. 0. 0. 0.],-0.0361328125,0.02099609375,1.0048828125,[0. 0. 0. 0. 0. 0. 0. 0. 0.]
0.3003413677215576,0.01873984932899475,-0.00686615752056241,-0.9851616621017456,0.170465350151062,[0. 0. 0. 0. 0. 0. 0. 0. 0.],0.42724609375,-0.732421875,-0.18310546875,[0. 0. 0. 0. 0. 0. 0. 0. 0.],-0.03515625,0.02001953125,1.00341796875,[0. 0. 0. 0. 0. 0. 0. 0. 0.]
0.32363414764404297,0.019634712487459183,-0.007830385118722916,-0.985138475894928,0.1704564243555069,[0. 0. 0. 0. 0. 0. 0. 0. 0.],-0.30517578125,-0.48828125,-0.18310546875,[0. 0. 0. 0. 0. 0. 0. 0. 0.],-0.03662109375,0.0234375,1.00341796875,[0. 0. 0. 0. 0. 0. 0. 0. 0.]
0.34334421157836914,0.019754284992814064,-0.007786560337990522,-0.9851416349411011,0.1704263985157013,[0. 0. 0. 0. 0. 0. 0. 0. 0.],-0.3662109375,-0.6103515625,-0.1220703125,[0. 0. 0. 0. 0. 0. 0. 0. 0.],-0.03662109375,0.0224609375,1.00537109375,[0. 0. 0. 0. 0. 0. 0. 0. 0.]
0.3927943706512451,0.01969660073518753,-0.0081887636333704,-0.9851461052894592,0.17038825154304504,[0. 0. 0. 0. 0. 0. 0. 0. 0.],0.30517578125,-0.6103515625,0.0,[0. 0. 0. 0. 0. 0. 0. 0. 0.],-0.0361328125,0.02294921875,1.00244140625,[0. 0. 0. 0. 0. 0. 0. 0. 0.]
0.40645790100097656,0.019664499908685684,-0.00743736932054162,-0.9851595759391785,0.17034895718097687,[0. 0. 0. 0. 0. 0. 0. 0. 0.],-0.06103515625,-0.79345703125,-0.06103515625,[0. 0. 0. 0. 0. 0. 0. 0. 0.],-0.03662109375,0.021484375,1.005859375,[0. 0. 0. 0. 0. 0. 0. 0. 0.]
0.42432594299316406,0.019885191693902016,-0.007143449038267136,-0.9851627945899963,0.17031745612621307,[0. 0. 0. 0. 0. 0. 0. 0. 0.],-0.30517578125,-0.91552734375,-0.244140625,[0. 0. 0. 0. 0. 0. 0. 0. 0.],-0.03759765625,0.0205078125,1.00439453125,[0. 0. 0. 0. 0. 0. 0. 0. 0.]
0.43938374519348145,0.018948255106806755,-0.00788941141217947,-0.9851770997047424,0.17030811309814453,[0. 0. 0. 0. 0. 0. 0. 0. 0.],-0.18310546875,-0.6103515625,-0.244140625,[0. 0. 0. 0. 0. 0. 0. 0. 0.],-0.03515625,0.02197265625,1.0029296875,[0. 0. 0. 0. 0. 0. 0. 0. 0.]
0.45897889137268066,0.019716983661055565,-0.00718726497143507,-0.9851740598678589,0.17026999592781067,[0. 0. 0. 0. 0. 0. 0. 0. 0.],-0.06103515625,-0.3662109375,-0.06103515625,[0. 0. 0. 0. 0. 0. 0. 0. 0.],-0.03662109375,0.02099609375,1.0048828125,[0. 0. 0. 0. 0. 0. 0. 0. 0.]
0.4785449504852295,0.019823823124170303,-0.007295810617506504,-0.9851768612861633,0.17023660242557526,[0. 0. 0. 0. 0. 0. 0. 0. 0.],-0.244140625,-0.91552734375,-0.1220703125,[0. 0. 0. 0. 0. 0. 0. 0. 0.],-0.037109375,0.0205078125,1.0048828125,[0. 0. 0. 0. 0. 0. 0. 0. 0.]
0.5052757263183594,0.01948743872344494,-0.007323324214667082,-0.985190212726593,0.17019708454608917,[0. 0. 0. 0. 0. 0. 0. 0. 0.],0.42724609375,-0.67138671875,-0.18310546875,[0. 0. 0. 0. 0. 0. 0. 0. 0.],-0.0361328125,0.02099609375,1.005859375,[0. 0. 0. 0. 0. 0. 0. 0. 0.]
0.5235452651977539,0.019307011738419533,-0.007758154533803463,-0.9851923584938049,0.17018522322177887,[0. 0. 0. 0. 0. 0. 0. 0. 0.],-0.18310546875,-0.54931640625,-0.1220703125,[0. 0. 0. 0. 0. 0. 0. 0. 0.],-0.03564453125,0.02197265625,1.00439453125,[0. 0. 0. 0. 0. 0. 0. 0. 0.]
0.5433871746063232,0.01925835758447647,-0.007696203421801329,-0.9851970076560974,0.17016693949699402,[0. 0. 0. 0. 0. 0. 0. 0. 0.],-0.54931640625,-0.54931640625,-0.244140625,[0. 0. 0. 0. 0. 0. 0. 0. 0.],-0.03564453125,0.02197265625,1.00390625,[0. 0. 0. 0. 0. 0. 0. 0. 0.]
0.5632944107055664,0.019766485318541527,-0.007041621021926403,-0.9852012991905212,0.1701119989156723,[0. 0. 0. 0. 0. 0. 0. 0. 0.],-0.18310546875,-0.67138671875,-0.06103515625,[0. 0. 0. 0. 0. 0. 0. 0. 0.],-0.03662109375,0.0205078125,1.00341796875,[0. 0. 0. 0. 0. 0. 0. 0. 0.]
0.5834264755249023,0.01932220347225666,-0.006580631248652935,-0.9852206707000732,0.1700698882341385,[0. 0. 0. 0. 0. 0. 0. 0. 0.],0.42724609375,-0.6103515625,0.0,[0. 0. 0. 0. 0. 0. 0. 0. 0.],-0.0361328125,0.01953125,1.005859375,[0. 0. 0. 0. 0. 0. 0. 0. 0.]
0.6046679019927979,0.01914190500974655,-0.007208396680653095,-0.9852221608161926,0.1700558066368103,[0. 0. 0. 0. 0. 0. 0. 0. 0.],0.244140625,-0.732421875,-0.18310546875,[0. 0. 0. 0. 0. 0. 0. 0. 0.],-0.03564453125,0.02099609375,1.00634765625,[0. 0. 0. 0. 0. 0. 0. 0. 0.]
0.6232645511627197,0.019993452355265617,-0.007064396515488625,-0.985214352607727,0.17000922560691833,[0. 0. 0. 0. 0. 0. 0. 0. 0.],-0.48828125,-0.8544921875,-0.244140625,[0. 0. 0. 0. 0. 0. 0. 0. 0.],-0.037109375,0.02099609375,1.00439453125,[0. 0. 0. 0. 0. 0. 0. 0. 0.]
0.6438236236572266,0.020083196461200714,-0.007003895007073879,-0.985217273235321,0.16998444497585297,[0. 0. 0. 0. 0. 0. 0. 0. 0.],-0.3662109375,-0.48828125,-0.30517578125,[0. 0. 0. 0. 0. 0. 0. 0. 0.],-0.03759765625,0.021484375,1.00537109375,[0. 0. 0. 0. 0. 0. 0. 0. 0.]
0.6653106212615967,0.020302290096879005,-0.00762137258425355,-0.9852157831192017,0.16994036734104156,[0. 0. 0. 0. 0. 0. 0. 0. 0.],-0.06103515625,-0.244140625,-0.18310546875,[0. 0. 0. 0. 0. 0. 0. 0. 0.],-0.0380859375,0.021484375,1.0048828125,[0. 0. 0. 0. 0. 0. 0. 0. 0.]
0.6857848167419434,0.020068978890776634,-0.006368953734636307,-0.9852364659309387,0.1698996126651764,[0. 0. 0. 0. 0. 0. 0. 0. 0.],0.1220703125,-0.67138671875,-0.1220703125,[0. 0. 0. 0. 0. 0. 0. 0. 0.],-0.03759765625,0.02001953125,1.00634765625,[0. 0. 0. 0. 0. 0. 0. 0. 0.]
0.7033944129943848,0.019916633144021034,-0.007205928210169077,-0.985235869884491,0.1698874682188034,[0. 0. 0. 0. 0. 0. 0. 0. 0.],-0.30517578125,-0.9765625,-0.244140625,[0. 0. 0. 0. 0. 0. 0. 0. 0.],-0.037109375,0.021484375,1.0048828125,[0. 0. 0. 0. 0. 0. 0. 0. 0.]
0.7199587821960449,0.01939556561410427,-0.007499530911445618,-0.9852490425109863,0.16985896229743958,[0. 0. 0. 0. 0. 0. 0. 0. 0.],0.06103515625,-0.54931640625,-0.06103515625,[0. 0. 0. 0. 0. 0. 0. 0. 0.],-0.03564453125,0.021484375,1.001953125,[0. 0. 0. 0. 0. 0. 0. 0. 0.]
0.7468349933624268,0.019148029386997223,-0.00801746267825365,-0.9852508306503296,0.16985279321670532,[0. 0. 0. 0. 0. 0. 0. 0. 0.],-0.06103515625,-0.30517578125,-0.06103515625,[0. 0. 0. 0. 0. 0. 0. 0. 0.],-0.03515625,0.0224609375,1.00341796875,[0. 0. 0. 0. 0. 0. 0. 0. 0.]
0.764801025390625,0.01981286332011223,-0.007657964248210192,-0.9852481484413147,0.16980835795402527,[0. 0. 0. 0. 0. 0. 0. 0. 0.],-0.1220703125,-0.79345703125,-0.244140625,[0. 0. 0. 0. 0. 0. 0. 0. 0.],-0.03662109375,0.02197265625,1.005859375,[0. 0. 0. 0. 0. 0. 0. 0. 0.]
0.7828123569488525,0.019995462149381638,-0.007341162301599979,-0.9852553009986877,0.1697598099708557,[0. 0. 0. 0. 0. 0. 0. 0. 0.],0.0,-0.9765625,-0.18310546875,[0. 0. 0. 0. 0. 0. 0. 0. 0.],-0.037109375,0.02099609375,1.0068359375,[0. 0. 0. 0. 0. 0. 0. 0. 0.]
0.8039717674255371,0.02028004266321659,-0.008222319185733795,-0.9852455258369446,0.16974234580993652,[0. 0. 0. 0. 0. 0. 0. 0. 0.],0.0,-0.6103515625,-0.30517578125,[0. 0. 0. 0. 0. 0. 0. 0. 0.],-0.037109375,0.0224609375,1.00439453125,[0. 0. 0. 0. 0. 0. 0. 0. 0.]
0.8236579895019531,0.019685350358486176,-0.008202510885894299,-0.9852601885795593,0.16972774267196655,[0. 0. 0. 0. 0. 0. 0. 0. 0.],-0.18310546875,-0.732421875,-0.1220703125,[0. 0. 0. 0. 0. 0. 0. 0. 0.],-0.0361328125,0.02294921875,1.00390625,[0. 0. 0. 0. 0. 0. 0. 0. 0.]
0.8435614109039307,0.020020723342895508,-0.0077657513320446014,-0.9852628111839294,0.16969388723373413,[0. 0. 0. 0. 0. 0. 0. 0. 0.],-0.67138671875,-0.6103515625,-0.244140625,[0. 0. 0. 0. 0. 0. 0. 0. 0.],-0.03662109375,0.02197265625,1.00146484375,[0. 0. 0. 0. 0. 0. 0. 0. 0.]
0.8638064861297607,0.02007167600095272,-0.007372541353106499,-0.9852710366249084,0.16965778172016144,[0. 0. 0. 0. 0. 0. 0. 0. 0.],0.06103515625,-0.3662109375,-0.06103515625,[0. 0. 0. 0. 0. 0. 0. 0. 0.],-0.037109375,0.02197265625,1.0029296875,[0. 0. 0. 0. 0. 0. 0. 0. 0.]
0.8828537464141846,0.019934028387069702,-0.0073999823071062565,-0.9852772355079651,0.16963668167591095,[0. 0. 0. 0. 0. 0. 0. 0. 0.],0.0,-0.3662109375,0.0,[0. 0. 0. 0. 0. 0. 0. 0. 0.],-0.037109375,0.021484375,1.0048828125,[0. 0. 0. 0. 0. 0. 0. 0. 0.]
0.903388500213623,0.01962881162762642,-0.007554091978818178,-0.9852848649024963,0.1696212887763977,[0. 0. 0. 0. 0. 0. 0. 0. 0.],-0.1220703125,-1.03759765625,-0.30517578125,[0. 0. 0. 0. 0. 0. 0. 0. 0.],-0.03662109375,0.02099609375,1.0048828125,[0. 0. 0. 0. 0. 0. 0. 0. 0.]
0.9235951900482178,0.020006949082016945,-0.007509083021432161,-0.9852834939956665,0.1695874035358429,[0. 0. 0. 0. 0. 0. 0. 0. 0.],-0.30517578125,-0.91552734375,-0.244140625,[0. 0. 0. 0. 0. 0. 0. 0. 0.],-0.037109375,0.021484375,1.00390625,[0. 0. 0. 0. 0. 0. 0. 0. 0.]
0.950507402420044,0.019987402483820915,-0.008374960161745548,-0.985278844833374,0.169576495885849,[0. 0. 0. 0. 0. 0. 0. 0. 0.],0.1220703125,-0.54931640625,-0.1220703125,[0. 0. 0. 0. 0. 0. 0. 0. 0.],-0.03759765625,0.0234375,1.00439453125,[0. 0. 0. 0. 0. 0. 0. 0. 0.]
0.9634048938751221,0.01989515870809555,-0.0070939199067652225,-0.9852977395057678,0.1695355921983719,[0. 0. 0. 0. 0. 0. 0. 0. 0.],0.0,-0.54931640625,0.0,[0. 0. 0. 0. 0. 0. 0. 0. 0.],-0.037109375,0.02099609375,1.0048828125,[0. 0. 0. 0. 0. 0. 0. 0. 0.]
0.983971357345581,0.019876597449183464,-0.006648939568549395,-0.9853081703186035,0.1694951355457306,[0. 0. 0. 0. 0. 0. 0. 0. 0.],0.0,-0.8544921875,-0.06103515625,[0. 0. 0. 0. 0. 0. 0. 0. 0.],-0.037109375,0.02001953125,1.00634765625,[0. 0. 0. 0. 0. 0. 0. 0. 0.]
1.0045852661132812,0.019482342526316643,-0.007277310360223055,-0.9853149652481079,0.16947555541992188,[0. 0. 0. 0. 0. 0. 0. 0. 0.],0.3662109375,-0.54931640625,-0.18310546875,[0. 0. 0. 0. 0. 0. 0. 0. 0.],-0.0361328125,0.02099609375,1.00390625,[0. 0. 0. 0. 0. 0. 0. 0. 0.]
1.0242581367492676,0.019653648138046265,-0.008188735693693161,-0.9853081107139587,0.16945421695709229,[0. 0. 0. 0. 0. 0. 0. 0. 0.],0.1220703125,-0.6103515625,-0.18310546875,[0. 0. 0. 0. 0. 0. 0. 0. 0.],-0.03662109375,0.02197265625,1.00390625,[0. 0. 0. 0. 0. 0. 0. 0. 0.]
1.0460798740386963,0.020122211426496506,-0.007850599475204945,-0.9853079319000244,0.16941583156585693,[0. 0. 0. 0. 0. 0. 0. 0. 0.],-0.48828125,-0.79345703125,-0.244140625,[0. 0. 0. 0. 0. 0. 0. 0. 0.],-0.03759765625,0.0224609375,1.00341796875,[0. 0. 0. 0. 0. 0. 0. 0. 0.]
1.05892014503479,0.01996130496263504,-0.0074771130457520485,-0.9853181838989258,0.1693924516439438,[0. 0. 0. 0. 0. 0. 0. 0. 0.],-0.06103515625,-0.67138671875,-0.1220703125,[0. 0. 0. 0. 0. 0. 0. 0. 0.],-0.037109375,0.021484375,1.005859375,[0. 0. 0. 0. 0. 0. 0. 0. 0.]
1.0838046073913574,0.019535942003130913,-0.007746763527393341,-0.9853292107582092,0.1693660318851471,[0. 0. 0. 0. 0. 0. 0. 0. 0.],0.18310546875,-0.3662109375,0.0,[0. 0. 0. 0. 0. 0. 0. 0. 0.],-0.0361328125,0.02197265625,1.0048828125,[0. 0. 0. 0. 0. 0. 0. 0. 0.]
1.1129939556121826,0.01960284262895584,-0.007352365180850029,-0.9853342175483704,0.16934619843959808,[0. 0. 0. 0. 0. 0. 0. 0. 0.],0.1220703125,-0.732421875,0.0,[0. 0. 0. 0. 0. 0. 0. 0. 0.],-0.03564453125,0.021484375,1.00390625,[0. 0. 0. 0. 0. 0. 0. 0. 0.]
1.1185686588287354,0.01917516626417637,-0.008004188537597656,-0.9853370785713196,0.16934919357299805,[0. 0. 0. 0. 0. 0. 0. 0. 0.],-0.54931640625,-0.6103515625,-0.244140625,[0. 0. 0. 0. 0. 0. 0. 0. 0.],-0.03564453125,0.0224609375,1.00341796875,[0. 0. 0. 0. 0. 0. 0. 0. 0.]
1.163630723953247,0.019699333235621452,-0.007554267533123493,-0.9853407740592957,0.16928865015506744,[0. 0. 0. 0. 0. 0. 0. 0. 0.],0.1220703125,-0.42724609375,-0.1220703125,[0. 0. 0. 0. 0. 0. 0. 0. 0.],-0.037109375,0.021484375,1.00390625,[0. 0. 0. 0. 0. 0. 0. 0. 0.]
1.163808822631836,0.02001495286822319,-0.007221998646855354,-0.9853394031524658,0.16927365958690643,[0. 0. 0. 0. 0. 0. 0. 0. 0.],-0.06103515625,-0.3662109375,-0.1220703125,[0. 0. 0. 0. 0. 0. 0. 0. 0.],-0.03662109375,0.021484375,1.0029296875,[0. 0. 0. 0. 0. 0. 0. 0. 0.]
1.1881849765777588,0.018876759335398674,-0.00705720204859972,-0.9853652715682983,0.16926062107086182,[0. 0. 0. 0. 0. 0. 0. 0. 0.],0.1220703125,-0.8544921875,-0.1220703125,[0. 0. 0. 0. 0. 0. 0. 0. 0.],-0.03564453125,0.02099609375,1.00537109375,[0. 0. 0. 0. 0. 0. 0. 0. 0.]
1.2036211490631104,0.01943053863942623,-0.007582568563520908,-0.9853541254997253,0.169240340590477,[0. 0. 0. 0. 0. 0. 0. 0. 0.],-0.3662109375,-0.9765625,-0.18310546875,[0. 0. 0. 0. 0. 0. 0. 0. 0.],-0.03662109375,0.02197265625,1.00537109375,[0. 0. 0. 0. 0. 0. 0. 0. 0.]
1.2234954833984375,0.019969522953033447,-0.00779469171538949,-0.9853451251983643,0.16922032833099365,[0. 0. 0. 0. 0. 0. 0. 0. 0.],-0.1220703125,-0.42724609375,-0.1220703125,[0. 0. 0. 0. 0. 0. 0. 0. 0.],-0.037109375,0.0224609375,1.00732421875,[0. 0. 0. 0. 0. 0. 0. 0. 0.]
1.2438478469848633,0.01957458257675171,-0.008661579340696335,-0.985347330570221,0.1692114919424057,[0. 0. 0. 0. 0. 0. 0. 0. 0.],-0.06103515625,-0.3662109375,-0.1220703125,[0. 0. 0. 0. 0. 0. 0. 0. 0.],-0.0361328125,0.0234375,1.0029296875,[0. 0. 0. 0. 0. 0. 0. 0. 0.]
1.263857364654541,0.019663406535983086,-0.0071416390128433704,-0.9853671789169312,0.16915670037269592,[0. 0. 0. 0. 0. 0. 0. 0. 0.],-0.42724609375,-0.79345703125,-0.06103515625,[0. 0. 0. 0. 0. 0. 0. 0. 0.],-0.037109375,0.02099609375,1.0048828125,[0. 0. 0. 0. 0. 0. 0. 0. 0.]
1.2856967449188232,0.019802013412117958,-0.006472953595221043,-0.9853761196136475,0.16911552846431732,[0. 0. 0. 0. 0. 0. 0. 0. 0.],0.0,-0.91552734375,-0.18310546875,[0. 0. 0. 0. 0. 0. 0. 0. 0.],-0.037109375,0.01953125,1.0048828125,[0. 0. 0. 0. 0. 0. 0. 0. 0.]
1.3038616180419922,0.019160358235239983,-0.008190575987100601,-0.9853743314743042,0.16912491619586945,[0. 0. 0. 0. 0. 0. 0. 0. 0.],0.30517578125,-0.732421875,0.0,[0. 0. 0. 0. 0. 0. 0. 0. 0.],-0.03564453125,0.0224609375,1.0048828125,[0. 0. 0. 0. 0. 0. 0. 0. 0.]
1.3275682926177979,0.019546033814549446,-0.007332274224609137,-0.9853819012641907,0.16907617449760437,[0. 0. 0. 0. 0. 0. 0. 0. 0.],-0.18310546875,-1.03759765625,-0.30517578125,[0. 0. 0. 0. 0. 0. 0. 0. 0.],-0.0361328125,0.02099609375,1.00390625,[0. 0. 0. 0. 0. 0. 0. 0. 0.]
1.3440775871276855,0.01969827152788639,-0.007799820508807898,-0.9853761792182922,0.16907133162021637,[0. 0. 0. 0. 0. 0. 0. 0. 0.],-0.6103515625,-0.79345703125,0.0,[0. 0. 0. 0. 0. 0. 0. 0. 0.],-0.0361328125,0.02197265625,1.00390625,[0. 0. 0. 0. 0. 0. 0. 0. 0.]
1.3602385520935059,0.020656611770391464,-0.007867204956710339,-0.9853652119636536,0.1690177023410797,[0. 0. 0. 0. 0. 0. 0. 0. 0.],0.0,-0.244140625,-0.18310546875,[0. 0. 0. 0. 0. 0. 0. 0. 0.],-0.0380859375,0.0224609375,1.0029296875,[0. 0. 0. 0. 0. 0. 0. 0. 0.]
1.3838205337524414,0.018924156203866005,-0.007346558850258589,-0.9854046702384949,0.1690138429403305,[0. 0. 0. 0. 0. 0. 0. 0. 0.],0.0,-0.30517578125,0.0,[0. 0. 0. 0. 0. 0. 0. 0. 0.],-0.03515625,0.02099609375,1.00537109375,[0. 0. 0. 0. 0. 0. 0. 0. 0.]
1.405014991760254,0.01881467178463936,-0.007411031983792782,-0.9854105710983276,0.1689884066581726,[0. 0. 0. 0. 0. 0. 0. 0. 0.],0.06103515625,-1.03759765625,-0.18310546875,[0. 0. 0. 0. 0. 0. 0. 0. 0.],-0.03564453125,0.02099609375,1.00439453125,[0. 0. 0. 0. 0. 0. 0. 0. 0.]
1.4186491966247559,0.019456569105386734,-0.008491681888699532,-0.9853917956352234,0.1689741611480713,[0. 0. 0. 0. 0. 0. 0. 0. 0.],-0.42724609375,-0.732421875,-0.244140625,[0. 0. 0. 0. 0. 0. 0. 0. 0.],-0.03564453125,0.0234375,1.001953125,[0. 0. 0. 0. 0. 0. 0. 0. 0.]
1.444716215133667,0.02009541355073452,-0.008355450816452503,-0.9853873252868652,0.16893287003040314,[0. 0. 0. 0. 0. 0. 0. 0. 0.],-0.18310546875,-0.42724609375,-0.1220703125,[0. 0. 0. 0. 0. 0. 0. 0. 0.],-0.037109375,0.02392578125,1.0048828125,[0. 0. 0. 0. 0. 0. 0. 0. 0.]
1.4652049541473389,0.01986662484705448,-0.007372463587671518,-0.985404372215271,0.1689060777425766,[0. 0. 0. 0. 0. 0. 0. 0. 0.],-0.42724609375,-0.3662109375,-0.06103515625,[0. 0. 0. 0. 0. 0. 0. 0. 0.],-0.037109375,0.021484375,1.00390625,[0. 0. 0. 0. 0. 0. 0. 0. 0.]
1.4838793277740479,0.01955997943878174,-0.006405826658010483,-0.9854250550270081,0.1688607782125473,[0. 0. 0. 0. 0. 0. 0. 0. 0.],-0.06103515625,-0.91552734375,-0.1220703125,[0. 0. 0. 0. 0. 0. 0. 0. 0.],-0.037109375,0.01953125,1.00341796875,[0. 0. 0. 0. 0. 0. 0. 0. 0.]
1.5033941268920898,0.019179774448275566,-0.007838692516088486,-0.9854193329811096,0.16887684166431427,[0. 0. 0. 0. 0. 0. 0. 0. 0.],0.1220703125,-0.8544921875,0.0,[0. 0. 0. 0. 0. 0. 0. 0. 0.],-0.03564453125,0.02197265625,1.00341796875,[0. 0. 0. 0. 0. 0. 0. 0. 0.]
1.5240073204040527,0.0196258332580328,-0.0074367765337228775,-0.9854198098182678,0.16884158551692963,[0. 0. 0. 0. 0. 0. 0. 0. 0.],-0.18310546875,-0.3662109375,-0.18310546875,[0. 0. 0. 0. 0. 0. 0. 0. 0.],-0.0361328125,0.021484375,1.00341796875,[0. 0. 0. 0. 0. 0. 0. 0. 0.]
1.5441868305206299,0.020489996299147606,-0.007693903986364603,-0.9854041337966919,0.16881893575191498,[0. 0. 0. 0. 0. 0. 0. 0. 0.],-0.42724609375,-0.6103515625,-0.18310546875,[0. 0. 0. 0. 0. 0. 0. 0. 0.],-0.03857421875,0.02294921875,1.00244140625,[0. 0. 0. 0. 0. 0. 0. 0. 0.]
1.5646073818206787,0.019717389717698097,-0.007035973947495222,-0.9854308366775513,0.16878379881381989,[0. 0. 0. 0. 0. 0. 0. 0. 0.],0.0,-0.67138671875,-0.1220703125,[0. 0. 0. 0. 0. 0. 0. 0. 0.],-0.03662109375,0.0205078125,1.00244140625,[0. 0. 0. 0. 0. 0. 0. 0. 0.]
1.584033489227295,0.01999102346599102,-0.007115051615983248,-0.9854297041893005,0.16875438392162323,[0. 0. 0. 0. 0. 0. 0. 0. 0.],0.42724609375,-0.6103515625,-0.06103515625,[0. 0. 0. 0. 0. 0. 0. 0. 0.],-0.037109375,0.0205078125,1.00537109375,[0. 0. 0. 0. 0. 0. 0. 0. 0.]
1.6042537689208984,0.020456138998270035,-0.007602222263813019,-0.9854201078414917,0.16873373091220856,[0. 0. 0. 0. 0. 0. 0. 0. 0.],-0.06103515625,-0.67138671875,-0.1220703125,[0. 0. 0. 0. 0. 0. 0. 0. 0.],-0.0380859375,0.02294921875,1.00634765625,[0. 0. 0. 0. 0. 0. 0. 0. 0.]
1.6190316677093506,0.020059984177350998,-0.007554921787232161,-0.985431432723999,0.16871730983257294,[0. 0. 0. 0. 0. 0. 0. 0. 0.],-0.48828125,-0.79345703125,-0.18310546875,[0. 0. 0. 0. 0. 0. 0. 0. 0.],-0.037109375,0.021484375,1.00341796875,[0. 0. 0. 0. 0. 0. 0. 0. 0.]
1.6437053680419922,0.01898130774497986,-0.007265230640769005,-0.9854584336280823,0.16869688034057617,[0. 0. 0. 0. 0. 0. 0. 0. 0.],-0.06103515625,-0.54931640625,-0.18310546875,[0. 0. 0. 0. 0. 0. 0. 0. 0.],-0.03515625,0.02099609375,1.0029296875,[0. 0. 0. 0. 0. 0. 0. 0. 0.]
1.6656720638275146,0.019432295113801956,-0.008036711253225803,-0.9854457974433899,0.16868428885936737,[0. 0. 0. 0. 0. 0. 0. 0. 0.],0.06103515625,-0.18310546875,0.06103515625,[0. 0. 0. 0. 0. 0. 0. 0. 0.],-0.03564453125,0.0224609375,1.0068359375,[0. 0. 0. 0. 0. 0. 0. 0. 0.]
1.6785955429077148,0.019431322813034058,-0.00749825919046998,-0.9854569435119629,0.16864420473575592,[0. 0. 0. 0. 0. 0. 0. 0. 0.],0.1220703125,-0.8544921875,-0.3662109375,[0. 0. 0. 0. 0. 0. 0. 0. 0.],-0.0361328125,0.02099609375,1.0068359375,[0. 0. 0. 0. 0. 0. 0. 0. 0.]
1.7047619819641113,0.0191379114985466,-0.007641422562301159,-0.9854633808135986,0.16863372921943665,[0. 0. 0. 0. 0. 0. 0. 0. 0.],-0.48828125,-0.91552734375,-0.1220703125,[0. 0. 0. 0. 0. 0. 0. 0. 0.],-0.03515625,0.021484375,1.00341796875,[0. 0. 0. 0. 0. 0. 0. 0. 0.]
1.7238883972167969,0.019696243107318878,-0.007438533939421177,-0.9854623079299927,0.16858480870723724,[0. 0. 0. 0. 0. 0. 0. 0. 0.],-0.06103515625,-0.67138671875,-0.18310546875,[0. 0. 0. 0. 0. 0. 0. 0. 0.],-0.0361328125,0.021484375,1.00341796875,[0. 0. 0. 0. 0. 0. 0. 0. 0.]
1.7458858489990234,0.019848154857754707,-0.008170791901648045,-0.9854542016983032,0.16858051717281342,[0. 0. 0. 0. 0. 0. 0. 0. 0.],-0.30517578125,-0.67138671875,-0.1220703125,[0. 0. 0. 0. 0. 0. 0. 0. 0.],-0.0361328125,0.0224609375,1.00244140625,[0. 0. 0. 0. 0. 0. 0. 0. 0.]
1.763620138168335,0.019676990807056427,-0.0075806183740496635,-0.9854689836502075,0.16854144632816315,[0. 0. 0. 0. 0. 0. 0. 0. 0.],-0.30517578125,-0.67138671875,-0.18310546875,[0. 0. 0. 0. 0. 0. 0. 0. 0.],-0.0361328125,0.021484375,1.00390625,[0. 0. 0. 0. 0. 0. 0. 0. 0.]
1.784712791442871,0.019982289522886276,-0.007800249848514795,-0.9854658246040344,0.16851411759853363,[0. 0. 0. 0. 0. 0. 0. 0. 0.],0.06103515625,-0.3662109375,-0.1220703125,[0. 0. 0. 0. 0. 0. 0. 0. 0.],-0.037109375,0.0224609375,1.00341796875,[0. 0. 0. 0. 0. 0. 0. 0. 0.]
1.7998862266540527,0.019818009808659554,-0.00775480642914772,-0.985473096370697,0.1684930920600891,[0. 0. 0. 0. 0. 0. 0. 0. 0.],0.18310546875,-0.67138671875,-0.1220703125,[0. 0. 0. 0. 0. 0. 0. 0. 0.],-0.037109375,0.021484375,1.00439453125,[0. 0. 0. 0. 0. 0. 0. 0. 0.]
1.8236804008483887,0.020426711067557335,-0.00817185826599598,-0.985460638999939,0.1684739738702774,[0. 0. 0. 0. 0. 0. 0. 0. 0.],-0.3662109375,-0.67138671875,-0.1220703125,[0. 0. 0. 0. 0. 0. 0. 0. 0.],-0.037109375,0.02294921875,1.00537109375,[0. 0. 0. 0. 0. 0. 0. 0. 0.]
1.8434784412384033,0.019639456644654274,-0.007473913487046957,-0.9854870438575745,0.16844506561756134,[0. 0. 0. 0. 0. 0. 0. 0. 0.],-0.48828125,-0.48828125,-0.06103515625,[0. 0. 0. 0. 0. 0. 0. 0. 0.],-0.03662109375,0.021484375,1.0048828125,[0. 0. 0. 0. 0. 0. 0. 0. 0.]
1.8633930683135986,0.018981775268912315,-0.00592932989820838,-0.9855204224586487,0.1683870553970337,[0. 0. 0. 0. 0. 0. 0. 0. 0.],0.18310546875,-0.3662109375,0.0,[0. 0. 0. 0. 0. 0. 0. 0. 0.],-0.03564453125,0.0185546875,1.005859375,[0. 0. 0. 0. 0. 0. 0. 0. 0.]
1.8833541870117188,0.019398529082536697,-0.006639758124947548,-0.9855114817619324,0.1683652400970459,[0. 0. 0. 0. 0. 0. 0. 0. 0.],0.244140625,-0.732421875,-0.1220703125,[0. 0. 0. 0. 0. 0. 0. 0. 0.],-0.03662109375,0.02001953125,1.00537109375,[0. 0. 0. 0. 0. 0. 0. 0. 0.]
1.899519681930542,0.019561218097805977,-0.007557723205536604,-0.985503613948822,0.1683533489704132,[0. 0. 0. 0. 0. 0. 0. 0. 0.],-0.18310546875,-1.03759765625,-0.18310546875,[0. 0. 0. 0. 0. 0. 0. 0. 0.],-0.0361328125,0.021484375,1.00390625,[0. 0. 0. 0. 0. 0. 0. 0. 0.]
1.9239044189453125,0.02039712853729725,-0.007834317162632942,-0.9854889512062073,0.16832762956619263,[0. 0. 0. 0. 0. 0. 0. 0. 0.],-0.42724609375,-0.67138671875,-0.244140625,[0. 0. 0. 0. 0. 0. 0. 0. 0.],-0.0380859375,0.02294921875,1.00390625,[0. 0. 0. 0. 0. 0. 0. 0. 0.]
1.9452285766601562,0.019300226122140884,-0.007607629522681236,-0.9855197072029114,0.16828739643096924,[0. 0. 0. 0. 0. 0. 0. 0. 0.],-0.1220703125,-0.3662109375,-0.3662109375,[0. 0. 0. 0. 0. 0. 0. 0. 0.],-0.0361328125,0.02197265625,1.00341796875,[0. 0. 0. 0. 0. 0. 0. 0. 0.]
1.9646215438842773,0.019420668482780457,-0.008062806911766529,-0.9855166077613831,0.16827057301998138,[0. 0. 0. 0. 0. 0. 0. 0. 0.],0.06103515625,-0.48828125,0.0,[0. 0. 0. 0. 0. 0. 0. 0. 0.],-0.03564453125,0.02197265625,1.00341796875,[0. 0. 0. 0. 0. 0. 0. 0. 0.]
1.9836957454681396,0.01947447657585144,-0.007694377098232508,-0.9855247735977173,0.1682339310646057,[0. 0. 0. 0. 0. 0. 0. 0. 0.],-0.06103515625,-0.91552734375,-0.18310546875,[0. 0. 0. 0. 0. 0. 0. 0. 0.],-0.0361328125,0.02099609375,1.00390625,[0. 0. 0. 0. 0. 0. 0. 0. 0.]
2.003483295440674,0.01944650523364544,-0.008503420278429985,-0.9855194687843323,0.1682291030883789,[0. 0. 0. 0. 0. 0. 0. 0. 0.],0.06103515625,-0.8544921875,-0.1220703125,[0. 0. 0. 0. 0. 0. 0. 0. 0.],-0.03564453125,0.02294921875,1.00341796875,[0. 0. 0. 0. 0. 0. 0. 0. 0.]
2.0234951972961426,0.019827423617243767,-0.007927266880869865,-0.9855254292488098,0.16817758977413177,[0. 0. 0. 0. 0. 0. 0. 0. 0.],-0.1220703125,-0.3662109375,-0.30517578125,[0. 0. 0. 0. 0. 0. 0. 0. 0.],-0.03662109375,0.0224609375,1.00341796875,[0. 0. 0. 0. 0. 0. 0. 0. 0.]
2.043639659881592,0.02002192847430706,-0.007368157152086496,-0.9855309724807739,0.1681475192308426,[0. 0. 0. 0. 0. 0. 0. 0. 0.],-0.54931640625,-0.54931640625,-0.06103515625,[0. 0. 0. 0. 0. 0. 0. 0. 0.],-0.037109375,0.021484375,1.001953125,[0. 0. 0. 0. 0. 0. 0. 0. 0.]
2.066602945327759,0.02041388303041458,-0.0071179307997226715,-0.9855304956436157,0.16811399161815643,[0. 0. 0. 0. 0. 0. 0. 0. 0.],0.0,-0.732421875,-0.06103515625,[0. 0. 0. 0. 0. 0. 0. 0. 0.],-0.0380859375,0.02099609375,1.0048828125,[0. 0. 0. 0. 0. 0. 0. 0. 0.]
2.0850989818573,0.019698286429047585,-0.006709718611091375,-0.9855528473854065,0.1680850237607956,[0. 0. 0. 0. 0. 0. 0. 0. 0.],0.3662109375,-0.6103515625,-0.06103515625,[0. 0. 0. 0. 0. 0. 0. 0. 0.],-0.037109375,0.0205078125,1.005859375,[0. 0. 0. 0. 0. 0. 0. 0. 0.]
2.1040563583374023,0.019575314596295357,-0.00781638827174902,-0.9855454564094543,0.16809526085853577,[0. 0. 0. 0. 0. 0. 0. 0. 0.],-0.1220703125,-0.67138671875,-0.18310546875,[0. 0. 0. 0. 0. 0. 0. 0. 0.],-0.03662109375,0.02197265625,1.00390625,[0. 0. 0. 0. 0. 0. 0. 0. 0.]
2.129582166671753,0.020582230761647224,-0.008067036047577858,-0.9855272769927979,0.16806934773921967,[0. 0. 0. 0. 0. 0. 0. 0. 0.],-0.54931640625,-0.8544921875,-0.244140625,[0. 0. 0. 0. 0. 0. 0. 0. 0.],-0.03759765625,0.0224609375,1.00244140625,[0. 0. 0. 0. 0. 0. 0. 0. 0.]
2.139695405960083,0.019422339275479317,-0.007583940867334604,-0.9855595231056213,0.1680406630039215,[0. 0. 0. 0. 0. 0. 0. 0. 0.],-0.06103515625,-0.54931640625,-0.1220703125,[0. 0. 0. 0. 0. 0. 0. 0. 0.],-0.03515625,0.021484375,1.0048828125,[0. 0. 0. 0. 0. 0. 0. 0. 0.]
2.1648049354553223,0.01929355598986149,-0.007251759525388479,-0.9855685234069824,0.16801734268665314,[0. 0. 0. 0. 0. 0. 0. 0. 0.],0.3662109375,-0.54931640625,-0.1220703125,[0. 0. 0. 0. 0. 0. 0. 0. 0.],-0.03564453125,0.02099609375,1.00634765625,[0. 0. 0. 0. 0. 0. 0. 0. 0.]
2.180556297302246,0.020675549283623695,-0.006858259905129671,-0.9855539202690125,0.16795527935028076,[0. 0. 0. 0. 0. 0. 0. 0. 0.],-0.06103515625,-0.8544921875,-0.244140625,[0. 0. 0. 0. 0. 0. 0. 0. 0.],-0.03857421875,0.02001953125,1.00439453125,[0. 0. 0. 0. 0. 0. 0. 0. 0.]
2.203448534011841,0.02003907971084118,-0.007345625199377537,-0.9855644106864929,0.1679505854845047,[0. 0. 0. 0. 0. 0. 0. 0. 0.],-0.54931640625,-0.8544921875,-0.18310546875,[0. 0. 0. 0. 0. 0. 0. 0. 0.],-0.03662109375,0.021484375,1.001953125,[0. 0. 0. 0. 0. 0. 0. 0. 0.]
2.2234926223754883,0.020259728655219078,-0.007439261768013239,-0.9855638146400452,0.16792353987693787,[0. 0. 0. 0. 0. 0. 0. 0. 0.],0.0,-0.6103515625,-0.244140625,[0. 0. 0. 0. 0. 0. 0. 0. 0.],-0.03759765625,0.021484375,1.0029296875,[0. 0. 0. 0. 0. 0. 0. 0. 0.]
2.2463319301605225,0.019669421017169952,-0.007228821516036987,-0.9855819344520569,0.16789649426937103,[0. 0. 0. 0. 0. 0. 0. 0. 0.],-0.244140625,-0.8544921875,-0.18310546875,[0. 0. 0. 0. 0. 0. 0. 0. 0.],-0.03662109375,0.02099609375,1.00390625,[0. 0. 0. 0. 0. 0. 0. 0. 0.]
2.2672624588012695,0.02020297758281231,-0.007250211667269468,-0.9855759143829346,0.16786710917949677,[0. 0. 0. 0. 0. 0. 0. 0. 0.],-0.42724609375,-0.6103515625,-0.1220703125,[0. 0. 0. 0. 0. 0. 0. 0. 0.],-0.0380859375,0.021484375,1.00537109375,[0. 0. 0. 0. 0. 0. 0. 0. 0.]
2.2845540046691895,0.01993797905743122,-0.007296704687178135,-0.985588550567627,0.16782315075397491,[0. 0. 0. 0. 0. 0. 0. 0. 0.],0.244140625,-0.42724609375,-0.244140625,[0. 0. 0. 0. 0. 0. 0. 0. 0.],-0.03662109375,0.02099609375,1.00439453125,[0. 0. 0. 0. 0. 0. 0. 0. 0.]
2.304389476776123,0.01958385296165943,-0.006462906487286091,-0.9856072068214417,0.16778920590877533,[0. 0. 0. 0. 0. 0. 0. 0. 0.],0.1220703125,-0.732421875,-0.1220703125,[0. 0. 0. 0. 0. 0. 0. 0. 0.],-0.03662109375,0.01904296875,1.0048828125,[0. 0. 0. 0. 0. 0. 0. 0. 0.]
2.323821544647217,0.020391810685396194,-0.007286318577826023,-0.9855883717536926,0.16776937246322632,[0. 0. 0. 0. 0. 0. 0. 0. 0.],-0.18310546875,-0.67138671875,-0.244140625,[0. 0. 0. 0. 0. 0. 0. 0. 0.],-0.0380859375,0.0224609375,1.00537109375,[0. 0. 0. 0. 0. 0. 0. 0. 0.]
2.343939781188965,0.01988806389272213,-0.00792255625128746,-0.9855929613113403,0.1677740216255188,[0. 0. 0. 0. 0. 0. 0. 0. 0.],-0.48828125,-0.732421875,0.0,[0. 0. 0. 0. 0. 0. 0. 0. 0.],-0.03662109375,0.0224609375,1.00341796875,[0. 0. 0. 0. 0. 0. 0. 0. 0.]
2.364508628845215,0.019940368831157684,-0.007513397838920355,-0.9856027364730835,0.16773009300231934,[0. 0. 0. 0. 0. 0. 0. 0. 0.],0.1220703125,-0.48828125,-0.06103515625,[0. 0. 0. 0. 0. 0. 0. 0. 0.],-0.03662109375,0.021484375,1.00390625,[0. 0. 0. 0. 0. 0. 0. 0. 0.]
2.3843271732330322,0.01951742358505726,-0.007375130895525217,-0.985617458820343,0.16769924759864807,[0. 0. 0. 0. 0. 0. 0. 0. 0.],0.30517578125,-0.732421875,-0.1220703125,[0. 0. 0. 0. 0. 0. 0. 0. 0.],-0.0361328125,0.021484375,1.00439453125,[0. 0. 0. 0. 0. 0. 0. 0. 0.]
2.4036052227020264,0.019159452989697456,-0.007564892992377281,-0.9856240749359131,0.16769300401210785,[0. 0. 0. 0. 0. 0. 0. 0. 0.],-0.30517578125,-1.0986328125,-0.18310546875,[0. 0. 0. 0. 0. 0. 0. 0. 0.],-0.03564453125,0.02197265625,1.005859375,[0. 0. 0. 0. 0. 0. 0. 0. 0.]
2.424938917160034,0.019402185454964638,-0.007948658429086208,-0.9856225848197937,0.16765588521957397,[0. 0. 0. 0. 0. 0. 0. 0. 0.],-0.06103515625,-0.8544921875,-0.244140625,[0. 0. 0. 0. 0. 0. 0. 0. 0.],-0.03662109375,0.0224609375,1.001953125,[0. 0. 0. 0. 0. 0. 0. 0. 0.]
2.443706750869751,0.020553449168801308,-0.008008286356925964,-0.9856032729148865,0.16762948036193848,[0. 0. 0. 0. 0. 0. 0. 0. 0.],-0.06103515625,-0.18310546875,-0.06103515625,[0. 0. 0. 0. 0. 0. 0. 0. 0.],-0.0380859375,0.02294921875,1.0009765625,[0. 0. 0. 0. 0. 0. 0. 0. 0.]
2.4640719890594482,0.019653987139463425,-0.007339806295931339,-0.98563152551651,0.16760201752185822,[0. 0. 0. 0. 0. 0. 0. 0. 0.],-0.06103515625,-0.6103515625,0.0,[0. 0. 0. 0. 0. 0. 0. 0. 0.],-0.03662109375,0.021484375,1.0048828125,[0. 0. 0. 0. 0. 0. 0. 0. 0.]
2.4832375049591064,0.019437039270997047,-0.007406347896903753,-0.985641598701477,0.16756542026996613,[0. 0. 0. 0. 0. 0. 0. 0. 0.],-0.06103515625,-1.0986328125,-0.244140625,[0. 0. 0. 0. 0. 0. 0. 0. 0.],-0.03564453125,0.0205078125,1.00732421875,[0. 0. 0. 0. 0. 0. 0. 0. 0.]
2.5038092136383057,0.01988985203206539,-0.006879139691591263,-0.9856438636779785,0.16752107441425323,[0. 0. 0. 0. 0. 0. 0. 0. 0.],-0.06103515625,-0.732421875,-0.18310546875,[0. 0. 0. 0. 0. 0. 0. 0. 0.],-0.037109375,0.02001953125,1.00390625,[0. 0. 0. 0. 0. 0. 0. 0. 0.]
2.5236430168151855,0.02030041627585888,-0.007351153530180454,-0.985633373260498,0.16751308739185333,[0. 0. 0. 0. 0. 0. 0. 0. 0.],-0.1220703125,-0.42724609375,-0.1220703125,[0. 0. 0. 0. 0. 0. 0. 0. 0.],-0.03759765625,0.02099609375,1.00244140625,[0. 0. 0. 0. 0. 0. 0. 0. 0.]
2.543647050857544,0.019691182300448418,-0.0066713071428239346,-0.9856556057929993,0.1674841344356537,[0. 0. 0. 0. 0. 0. 0. 0. 0.],-0.30517578125,-0.54931640625,-0.1220703125,[0. 0. 0. 0. 0. 0. 0. 0. 0.],-0.037109375,0.0205078125,1.00439453125,[0. 0. 0. 0. 0. 0. 0. 0. 0.]
2.56382155418396,0.020021140575408936,-0.007215817458927631,-0.9856512546539307,0.1674472540616989,[0. 0. 0. 0. 0. 0. 0. 0. 0.],0.1220703125,-0.79345703125,-0.06103515625,[0. 0. 0. 0. 0. 0. 0. 0. 0.],-0.037109375,0.02099609375,1.00537109375,[0. 0. 0. 0. 0. 0. 0. 0. 0.]
2.5834407806396484,0.02064884640276432,-0.007315439637750387,-0.9856451749801636,0.16740289330482483,[0. 0. 0. 0. 0. 0. 0. 0. 0.],0.3662109375,-0.67138671875,-0.3662109375,[0. 0. 0. 0. 0. 0. 0. 0. 0.],-0.03857421875,0.021484375,1.0068359375,[0. 0. 0. 0. 0. 0. 0. 0. 0.]
2.6047403812408447,0.019509222358465195,-0.007318486925214529,-0.9856711626052856,0.16738688945770264,[0. 0. 0. 0. 0. 0. 0. 0. 0.],0.06103515625,-0.732421875,-0.1220703125,[0. 0. 0. 0. 0. 0. 0. 0. 0.],-0.0361328125,0.02099609375,1.005859375,[0. 0. 0. 0. 0. 0. 0. 0. 0.]
2.6243672370910645,0.019177943468093872,-0.007174162659794092,-0.9856799244880676,0.16737933456897736,[0. 0. 0. 0. 0. 0. 0. 0. 0.],-0.732421875,-0.67138671875,-0.06103515625,[0. 0. 0. 0. 0. 0. 0. 0. 0.],-0.03564453125,0.02099609375,1.00341796875,[0. 0. 0. 0. 0. 0. 0. 0. 0.]
2.643296003341675,0.020308764651417732,-0.007127753458917141,-0.985664427280426,0.16733932495117188,[0. 0. 0. 0. 0. 0. 0. 0. 0.],-0.06103515625,-0.48828125,-0.1220703125,[0. 0. 0. 0. 0. 0. 0. 0. 0.],-0.0380859375,0.021484375,1.005859375,[0. 0. 0. 0. 0. 0. 0. 0. 0.]
2.663733959197998,0.019560283049941063,-0.007839305326342583,-0.985675573348999,0.16733089089393616,[0. 0. 0. 0. 0. 0. 0. 0. 0.],0.30517578125,-0.48828125,-0.1220703125,[0. 0. 0. 0. 0. 0. 0. 0. 0.],-0.0361328125,0.02197265625,1.00537109375,[0. 0. 0. 0. 0. 0. 0. 0. 0.]
2.6834776401519775,0.019114479422569275,-0.006940437015146017,-0.9856963753700256,0.1672998070716858,[0. 0. 0. 0. 0. 0. 0. 0. 0.],-0.1220703125,-0.9765625,-0.06103515625,[0. 0. 0. 0. 0. 0. 0. 0. 0.],-0.03564453125,0.0205078125,1.00341796875,[0. 0. 0. 0. 0. 0. 0. 0. 0.]
2.7036662101745605,0.019461702555418015,-0.007011268753558397,-0.985696017742157,0.167258620262146,[0. 0. 0. 0. 0. 0. 0. 0. 0.],0.244140625,-0.79345703125,-0.06103515625,[0. 0. 0. 0. 0. 0. 0. 0. 0.],-0.03662109375,0.0205078125,1.00537109375,[0. 0. 0. 0. 0. 0. 0. 0. 0.]
2.723520040512085,0.020468078553676605,-0.007662144489586353,-0.9856739640235901,0.167240172624588,[0. 0. 0. 0. 0. 0. 0. 0. 0.],-0.06103515625,-0.3662109375,-0.30517578125,[0. 0. 0. 0. 0. 0. 0. 0. 0.],-0.03759765625,0.02197265625,1.00146484375,[0. 0. 0. 0. 0. 0. 0. 0. 0.]
2.7484283447265625,0.02000773511826992,-0.007427141070365906,-0.9856891632080078,0.16721712052822113,[0. 0. 0. 0. 0. 0. 0. 0. 0.],-0.30517578125,-0.30517578125,-0.1220703125,[0. 0. 0. 0. 0. 0. 0. 0. 0.],-0.03662109375,0.02197265625,1.00390625,[0. 0. 0. 0. 0. 0. 0. 0. 0.]
2.7678005695343018,0.019890477880835533,-0.008216149173676968,-0.9856886863708496,0.16719655692577362,[0. 0. 0. 0. 0. 0. 0. 0. 0.],-0.48828125,-0.67138671875,-0.1220703125,[0. 0. 0. 0. 0. 0. 0. 0. 0.],-0.03662109375,0.02294921875,1.001953125,[0. 0. 0. 0. 0. 0. 0. 0. 0.]
2.7834291458129883,0.019495496526360512,-0.00770922563970089,-0.9857072234153748,0.16715848445892334,[0. 0. 0. 0. 0. 0. 0. 0. 0.],0.18310546875,-0.8544921875,0.0,[0. 0. 0. 0. 0. 0. 0. 0. 0.],-0.0361328125,0.021484375,1.00390625,[0. 0. 0. 0. 0. 0. 0. 0. 0.]
2.803449869155884,0.018758146092295647,-0.007487438153475523,-0.9857263565063477,0.16713948547840118,[0. 0. 0. 0. 0. 0. 0. 0. 0.],0.1220703125,-0.54931640625,-0.18310546875,[0. 0. 0. 0. 0. 0. 0. 0. 0.],-0.03466796875,0.02099609375,1.0048828125,[0. 0. 0. 0. 0. 0. 0. 0. 0.]
2.8235299587249756,0.019846785813570023,-0.00714965770021081,-0.9857154488563538,0.16709297895431519,[0. 0. 0. 0. 0. 0. 0. 0. 0.],-0.54931640625,-0.67138671875,-0.1220703125,[0. 0. 0. 0. 0. 0. 0. 0. 0.],-0.037109375,0.02099609375,1.00341796875,[0. 0. 0. 0. 0. 0. 0. 0. 0.]
2.8433754444122314,0.019569983705878258,-0.007956011220812798,-0.9857156872749329,0.16708804666996002,[0. 0. 0. 0. 0. 0. 0. 0. 0.],-0.48828125,-0.6103515625,-0.1220703125,[0. 0. 0. 0. 0. 0. 0. 0. 0.],-0.0361328125,0.0224609375,1.00341796875,[0. 0. 0. 0. 0. 0. 0. 0. 0.]
2.864961862564087,0.01981636881828308,-0.007285477593541145,-0.9857237339019775,0.16704201698303223,[0. 0. 0. 0. 0. 0. 0. 0. 0.],0.0,-0.30517578125,-0.06103515625,[0. 0. 0. 0. 0. 0. 0. 0. 0.],-0.037109375,0.021484375,1.0029296875,[0. 0. 0. 0. 0. 0. 0. 0. 0.]
2.878668785095215,0.019650153815746307,-0.007055722177028656,-0.985734760761261,0.16700617969036102,[0. 0. 0. 0. 0. 0. 0. 0. 0.],0.30517578125,-0.8544921875,-0.18310546875,[0. 0. 0. 0. 0. 0. 0. 0. 0.],-0.03662109375,0.0205078125,1.0029296875,[0. 0. 0. 0. 0. 0. 0. 0. 0.]
2.9046733379364014,0.019216017797589302,-0.007493931334465742,-0.9857436418533325,0.16698558628559113,[0. 0. 0. 0. 0. 0. 0. 0. 0.],0.0,-0.91552734375,-0.1220703125,[0. 0. 0. 0. 0. 0. 0. 0. 0.],-0.03564453125,0.02099609375,1.00634765625,[0. 0. 0. 0. 0. 0. 0. 0. 0.]
2.9237935543060303,0.02008603699505329,-0.007613506633788347,-0.9857321381568909,0.1669451743364334,[0. 0. 0. 0. 0. 0. 0. 0. 0.],0.0,-0.91552734375,-0.18310546875,[0. 0. 0. 0. 0. 0. 0. 0. 0.],-0.037109375,0.02197265625,1.00341796875,[0. 0. 0. 0. 0. 0. 0. 0. 0.]
2.9471514225006104,0.02048720233142376,-0.008051903918385506,-0.9857251048088074,0.16691765189170837,[0. 0. 0. 0. 0. 0. 0. 0. 0.],-0.18310546875,-0.244140625,-0.30517578125,[0. 0. 0. 0. 0. 0. 0. 0. 0.],-0.037109375,0.0224609375,1.00244140625,[0. 0. 0. 0. 0. 0. 0. 0. 0.]
2.9666049480438232,0.019272133708000183,-0.007432318292558193,-0.9857558608055115,0.1669096052646637,[0. 0. 0. 0. 0. 0. 0. 0. 0.],0.06103515625,-0.54931640625,-0.06103515625,[0. 0. 0. 0. 0. 0. 0. 0. 0.],-0.0361328125,0.021484375,1.0029296875,[0. 0. 0. 0. 0. 0. 0. 0. 0.]
2.9819185733795166,0.01879533939063549,-0.007829776965081692,-0.9857664108276367,0.16688372194766998,[0. 0. 0. 0. 0. 0. 0. 0. 0.],-0.06103515625,-0.79345703125,-0.1220703125,[0. 0. 0. 0. 0. 0. 0. 0. 0.],-0.03466796875,0.021484375,1.00537109375,[0. 0. 0. 0. 0. 0. 0. 0. 0.]
3.0034189224243164,0.019509943202137947,-0.007686621509492397,-0.985759973526001,0.16684627532958984,[0. 0. 0. 0. 0. 0. 0. 0. 0.],-0.1220703125,-0.732421875,-0.30517578125,[0. 0. 0. 0. 0. 0. 0. 0. 0.],-0.0361328125,0.02197265625,1.0048828125,[0. 0. 0. 0. 0. 0. 0. 0. 0.]
3.024121046066284,0.019955947995185852,-0.0074311052449047565,-0.9857603907585144,0.166802316904068,[0. 0. 0. 0. 0. 0. 0. 0. 0.],-0.1220703125,-0.54931640625,-0.244140625,[0. 0. 0. 0. 0. 0. 0. 0. 0.],-0.037109375,0.021484375,1.00439453125,[0. 0. 0. 0. 0. 0. 0. 0. 0.]
3.0433731079101562,0.019990764558315277,-0.007629922591149807,-0.9857591986656189,0.16679686307907104,[0. 0. 0. 0. 0. 0. 0. 0. 0.],-0.3662109375,-0.54931640625,-0.06103515625,[0. 0. 0. 0. 0. 0. 0. 0. 0.],-0.037109375,0.02197265625,1.005859375,[0. 0. 0. 0. 0. 0. 0. 0. 0.]
3.063509464263916,0.020158791914582253,-0.007731893565505743,-0.9857622981071472,0.1667535901069641,[0. 0. 0. 0. 0. 0. 0. 0. 0.],-0.1220703125,-0.6103515625,-0.18310546875,[0. 0. 0. 0. 0. 0. 0. 0. 0.],-0.037109375,0.02197265625,1.0029296875,[0. 0. 0. 0. 0. 0. 0. 0. 0.]
3.084750175476074,0.020160354673862457,-0.007050973363220692,-0.9857727885246277,0.16672106087207794,[0. 0. 0. 0. 0. 0. 0. 0. 0.],0.18310546875,-0.6103515625,-0.1220703125,[0. 0. 0. 0. 0. 0. 0. 0. 0.],-0.03759765625,0.0205078125,1.00390625,[0. 0. 0. 0. 0. 0. 0. 0. 0.]
3.103454828262329,0.020242609083652496,-0.0074138580821454525,-0.9857721328735352,0.16669952869415283,[0. 0. 0. 0. 0. 0. 0. 0. 0.],-0.1220703125,-0.48828125,-0.244140625,[0. 0. 0. 0. 0. 0. 0. 0. 0.],-0.0380859375,0.021484375,1.001953125,[0. 0. 0. 0. 0. 0. 0. 0. 0.]
3.1192626953125,0.020138386636972427,-0.008179564028978348,-0.9857698082923889,0.16668961942195892,[0. 0. 0. 0. 0. 0. 0. 0. 0.],-0.6103515625,-0.67138671875,-0.30517578125,[0. 0. 0. 0. 0. 0. 0. 0. 0.],-0.037109375,0.02294921875,1.0029296875,[0. 0. 0. 0. 0. 0. 0. 0. 0.]
3.1465702056884766,0.01997203938663006,-0.00684052798897028,-0.9857921004295349,0.1666383445262909,[0. 0. 0. 0. 0. 0. 0. 0. 0.],0.1220703125,-0.67138671875,-0.18310546875,[0. 0. 0. 0. 0. 0. 0. 0. 0.],-0.037109375,0.0205078125,1.005859375,[0. 0. 0. 0. 0. 0. 0. 0. 0.]
3.164396286010742,0.020627135410904884,-0.0066486685536801815,-0.9857823848724365,0.16662399470806122,[0. 0. 0. 0. 0. 0. 0. 0. 0.],0.0,-0.42724609375,0.06103515625,[0. 0. 0. 0. 0. 0. 0. 0. 0.],-0.03857421875,0.02001953125,1.0048828125,[0. 0. 0. 0. 0. 0. 0. 0. 0.]
3.179417610168457,0.019888153299689293,-0.00700106518343091,-0.9857956171035767,0.16662074625492096,[0. 0. 0. 0. 0. 0. 0. 0. 0.],-0.06103515625,-0.9765625,-0.06103515625,[0. 0. 0. 0. 0. 0. 0. 0. 0.],-0.037109375,0.02099609375,1.00634765625,[0. 0. 0. 0. 0. 0. 0. 0. 0.]
3.2035255432128906,0.01981806755065918,-0.007477281149476767,-0.9857997298240662,0.16658440232276917,[0. 0. 0. 0. 0. 0. 0. 0. 0.],0.18310546875,-0.79345703125,-0.244140625,[0. 0. 0. 0. 0. 0. 0. 0. 0.],-0.03662109375,0.02099609375,1.00537109375,[0. 0. 0. 0. 0. 0. 0. 0. 0.]
3.223832845687866,0.019268440082669258,-0.00765074510127306,-0.9858126044273376,0.1665649116039276,[0. 0. 0. 0. 0. 0. 0. 0. 0.],0.1220703125,-0.67138671875,-0.18310546875,[0. 0. 0. 0. 0. 0. 0. 0. 0.],-0.03564453125,0.021484375,1.00439453125,[0. 0. 0. 0. 0. 0. 0. 0. 0.]
3.243804931640625,0.020102115347981453,-0.008060782216489315,-0.985795795917511,0.16654619574546814,[0. 0. 0. 0. 0. 0. 0. 0. 0.],-0.3662109375,-0.30517578125,0.0,[0. 0. 0. 0. 0. 0. 0. 0. 0.],-0.037109375,0.0224609375,1.0048828125,[0. 0. 0. 0. 0. 0. 0. 0. 0.]
3.263585329055786,0.019027389585971832,-0.007943060249090195,-0.9858207702636719,0.16653044521808624,[0. 0. 0. 0. 0. 0. 0. 0. 0.],-0.30517578125,-0.6103515625,0.0,[0. 0. 0. 0. 0. 0. 0. 0. 0.],-0.03564453125,0.0224609375,1.0048828125,[0. 0. 0. 0. 0. 0. 0. 0. 0.]
3.2793383598327637,0.019496945664286613,-0.007984170690178871,-0.9858191609382629,0.1664833426475525,[0. 0. 0. 0. 0. 0. 0. 0. 0.],0.42724609375,-0.48828125,-0.1220703125,[0. 0. 0. 0. 0. 0. 0. 0. 0.],-0.03564453125,0.02197265625,1.0048828125,[0. 0. 0. 0. 0. 0. 0. 0. 0.]
3.305063247680664,0.018725434318184853,-0.008900094777345657,-0.9858253598213196,0.16648875176906586,[0. 0. 0. 0. 0. 0. 0. 0. 0.],0.244140625,-0.732421875,-0.1220703125,[0. 0. 0. 0. 0. 0. 0. 0. 0.],-0.03466796875,0.02392578125,1.00390625,[0. 0. 0. 0. 0. 0. 0. 0. 0.]
3.323723077774048,0.019971169531345367,-0.009122956544160843,-0.9858031868934631,0.16646353900432587,[0. 0. 0. 0. 0. 0. 0. 0. 0.],-0.54931640625,-0.67138671875,-0.18310546875,[0. 0. 0. 0. 0. 0. 0. 0. 0.],-0.03662109375,0.0244140625,1.0048828125,[0. 0. 0. 0. 0. 0. 0. 0. 0.]
3.344792127609253,0.019585946574807167,-0.0075906491838395596,-0.9858336448669434,0.16640596091747284,[0. 0. 0. 0. 0. 0. 0. 0. 0.],-0.48828125,-0.67138671875,-0.244140625,[0. 0. 0. 0. 0. 0. 0. 0. 0.],-0.03662109375,0.021484375,1.00439453125,[0. 0. 0. 0. 0. 0. 0. 0. 0.]
3.3670766353607178,0.019037850201129913,-0.007943845354020596,-0.9858457446098328,0.16638076305389404,[0. 0. 0. 0. 0. 0. 0. 0. 0.],0.1220703125,-0.30517578125,-0.18310546875,[0. 0. 0. 0. 0. 0. 0. 0. 0.],-0.03515625,0.02197265625,1.005859375,[0. 0. 0. 0. 0. 0. 0. 0. 0.]
3.3835742473602295,0.019171282649040222,-0.007940815761685371,-0.9858482480049133,0.16635102033615112,[0. 0. 0. 0. 0. 0. 0. 0. 0.],0.1220703125,-0.67138671875,-0.18310546875,[0. 0. 0. 0. 0. 0. 0. 0. 0.],-0.03564453125,0.0224609375,1.0048828125,[0. 0. 0. 0. 0. 0. 0. 0. 0.]
3.4037091732025146,0.019934531301259995,-0.007832784205675125,-0.9858384728431702,0.16632409393787384,[0. 0. 0. 0. 0. 0. 0. 0. 0.],-0.48828125,-1.0986328125,-0.18310546875,[0. 0. 0. 0. 0. 0. 0. 0. 0.],-0.03662109375,0.02197265625,1.0048828125,[0. 0. 0. 0. 0. 0. 0. 0. 0.]
3.424422025680542,0.01961488462984562,-0.007424505427479744,-0.9858539700508118,0.16628898680210114,[0. 0. 0. 0. 0. 0. 0. 0. 0.],-0.1220703125,-0.732421875,-0.244140625,[0. 0. 0. 0. 0. 0. 0. 0. 0.],-0.0361328125,0.02099609375,1.00341796875,[0. 0. 0. 0. 0. 0. 0. 0. 0.]
3.4435553550720215,0.019660891965031624,-0.007514339871704578,-0.9858540296554565,0.16627979278564453,[0. 0. 0. 0. 0. 0. 0. 0. 0.],0.18310546875,-0.1220703125,-0.06103515625,[0. 0. 0. 0. 0. 0. 0. 0. 0.],-0.03662109375,0.02099609375,1.0009765625,[0. 0. 0. 0. 0. 0. 0. 0. 0.]
3.459486484527588,0.020064499229192734,-0.007147547323256731,-0.9858556389808655,0.1662379652261734,[0. 0. 0. 0. 0. 0. 0. 0. 0.],-0.30517578125,-0.54931640625,-0.1220703125,[0. 0. 0. 0. 0. 0. 0. 0. 0.],-0.03759765625,0.021484375,1.00390625,[0. 0. 0. 0. 0. 0. 0. 0. 0.]
3.4834115505218506,0.019395295530557632,-0.007397014647722244,-0.9858689308166504,0.166227787733078,[0. 0. 0. 0. 0. 0. 0. 0. 0.],0.0,-1.0986328125,-0.1220703125,[0. 0. 0. 0. 0. 0. 0. 0. 0.],-0.0361328125,0.02099609375,1.0068359375,[0. 0. 0. 0. 0. 0. 0. 0. 0.]
3.504340887069702,0.019006581977009773,-0.008003085851669312,-0.9858739972114563,0.16621457040309906,[0. 0. 0. 0. 0. 0. 0. 0. 0.],0.0,-0.54931640625,-0.30517578125,[0. 0. 0. 0. 0. 0. 0. 0. 0.],-0.03515625,0.02197265625,1.005859375,[0. 0. 0. 0. 0. 0. 0. 0. 0.]
3.524181365966797,0.01981518417596817,-0.008194624446332455,-0.9858617782592773,0.16618293523788452,[0. 0. 0. 0. 0. 0. 0. 0. 0.],-0.1220703125,-0.42724609375,-0.1220703125,[0. 0. 0. 0. 0. 0. 0. 0. 0.],-0.03662109375,0.02294921875,1.001953125,[0. 0. 0. 0. 0. 0. 0. 0. 0.]
3.5434436798095703,0.01989709958434105,-0.007185843773186207,-0.98587566614151,0.16613765060901642,[0. 0. 0. 0. 0. 0. 0. 0. 0.],-0.30517578125,-0.67138671875,-0.18310546875,[0. 0. 0. 0. 0. 0. 0. 0. 0.],-0.037109375,0.02099609375,1.0029296875,[0. 0. 0. 0. 0. 0. 0. 0. 0.]
3.5592687129974365,0.01939515396952629,-0.007514217868447304,-0.9858868718147278,0.16611626744270325,[0. 0. 0. 0. 0. 0. 0. 0. 0.],0.1220703125,-0.9765625,-0.244140625,[0. 0. 0. 0. 0. 0. 0. 0. 0.],-0.0361328125,0.021484375,1.0087890625,[0. 0. 0. 0. 0. 0. 0. 0. 0.]
3.583409309387207,0.019095061346888542,-0.006680366583168507,-0.9859036803245544,0.16608668863773346,[0. 0. 0. 0. 0. 0. 0. 0. 0.],0.244140625,-0.48828125,-0.18310546875,[0. 0. 0. 0. 0. 0. 0. 0. 0.],-0.03564453125,0.01953125,1.0048828125,[0. 0. 0. 0. 0. 0. 0. 0. 0.]
3.6053130626678467,0.019647326320409775,-0.007386750541627407,-0.9858903288841248,0.166071355342865,[0. 0. 0. 0. 0. 0. 0. 0. 0.],-0.06103515625,-0.8544921875,-0.1220703125,[0. 0. 0. 0. 0. 0. 0. 0. 0.],-0.037109375,0.02197265625,1.005859375,[0. 0. 0. 0. 0. 0. 0. 0. 0.]
3.628953456878662,0.019687460735440254,-0.008124218322336674,-0.9858857989311218,0.1660592406988144,[0. 0. 0. 0. 0. 0. 0. 0. 0.],-0.42724609375,-0.732421875,-0.18310546875,[0. 0. 0. 0. 0. 0. 0. 0. 0.],-0.03662109375,0.0224609375,1.005859375,[0. 0. 0. 0. 0. 0. 0. 0. 0.]
3.6437721252441406,0.019667699933052063,-0.00785847008228302,-0.9858943223953247,0.16602368652820587,[0. 0. 0. 0. 0. 0. 0. 0. 0.],-0.06103515625,-0.244140625,-0.244140625,[0. 0. 0. 0. 0. 0. 0. 0. 0.],-0.03662109375,0.02197265625,1.00537109375,[0. 0. 0. 0. 0. 0. 0. 0. 0.]
3.663461446762085,0.01961282640695572,-0.007062636315822601,-0.985909104347229,0.16597789525985718,[0. 0. 0. 0. 0. 0. 0. 0. 0.],0.18310546875,-0.6103515625,-0.1220703125,[0. 0. 0. 0. 0. 0. 0. 0. 0.],-0.03662109375,0.0205078125,1.0048828125,[0. 0. 0. 0. 0. 0. 0. 0. 0.]
3.6791818141937256,0.01966310292482376,-0.007234314456582069,-0.9859132766723633,0.1659402698278427,[0. 0. 0. 0. 0. 0. 0. 0. 0.],0.0,-0.91552734375,-0.244140625,[0. 0. 0. 0. 0. 0. 0. 0. 0.],-0.03662109375,0.02099609375,1.00537109375,[0. 0. 0. 0. 0. 0. 0. 0. 0.]
3.7034127712249756,0.019731173291802406,-0.008063273504376411,-0.985906720161438,0.1659325808286667,[0. 0. 0. 0. 0. 0. 0. 0. 0.],-0.244140625,-0.91552734375,-0.18310546875,[0. 0. 0. 0. 0. 0. 0. 0. 0.],-0.03662109375,0.0224609375,1.00537109375,[0. 0. 0. 0. 0. 0. 0. 0. 0.]
3.7216384410858154,0.01855572871863842,-0.007717909291386604,-0.9859349131584167,0.16591757535934448,[0. 0. 0. 0. 0. 0. 0. 0. 0.],0.06103515625,-0.67138671875,-0.18310546875,[0. 0. 0. 0. 0. 0. 0. 0. 0.],-0.03466796875,0.021484375,1.00390625,[0. 0. 0. 0. 0. 0. 0. 0. 0.]
3.743518352508545,0.01972273178398609,-0.007483926136046648,-0.9859175682067871,0.165896475315094,[0. 0. 0. 0. 0. 0. 0. 0. 0.],-0.18310546875,-0.42724609375,-0.06103515625,[0. 0. 0. 0. 0. 0. 0. 0. 0.],-0.03662109375,0.021484375,1.00634765625,[0. 0. 0. 0. 0. 0. 0. 0. 0.]
3.763683319091797,0.019425351172685623,-0.005879507400095463,-0.9859446883201599,0.16583503782749176,[0. 0. 0. 0. 0. 0. 0. 0. 0.],-0.18310546875,-0.79345703125,-0.1220703125,[0. 0. 0. 0. 0. 0. 0. 0. 0.],-0.03662109375,0.0185546875,1.0068359375,[0. 0. 0. 0. 0. 0. 0. 0. 0.]
3.783414602279663,0.019237056374549866,-0.007678728550672531,-0.9859360456466675,0.16583490371704102,[0. 0. 0. 0. 0. 0. 0. 0. 0.],0.1220703125,-0.67138671875,-0.18310546875,[0. 0. 0. 0. 0. 0. 0. 0. 0.],-0.03515625,0.02294921875,1.00439453125,[0. 0. 0. 0. 0. 0. 0. 0. 0.]
3.7992613315582275,0.019764835014939308,-0.007860401645302773,-0.9859277009963989,0.16581352055072784,[0. 0. 0. 0. 0. 0. 0. 0. 0.],0.244140625,-0.48828125,-0.30517578125,[0. 0. 0. 0. 0. 0. 0. 0. 0.],-0.03662109375,0.021484375,1.0029296875,[0. 0. 0. 0. 0. 0. 0. 0. 0.]
3.8234338760375977,0.019655555486679077,-0.007807824295014143,-0.9859324097633362,0.16580137610435486,[0. 0. 0. 0. 0. 0. 0. 0. 0.],-0.6103515625,-0.67138671875,-0.06103515625,[0. 0. 0. 0. 0. 0. 0. 0. 0.],-0.03662109375,0.02197265625,1.00634765625,[0. 0. 0. 0. 0. 0. 0. 0. 0.]
3.8405070304870605,0.019510678946971893,-0.008410071022808552,-0.9859338402748108,0.16578026115894318,[0. 0. 0. 0. 0. 0. 0. 0. 0.],-0.30517578125,-0.48828125,-0.1220703125,[0. 0. 0. 0. 0. 0. 0. 0. 0.],-0.0361328125,0.0234375,1.00390625,[0. 0. 0. 0. 0. 0. 0. 0. 0.]
3.8637900352478027,0.01939791440963745,-0.007274341769516468,-0.9859528541564941,0.16573460400104523,[0. 0. 0. 0. 0. 0. 0. 0. 0.],0.3662109375,-0.48828125,0.1220703125,[0. 0. 0. 0. 0. 0. 0. 0. 0.],-0.0361328125,0.02099609375,1.0029296875,[0. 0. 0. 0. 0. 0. 0. 0. 0.]
3.879239320755005,0.01991182006895542,-0.008025080896914005,-0.9859409332275391,0.16570928692817688,[0. 0. 0. 0. 0. 0. 0. 0. 0.],0.1220703125,-0.732421875,-0.18310546875,[0. 0. 0. 0. 0. 0. 0. 0. 0.],-0.03662109375,0.02197265625,1.00390625,[0. 0. 0. 0. 0. 0. 0. 0. 0.]
3.9041051864624023,0.01941346749663353,-0.007617058698087931,-0.9859590530395508,0.16568003594875336,[0. 0. 0. 0. 0. 0. 0. 0. 0.],-0.42724609375,-1.0986328125,-0.30517578125,[0. 0. 0. 0. 0. 0. 0. 0. 0.],-0.0361328125,0.021484375,1.0048828125,[0. 0. 0. 0. 0. 0. 0. 0. 0.]
3.9238836765289307,0.019606856629252434,-0.007569805718958378,-0.985959529876709,0.16565699875354767,[0. 0. 0. 0. 0. 0. 0. 0. 0.],-0.18310546875,-0.48828125,-0.244140625,[0. 0. 0. 0. 0. 0. 0. 0. 0.],-0.03662109375,0.02197265625,1.00390625,[0. 0. 0. 0. 0. 0. 0. 0. 0.]
3.943979263305664,0.020020844414830208,-0.007836809381842613,-0.9859542846679688,0.16562563180923462,[0. 0. 0. 0. 0. 0. 0. 0. 0.],-0.1220703125,-0.244140625,-0.1220703125,[0. 0. 0. 0. 0. 0. 0. 0. 0.],-0.037109375,0.02197265625,1.00341796875,[0. 0. 0. 0. 0. 0. 0. 0. 0.]
3.961487293243408,0.020026441663503647,-0.006983221508562565,-0.9859666228294373,0.16558979451656342,[0. 0. 0. 0. 0. 0. 0. 0. 0.],0.1220703125,-0.732421875,-0.06103515625,[0. 0. 0. 0. 0. 0. 0. 0. 0.],-0.037109375,0.02099609375,1.0048828125,[0. 0. 0. 0. 0. 0. 0. 0. 0.]
3.984039306640625,0.019802263006567955,-0.007553715258836746,-0.9859700798988342,0.16557124257087708,[0. 0. 0. 0. 0. 0. 0. 0. 0.],-0.244140625,-0.9765625,-0.244140625,[0. 0. 0. 0. 0. 0. 0. 0. 0.],-0.037109375,0.021484375,1.00390625,[0. 0. 0. 0. 0. 0. 0. 0. 0.]
4.003520727157593,0.019457148388028145,-0.00842051301151514,-0.9859709739685059,0.1655651479959488,[0. 0. 0. 0. 0. 0. 0. 0. 0.],0.06103515625,-0.54931640625,-0.1220703125,[0. 0. 0. 0. 0. 0. 0. 0. 0.],-0.0361328125,0.02294921875,1.00390625,[0. 0. 0. 0. 0. 0. 0. 0. 0.]
4.0238566398620605,0.020169325172901154,-0.00759867625311017,-0.9859720468521118,0.1655135154724121,[0. 0. 0. 0. 0. 0. 0. 0. 0.],-0.18310546875,-0.42724609375,-0.18310546875,[0. 0. 0. 0. 0. 0. 0. 0. 0.],-0.03759765625,0.02197265625,1.0048828125,[0. 0. 0. 0. 0. 0. 0. 0. 0.]
4.038666725158691,0.019733691588044167,-0.00791223719716072,-0.9859790205955505,0.16550947725772858,[0. 0. 0. 0. 0. 0. 0. 0. 0.],-0.30517578125,-0.6103515625,0.06103515625,[0. 0. 0. 0. 0. 0. 0. 0. 0.],-0.03662109375,0.0224609375,1.00537109375,[0. 0. 0. 0. 0. 0. 0. 0. 0.]
4.06364631652832,0.020037343725562096,-0.00778398010879755,-0.9859780073165894,0.16548548638820648,[0. 0. 0. 0. 0. 0. 0. 0. 0.],0.0,-0.6103515625,0.06103515625,[0. 0. 0. 0. 0. 0. 0. 0. 0.],-0.037109375,0.021484375,1.0048828125,[0. 0. 0. 0. 0. 0. 0. 0. 0.]
4.08483624458313,0.019528336822986603,-0.00738693680614233,-0.9859945774078369,0.16546592116355896,[0. 0. 0. 0. 0. 0. 0. 0. 0.],0.3662109375,-0.54931640625,-0.1220703125,[0. 0. 0. 0. 0. 0. 0. 0. 0.],-0.03662109375,0.02099609375,1.0048828125,[0. 0. 0. 0. 0. 0. 0. 0. 0.]
4.103835821151733,0.020125696435570717,-0.008006265386939049,-0.9859818816184998,0.16544069349765778,[0. 0. 0. 0. 0. 0. 0. 0. 0.],-0.06103515625,-0.8544921875,-0.30517578125,[0. 0. 0. 0. 0. 0. 0. 0. 0.],-0.037109375,0.0224609375,1.0048828125,[0. 0. 0. 0. 0. 0. 0. 0. 0.]
4.131076335906982,0.01906713843345642,-0.007834264077246189,-0.9860066175460815,0.16542726755142212,[0. 0. 0. 0. 0. 0. 0. 0. 0.],-0.67138671875,-0.79345703125,-0.244140625,[0. 0. 0. 0. 0. 0. 0. 0. 0.],-0.03564453125,0.02197265625,1.0029296875,[0. 0. 0. 0. 0. 0. 0. 0. 0.]
4.148649215698242,0.019908608868718147,-0.00745224766433239,-0.9859998226165771,0.16538605093955994,[0. 0. 0. 0. 0. 0. 0. 0. 0.],-0.1220703125,-0.244140625,-0.1220703125,[0. 0. 0. 0. 0. 0. 0. 0. 0.],-0.037109375,0.021484375,1.00390625,[0. 0. 0. 0. 0. 0. 0. 0. 0.]
4.159226894378662,0.02001485601067543,-0.00689923670142889,-0.9860080480575562,0.16534815728664398,[0. 0. 0. 0. 0. 0. 0. 0. 0.],0.1220703125,-0.48828125,0.0,[0. 0. 0. 0. 0. 0. 0. 0. 0.],-0.03759765625,0.0205078125,1.0048828125,[0. 0. 0. 0. 0. 0. 0. 0. 0.]
4.184146881103516,0.01972493901848793,-0.006687526125460863,-0.9860212802886963,0.1653129756450653,[0. 0. 0. 0. 0. 0. 0. 0. 0.],-0.1220703125,-0.9765625,-0.18310546875,[0. 0. 0. 0. 0. 0. 0. 0. 0.],-0.037109375,0.0205078125,1.00634765625,[0. 0. 0. 0. 0. 0. 0. 0. 0.]
4.2054784297943115,0.01985454000532627,-0.00709149893373251,-0.9860209226608276,0.1652826964855194,[0. 0. 0. 0. 0. 0. 0. 0. 0.],0.18310546875,-0.8544921875,-0.1220703125,[0. 0. 0. 0. 0. 0. 0. 0. 0.],-0.03662109375,0.0205078125,1.00439453125,[0. 0. 0. 0. 0. 0. 0. 0. 0.]
4.240767002105713,0.01964329555630684,-0.0077087837271392345,-0.9860251545906067,0.16525472700595856,[0. 0. 0. 0. 0. 0. 0. 0. 0.],-0.244140625,-0.3662109375,-0.1220703125,[0. 0. 0. 0. 0. 0. 0. 0. 0.],-0.0361328125,0.02197265625,1.00439453125,[0. 0. 0. 0. 0. 0. 0. 0. 0.]
4.240951776504517,0.01964329555630684,-0.0077087837271392345,-0.9860251545906067,0.16525472700595856,[0. 0. 0. 0. 0. 0. 0. 0. 0.],-0.244140625,-0.3662109375,-0.1220703125,[0. 0. 0. 0. 0. 0. 0. 0. 0.],-0.0361328125,0.02197265625,1.00439453125,[0. 0. 0. 0. 0. 0. 0. 0. 0.]
4.2643983364105225,0.01963621936738491,-0.007437167689204216,-0.9860323667526245,0.16522492468357086,[0. 0. 0. 0. 0. 0. 0. 0. 0.],-0.1220703125,-0.8544921875,-0.06103515625,[0. 0. 0. 0. 0. 0. 0. 0. 0.],-0.03662109375,0.02099609375,1.0048828125,[0. 0. 0. 0. 0. 0. 0. 0. 0.]
4.2844109535217285,0.01984657347202301,-0.007876766845583916,-0.9860297441482544,0.1651955097913742,[0. 0. 0. 0. 0. 0. 0. 0. 0.],0.1220703125,-0.8544921875,-0.1220703125,[0. 0. 0. 0. 0. 0. 0. 0. 0.],-0.03662109375,0.02197265625,1.0048828125,[0. 0. 0. 0. 0. 0. 0. 0. 0.]
4.303785800933838,0.02003210037946701,-0.007874095812439919,-0.986029863357544,0.16517281532287598,[0. 0. 0. 0. 0. 0. 0. 0. 0.],0.1220703125,-0.6103515625,-0.30517578125,[0. 0. 0. 0. 0. 0. 0. 0. 0.],-0.037109375,0.0224609375,1.00341796875,[0. 0. 0. 0. 0. 0. 0. 0. 0.]
4.32560920715332,0.01885870285332203,-0.00803794153034687,-0.9860514998435974,0.1651732325553894,[0. 0. 0. 0. 0. 0. 0. 0. 0.],-0.42724609375,-0.8544921875,-0.244140625,[0. 0. 0. 0. 0. 0. 0. 0. 0.],-0.03466796875,0.02197265625,1.00244140625,[0. 0. 0. 0. 0. 0. 0. 0. 0.]
4.343435287475586,0.017898399382829666,-0.007322527002543211,-0.9860782623291016,0.16515392065048218,[0. 0. 0. 0. 0. 0. 0. 0. 0.],-0.18310546875,-0.6103515625,-0.1220703125,[0. 0. 0. 0. 0. 0. 0. 0. 0.],-0.03369140625,0.0205078125,1.00390625,[0. 0. 0. 0. 0. 0. 0. 0. 0.]
4.363443613052368,0.01961650513112545,-0.007054751738905907,-0.9860555529594421,0.16510578989982605,[0. 0. 0. 0. 0. 0. 0. 0. 0.],0.244140625,-0.54931640625,-0.06103515625,[0. 0. 0. 0. 0. 0. 0. 0. 0.],-0.03662109375,0.0205078125,1.005859375,[0. 0. 0. 0. 0. 0. 0. 0. 0.]
4.38528037071228,0.020145190879702568,-0.0070775821805000305,-0.9860503673553467,0.16507193446159363,[0. 0. 0. 0. 0. 0. 0. 0. 0.],0.1220703125,-0.48828125,0.06103515625,[0. 0. 0. 0. 0. 0. 0. 0. 0.],-0.037109375,0.02099609375,1.005859375,[0. 0. 0. 0. 0. 0. 0. 0. 0.]
4.403489112854004,0.020522596314549446,-0.006957159843295813,-0.9860466718673706,0.16505277156829834,[0. 0. 0. 0. 0. 0. 0. 0. 0.],-0.54931640625,-0.9765625,-0.18310546875,[0. 0. 0. 0. 0. 0. 0. 0. 0.],-0.03857421875,0.02099609375,1.001953125,[0. 0. 0. 0. 0. 0. 0. 0. 0.]
4.42330002784729,0.01952103152871132,-0.007202250882983208,-0.9860689043998718,0.1650308221578598,[0. 0. 0. 0. 0. 0. 0. 0. 0.],-0.30517578125,-0.54931640625,-0.244140625,[0. 0. 0. 0. 0. 0. 0. 0. 0.],-0.0361328125,0.02099609375,1.00341796875,[0. 0. 0. 0. 0. 0. 0. 0. 0.]
4.443480491638184,0.01935107633471489,-0.007983101531863213,-0.9860702753067017,0.16500671207904816,[0. 0. 0. 0. 0. 0. 0. 0. 0.],0.0,-0.18310546875,-0.18310546875,[0. 0. 0. 0. 0. 0. 0. 0. 0.],-0.03662109375,0.0224609375,1.00439453125,[0. 0. 0. 0. 0. 0. 0. 0. 0.]
4.463501691818237,0.01966298371553421,-0.006999422330409288,-0.986077606678009,0.16497109830379486,[0. 0. 0. 0. 0. 0. 0. 0. 0.],-0.1220703125,-0.732421875,-0.1220703125,[0. 0. 0. 0. 0. 0. 0. 0. 0.],-0.03662109375,0.0205078125,1.00390625,[0. 0. 0. 0. 0. 0. 0. 0. 0.]
4.484815835952759,0.019528064876794815,-0.00660307239741087,-0.9860920310020447,0.16491685807704926,[0. 0. 0. 0. 0. 0. 0. 0. 0.],0.0,-0.79345703125,-0.244140625,[0. 0. 0. 0. 0. 0. 0. 0. 0.],-0.037109375,0.01953125,1.005859375,[0. 0. 0. 0. 0. 0. 0. 0. 0.]
4.505055665969849,0.019473249092698097,-0.007579633500427008,-0.9860919117927551,0.16488240659236908,[0. 0. 0. 0. 0. 0. 0. 0. 0.],0.244140625,-0.48828125,-0.48828125,[0. 0. 0. 0. 0. 0. 0. 0. 0.],-0.0361328125,0.021484375,1.0029296875,[0. 0. 0. 0. 0. 0. 0. 0. 0.]
4.518629312515259,0.020159922540187836,-0.007713680155575275,-0.9860858917236328,0.16482964158058167,[0. 0. 0. 0. 0. 0. 0. 0. 0.],-0.30517578125,-0.244140625,-0.3662109375,[0. 0. 0. 0. 0. 0. 0. 0. 0.],-0.03857421875,0.02294921875,1.00048828125,[0. 0. 0. 0. 0. 0. 0. 0. 0.]
4.53877854347229,0.020077485591173172,-0.007962075062096119,-0.9860879182815552,0.16481605172157288,[0. 0. 0. 0. 0. 0. 0. 0. 0.],-0.42724609375,-0.30517578125,-0.06103515625,[0. 0. 0. 0. 0. 0. 0. 0. 0.],-0.037109375,0.0224609375,1.00390625,[0. 0. 0. 0. 0. 0. 0. 0. 0.]
4.55904746055603,0.018276851624250412,-0.007575053256005049,-0.9861418008804321,0.16472142934799194,[0. 0. 0. 0. 0. 0. 0. 0. 0.],0.30517578125,0.54931640625,-1.3427734375,[0. 0. 0. 0. 0. 0. 0. 0. 0.],-0.0302734375,0.02001953125,1.00634765625,[0. 0. 0. 0. 0. 0. 0. 0. 0.]
4.583472728729248,0.01912812329828739,-0.008351007476449013,-0.9861955046653748,0.1642647087574005,[0. 0. 0. 0. 0. 0. 0. 0. 0.],0.42724609375,1.15966796875,-3.41796875,[0. 0. 0. 0. 0. 0. 0. 0. 0.],-0.0419921875,0.02392578125,1.00341796875,[0. 0. 0. 0. 0. 0. 0. 0. 0.]
4.606492519378662,0.02141524851322174,-0.007712026592344046,-0.9863041639328003,0.16335904598236084,[0. 0. 0. 0. 0. 0. 0. 0. 0.],-0.3662109375,-0.67138671875,-4.08935546875,[0. 0. 0. 0. 0. 0. 0. 0. 0.],-0.05615234375,0.0185546875,1.0048828125,[0. 0. 0. 0. 0. 0. 0. 0. 0.]
4.619389057159424,0.021279247477650642,-0.006455464754253626,-0.9864124655723572,0.16277626156806946,[0. 0. 0. 0. 0. 0. 0. 0. 0.],-0.244140625,-1.64794921875,-2.44140625,[0. 0. 0. 0. 0. 0. 0. 0. 0.],-0.03466796875,0.01611328125,1.0107421875,[0. 0. 0. 0. 0. 0. 0. 0. 0.]
4.643623352050781,0.019815925508737564,-0.006183797027915716,-0.9864619970321655,0.16267143189907074,[0. 0. 0. 0. 0. 0. 0. 0. 0.],0.0,-0.3662109375,0.0,[0. 0. 0. 0. 0. 0. 0. 0. 0.],-0.021484375,0.013671875,1.0068359375,[0. 0. 0. 0. 0. 0. 0. 0. 0.]
4.663899183273315,0.018018512055277824,-0.006381684448570013,-0.9864826798439026,0.16274721920490265,[0. 0. 0. 0. 0. 0. 0. 0. 0.],0.732421875,0.30517578125,0.30517578125,[0. 0. 0. 0. 0. 0. 0. 0. 0.],-0.0107421875,0.01904296875,1.00244140625,[0. 0. 0. 0. 0. 0. 0. 0. 0.]
4.683373689651489,0.01707431487739086,-0.005580195691436529,-0.986504077911377,0.1627490371465683,[0. 0. 0. 0. 0. 0. 0. 0. 0.],-5.7373046875,1.8310546875,-0.30517578125,[0. 0. 0. 0. 0. 0. 0. 0. 0.],-0.0390625,-0.04248046875,0.9775390625,[0. 0. 0. 0. 0. 0. 0. 0. 0.]
4.703531742095947,0.01697281189262867,-0.002005184069275856,-0.9865584373474121,0.16251294314861298,[0. 0. 0. 0. 0. 0. 0. 0. 0.],-6.4697265625,-3.23486328125,-4.57763671875,[0. 0. 0. 0. 0. 0. 0. 0. 0.],-0.03125,-0.34228515625,1.03857421875,[0. 0. 0. 0. 0. 0. 0. 0. 0.]
4.723482131958008,0.01680647023022175,-0.001062913448549807,-0.9866549968719482,0.16195181012153625,[0. 0. 0. 0. 0. 0. 0. 0. 0.],3.41796875,2.50244140625,-1.8310546875,[0. 0. 0. 0. 0. 0. 0. 0. 0.],-0.0810546875,-0.10791015625,1.0791015625,[0. 0. 0. 0. 0. 0. 0. 0. 0.]
4.744346857070923,0.016421133652329445,0.0010067453840747476,-0.986726701259613,0.16155466437339783,[0. 0. 0. 0. 0. 0. 0. 0. 0.],-0.18310546875,-2.44140625,-1.3427734375,[0. 0. 0. 0. 0. 0. 0. 0. 0.],-0.05029296875,-0.181640625,0.93896484375,[0. 0. 0. 0. 0. 0. 0. 0. 0.]
4.7635087966918945,0.01565474085509777,0.001750003662891686,-0.9867972135543823,0.1611928641796112,[0. 0. 0. 0. 0. 0. 0. 0. 0.],2.9296875,-0.18310546875,-0.48828125,[0. 0. 0. 0. 0. 0. 0. 0. 0.],-0.0166015625,-0.05859375,1.02734375,[0. 0. 0. 0. 0. 0. 0. 0. 0.]
4.784390687942505,0.014608165249228477,0.00407657353207469,-0.9868636727333069,0.16084203124046326,[0. 0. 0. 0. 0. 0. 0. 0. 0.],1.28173828125,-0.79345703125,-1.40380859375,[0. 0. 0. 0. 0. 0. 0. 0. 0.],-0.00634765625,-0.18359375,1.00732421875,[0. 0. 0. 0. 0. 0. 0. 0. 0.]
4.803570985794067,0.014353079721331596,0.004730261396616697,-0.9868961572647095,0.16064764559268951,[0. 0. 0. 0. 0. 0. 0. 0. 0.],5.615234375,-1.5869140625,0.244140625,[0. 0. 0. 0. 0. 0. 0. 0. 0.],-0.04833984375,-0.03955078125,1.03662109375,[0. 0. 0. 0. 0. 0. 0. 0. 0.]
4.82351279258728,0.014589092694222927,0.006550122518092394,-0.9868717193603516,0.16071268916130066,[0. 0. 0. 0. 0. 0. 0. 0. 0.],-2.3193359375,-1.5869140625,-2.5634765625,[0. 0. 0. 0. 0. 0. 0. 0. 0.],-0.009765625,-0.14990234375,0.96533203125,[0. 0. 0. 0. 0. 0. 0. 0. 0.]
4.843580722808838,0.014011776074767113,0.008212258107960224,-0.9869548678398132,0.16017577052116394,[0. 0. 0. 0. 0. 0. 0. 0. 0.],0.67138671875,1.5869140625,-1.8310546875,[0. 0. 0. 0. 0. 0. 0. 0. 0.],-0.02392578125,-0.0869140625,0.99853515625,[0. 0. 0. 0. 0. 0. 0. 0. 0.]
4.863563060760498,0.014079651795327663,0.009999462403357029,-0.9870015382766724,0.15978045761585236,[0. 0. 0. 0. 0. 0. 0. 0. 0.],1.52587890625,-1.220703125,-3.173828125,[0. 0. 0. 0. 0. 0. 0. 0. 0.],-0.04052734375,-0.11669921875,0.99658203125,[0. 0. 0. 0. 0. 0. 0. 0. 0.]
4.8834569454193115,0.014347493648529053,0.011747166514396667,-0.9870539903640747,0.1593126505613327,[0. 0. 0. 0. 0. 0. 0. 0. 0.],-1.03759765625,1.28173828125,-1.708984375,[0. 0. 0. 0. 0. 0. 0. 0. 0.],-0.0498046875,-0.04296875,0.9853515625,[0. 0. 0. 0. 0. 0. 0. 0. 0.]
4.903578758239746,0.014047999866306782,0.013783016242086887,-0.9871264696121216,0.1587265282869339,[0. 0. 0. 0. 0. 0. 0. 0. 0.],-0.6103515625,1.64794921875,-3.5400390625,[0. 0. 0. 0. 0. 0. 0. 0. 0.],-0.017578125,-0.09228515625,0.9912109375,[0. 0. 0. 0. 0. 0. 0. 0. 0.]
4.923711776733398,0.01455270778387785,0.015510207042098045,-0.9871780872344971,0.15819965302944183,[0. 0. 0. 0. 0. 0. 0. 0. 0.],1.52587890625,1.03759765625,-3.47900390625,[0. 0. 0. 0. 0. 0. 0. 0. 0.],-0.0419921875,-0.04052734375,1.01513671875,[0. 0. 0. 0. 0. 0. 0. 0. 0.]
4.945469856262207,0.014812873676419258,0.01821465604007244,-0.9872585535049438,0.15738296508789062,[0. 0. 0. 0. 0. 0. 0. 0. 0.],-3.41796875,-0.91552734375,-3.72314453125,[0. 0. 0. 0. 0. 0. 0. 0. 0.],-0.041015625,-0.04150390625,0.97705078125,[0. 0. 0. 0. 0. 0. 0. 0. 0.]
4.964101791381836,0.014469947665929794,0.01976955123245716,-0.98731529712677,0.15687039494514465,[0. 0. 0. 0. 0. 0. 0. 0. 0.],-0.54931640625,1.220703125,-3.41796875,[0. 0. 0. 0. 0. 0. 0. 0. 0.],-0.0341796875,-0.04443359375,1.02978515625,[0. 0. 0. 0. 0. 0. 0. 0. 0.]
4.983430862426758,0.014500646851956844,0.022639162838459015,-0.9873450994491577,0.15629100799560547,[0. 0. 0. 0. 0. 0. 0. 0. 0.],-9.21630859375,3.0517578125,-2.685546875,[0. 0. 0. 0. 0. 0. 0. 0. 0.],-0.0419921875,-0.15576171875,0.9140625,[0. 0. 0. 0. 0. 0. 0. 0. 0.]
5.003353118896484,0.014866797253489494,0.024907832965254784,-0.9873831868171692,0.15567003190517426,[0. 0. 0. 0. 0. 0. 0. 0. 0.],1.953125,3.11279296875,-2.5634765625,[0. 0. 0. 0. 0. 0. 0. 0. 0.],-0.05126953125,-0.10205078125,1.09619140625,[0. 0. 0. 0. 0. 0. 0. 0. 0.]
5.0192248821258545,0.014891982078552246,0.025082504376769066,-0.9875001907348633,0.15489508211612701,[0. 0. 0. 0. 0. 0. 0. 0. 0.],4.33349609375,-3.0517578125,-3.60107421875,[0. 0. 0. 0. 0. 0. 0. 0. 0.],-0.03857421875,-0.04052734375,1.06640625,[0. 0. 0. 0. 0. 0. 0. 0. 0.]
5.0449042320251465,0.014408890157938004,0.02393367327749729,-0.9876323938369751,0.15427884459495544,[0. 0. 0. 0. 0. 0. 0. 0. 0.],-0.244140625,-0.8544921875,-5.92041015625,[0. 0. 0. 0. 0. 0. 0. 0. 0.],-0.01171875,-0.02587890625,0.9892578125,[0. 0. 0. 0. 0. 0. 0. 0. 0.]
5.063548564910889,0.01386827789247036,0.02262498438358307,-0.9878100156784058,0.15338623523712158,[0. 0. 0. 0. 0. 0. 0. 0. 0.],-1.220703125,-0.67138671875,-5.43212890625,[0. 0. 0. 0. 0. 0. 0. 0. 0.],-0.03857421875,-0.02685546875,0.9619140625,[0. 0. 0. 0. 0. 0. 0. 0. 0.]
5.083864450454712,0.014618518762290478,0.024203753098845482,-0.9879368543624878,0.152253657579422,[0. 0. 0. 0. 0. 0. 0. 0. 0.],-4.7607421875,0.06103515625,-4.94384765625,[0. 0. 0. 0. 0. 0. 0. 0. 0.],-0.0439453125,-0.0869140625,0.94921875,[0. 0. 0. 0. 0. 0. 0. 0. 0.]
5.103435277938843,0.014966525137424469,0.02599029242992401,-0.9879608154296875,0.15176938474178314,[0. 0. 0. 0. 0. 0. 0. 0. 0.],-3.41796875,-0.6103515625,-3.662109375,[0. 0. 0. 0. 0. 0. 0. 0. 0.],-0.06689453125,-0.11669921875,1.0107421875,[0. 0. 0. 0. 0. 0. 0. 0. 0.]
5.1276679039001465,0.015649951994419098,0.02884448692202568,-0.9879299998283386,0.15138506889343262,[0. 0. 0. 0. 0. 0. 0. 0. 0.],-2.0751953125,-1.0986328125,-0.9765625,[0. 0. 0. 0. 0. 0. 0. 0. 0.],-0.09912109375,-0.16455078125,1.01611328125,[0. 0. 0. 0. 0. 0. 0. 0. 0.]
5.139422655105591,0.015965105965733528,0.029591618105769157,-0.9879164695739746,0.1512959897518158,[0. 0. 0. 0. 0. 0. 0. 0. 0.],2.5634765625,-1.3427734375,0.244140625,[0. 0. 0. 0. 0. 0. 0. 0. 0.],-0.09228515625,-0.130859375,1.02197265625,[0. 0. 0. 0. 0. 0. 0. 0. 0.]
5.165138244628906,0.016384001821279526,0.031128939241170883,-0.9878810048103333,0.1511743664741516,[0. 0. 0. 0. 0. 0. 0. 0. 0.],-0.79345703125,-0.48828125,-0.3662109375,[0. 0. 0. 0. 0. 0. 0. 0. 0.],-0.0771484375,-0.12841796875,0.91064453125,[0. 0. 0. 0. 0. 0. 0. 0. 0.]
5.1840643882751465,0.016224460676312447,0.032025277614593506,-0.9878654479980469,0.15110617876052856,[0. 0. 0. 0. 0. 0. 0. 0. 0.],0.91552734375,-8.1787109375,-1.52587890625,[0. 0. 0. 0. 0. 0. 0. 0. 0.],-0.080078125,-0.091796875,0.99560546875,[0. 0. 0. 0. 0. 0. 0. 0. 0.]
5.203907489776611,0.01518136914819479,0.03279143199324608,-0.9879023432731628,0.1508089005947113,[0. 0. 0. 0. 0. 0. 0. 0. 0.],-3.173828125,-1.5869140625,-3.0517578125,[0. 0. 0. 0. 0. 0. 0. 0. 0.],-0.00537109375,-0.0693359375,1.0927734375,[0. 0. 0. 0. 0. 0. 0. 0. 0.]
5.223745107650757,0.015187675133347511,0.03284911811351776,-0.9879504442214966,0.1504799872636795,[0. 0. 0. 0. 0. 0. 0. 0. 0.],-1.89208984375,-3.23486328125,-3.5400390625,[0. 0. 0. 0. 0. 0. 0. 0. 0.],-0.06103515625,-0.048828125,1.001953125,[0. 0. 0. 0. 0. 0. 0. 0. 0.]
5.238560914993286,0.016137078404426575,0.032913561910390854,-0.9880311489105225,0.1498362272977829,[0. 0. 0. 0. 0. 0. 0. 0. 0.],-3.11279296875,-0.244140625,-6.4697265625,[0. 0. 0. 0. 0. 0. 0. 0. 0.],-0.07958984375,-0.0458984375,0.96240234375,[0. 0. 0. 0. 0. 0. 0. 0. 0.]
5.266419410705566,0.018074117600917816,0.0315968319773674,-0.9883512258529663,0.14777334034442902,[0. 0. 0. 0. 0. 0. 0. 0. 0.],2.74658203125,2.3193359375,-9.70458984375,[0. 0. 0. 0. 0. 0. 0. 0. 0.],-0.05908203125,-0.05126953125,1.02197265625,[0. 0. 0. 0. 0. 0. 0. 0. 0.]
5.283526182174683,0.019718961790204048,0.030327728018164635,-0.9886153936386108,0.14605197310447693,[0. 0. 0. 0. 0. 0. 0. 0. 0.],1.40380859375,2.13623046875,-8.6669921875,[0. 0. 0. 0. 0. 0. 0. 0. 0.],-0.0634765625,-0.033203125,0.984375,[0. 0. 0. 0. 0. 0. 0. 0. 0.]
5.305175065994263,0.02048759162425995,0.02866768091917038,-0.9888601899147034,0.14461654424667358,[0. 0. 0. 0. 0. 0. 0. 0. 0.],-0.30517578125,-1.03759765625,-8.4228515625,[0. 0. 0. 0. 0. 0. 0. 0. 0.],-0.0546875,-0.017578125,1.00048828125,[0. 0. 0. 0. 0. 0. 0. 0. 0.]
5.323759078979492,0.020336098968982697,0.02748507633805275,-0.9890807271003723,0.14335373044013977,[0. 0. 0. 0. 0. 0. 0. 0. 0.],0.6103515625,3.72314453125,-10.80322265625,[0. 0. 0. 0. 0. 0. 0. 0. 0.],-0.01123046875,-0.017578125,1.07080078125,[0. 0. 0. 0. 0. 0. 0. 0. 0.]
5.345471382141113,0.02026294358074665,0.025300761684775352,-0.9894828200340271,0.1409723162651062,[0. 0. 0. 0. 0. 0. 0. 0. 0.],7.38525390625,3.84521484375,-15.380859375,[0. 0. 0. 0. 0. 0. 0. 0. 0.],-0.0361328125,-0.0048828125,1.04052734375,[0. 0. 0. 0. 0. 0. 0. 0. 0.]
5.363928318023682,0.02147478237748146,0.023252129554748535,-0.9900064468383789,0.137424036860466,[0. 0. 0. 0. 0. 0. 0. 0. 0.],3.96728515625,0.244140625,-22.76611328125,[0. 0. 0. 0. 0. 0. 0. 0. 0.],-0.10498046875,0.02099609375,0.95849609375,[0. 0. 0. 0. 0. 0. 0. 0. 0.]
5.389230012893677,0.023669930174946785,0.02162478305399418,-0.9907798171043396,0.13163402676582336,[0. 0. 0. 0. 0. 0. 0. 0. 0.],-0.67138671875,3.23486328125,-29.47998046875,[0. 0. 0. 0. 0. 0. 0. 0. 0.],-0.08251953125,0.0107421875,0.94775390625,[0. 0. 0. 0. 0. 0. 0. 0. 0.]
5.403713941574097,0.0247187577188015,0.020475517958402634,-0.9912749528884888,0.12784306704998016,[0. 0. 0. 0. 0. 0. 0. 0. 0.],5.06591796875,-1.15966796875,-29.35791015625,[0. 0. 0. 0. 0. 0. 0. 0. 0.],-0.08642578125,-0.00537109375,1.0244140625,[0. 0. 0. 0. 0. 0. 0. 0. 0.]
5.419936418533325,0.025651995092630386,0.01794920302927494,-0.9919371604919434,0.12280312925577164,[0. 0. 0. 0. 0. 0. 0. 0. 0.],6.8359375,-2.74658203125,-29.11376953125,[0. 0. 0. 0. 0. 0. 0. 0. 0.],-0.08203125,0.0107421875,1.11083984375,[0. 0. 0. 0. 0. 0. 0. 0. 0.]
5.4446752071380615,0.026675894856452942,0.01596388965845108,-0.9927015900611877,0.11652123928070068,[0. 0. 0. 0. 0. 0. 0. 0. 0.],-0.6103515625,3.35693359375,-30.21240234375,[0. 0. 0. 0. 0. 0. 0. 0. 0.],-0.052734375,0.033203125,0.9365234375,[0. 0. 0. 0. 0. 0. 0. 0. 0.]
5.460179805755615,0.027463499456644058,0.014395910315215588,-0.9933038353919983,0.11129264533519745,[0. 0. 0. 0. 0. 0. 0. 0. 0.],0.8544921875,3.84521484375,-30.6396484375,[0. 0. 0. 0. 0. 0. 0. 0. 0.],-0.05908203125,0.009765625,0.95458984375,[0. 0. 0. 0. 0. 0. 0. 0. 0.]
5.48351263999939,0.028384165838360786,0.013195076026022434,-0.9937382340431213,0.10725904256105423,[0. 0. 0. 0. 0. 0. 0. 0. 0.],2.50244140625,2.62451171875,-31.1279296875,[0. 0. 0. 0. 0. 0. 0. 0. 0.],-0.0673828125,-0.001953125,0.9833984375,[0. 0. 0. 0. 0. 0. 0. 0. 0.]
5.504179954528809,0.02943071722984314,0.011899081990122795,-0.9942910671234131,0.10187001526355743,[0. 0. 0. 0. 0. 0. 0. 0. 0.],-2.99072265625,2.50244140625,-30.8837890625,[0. 0. 0. 0. 0. 0. 0. 0. 0.],-0.072265625,0.025390625,0.94873046875,[0. 0. 0. 0. 0. 0. 0. 0. 0.]
5.524686098098755,0.03012183867394924,0.010865929536521435,-0.9948247671127319,0.09642833471298218,[0. 0. 0. 0. 0. 0. 0. 0. 0.],0.8544921875,-1.46484375,-31.982421875,[0. 0. 0. 0. 0. 0. 0. 0. 0.],-0.08837890625,0.02490234375,1.0615234375,[0. 0. 0. 0. 0. 0. 0. 0. 0.]
5.5437867641448975,0.029568761587142944,0.009099559858441353,-0.9953917860984802,0.09076512604951859,[0. 0. 0. 0. 0. 0. 0. 0. 0.],2.74658203125,-1.15966796875,-33.447265625,[0. 0. 0. 0. 0. 0. 0. 0. 0.],-0.03466796875,0.0234375,1.15966796875,[0. 0. 0. 0. 0. 0. 0. 0. 0.]
5.563815593719482,0.028236981481313705,0.006948619615286589,-0.9959027171134949,0.08562903106212616,[0. 0. 0. 0. 0. 0. 0. 0. 0.],6.65283203125,-5.615234375,-26.55029296875,[0. 0. 0. 0. 0. 0. 0. 0. 0.],-0.05908203125,0.0,1.03076171875,[0. 0. 0. 0. 0. 0. 0. 0. 0.]
5.584809303283691,0.02745293267071247,0.005210401955991983,-0.9962274432182312,0.08215898275375366,[0. 0. 0. 0. 0. 0. 0. 0. 0.],3.662109375,-4.638671875,-15.80810546875,[0. 0. 0. 0. 0. 0. 0. 0. 0.],-0.041015625,0.0,0.91552734375,[0. 0. 0. 0. 0. 0. 0. 0. 0.]
5.603491544723511,0.025554796680808067,0.004611426964402199,-0.996415913105011,0.08050563186407089,[0. 0. 0. 0. 0. 0. 0. 0. 0.],1.953125,1.52587890625,-5.9814453125,[0. 0. 0. 0. 0. 0. 0. 0. 0.],-0.00634765625,-0.0048828125,0.92236328125,[0. 0. 0. 0. 0. 0. 0. 0. 0.]
5.627418518066406,0.025951987132430077,0.003349924925714731,-0.9964144229888916,0.0804586112499237,[0. 0. 0. 0. 0. 0. 0. 0. 0.],-1.52587890625,-6.40869140625,1.64794921875,[0. 0. 0. 0. 0. 0. 0. 0. 0.],-0.11376953125,0.02734375,0.97314453125,[0. 0. 0. 0. 0. 0. 0. 0. 0.]
5.638823986053467,0.026035301387310028,0.00318007986061275,-0.9963849186897278,0.08080387860536575,[0. 0. 0. 0. 0. 0. 0. 0. 0.],-1.5869140625,-9.21630859375,2.01416015625,[0. 0. 0. 0. 0. 0. 0. 0. 0.],-0.10205078125,0.015625,1.0146484375,[0. 0. 0. 0. 0. 0. 0. 0. 0.]
5.6651105880737305,0.024321306496858597,0.001958993263542652,-0.9964480400085449,0.08059759438037872,[0. 0. 0. 0. 0. 0. 0. 0. 0.],1.3427734375,-4.33349609375,-3.11279296875,[0. 0. 0. 0. 0. 0. 0. 0. 0.],-0.01123046875,0.0185546875,1.0390625,[0. 0. 0. 0. 0. 0. 0. 0. 0.]
5.684277057647705,0.02234743721783161,0.0006585685187019408,-0.9965513348579407,0.07991097122430801,[0. 0. 0. 0. 0. 0. 0. 0. 0.],-0.67138671875,-7.080078125,-4.7607421875,[0. 0. 0. 0. 0. 0. 0. 0. 0.],-0.0224609375,0.0322265625,1.02880859375,[0. 0. 0. 0. 0. 0. 0. 0. 0.]
5.705245733261108,0.020633241161704063,-0.0006689318106509745,-0.996600329875946,0.07975997775793076,[0. 0. 0. 0. 0. 0. 0. 0. 0.],-2.25830078125,-4.150390625,1.28173828125,[0. 0. 0. 0. 0. 0. 0. 0. 0.],-0.02099609375,0.02734375,0.98095703125,[0. 0. 0. 0. 0. 0. 0. 0. 0.]
5.723455429077148,0.018172260373830795,-0.001624850556254387,-0.9965077638626099,0.08148255944252014,[0. 0. 0. 0. 0. 0. 0. 0. 0.],1.03759765625,-3.90625,14.2822265625,[0. 0. 0. 0. 0. 0. 0. 0. 0.],0.00244140625,0.00732421875,0.98046875,[0. 0. 0. 0. 0. 0. 0. 0. 0.]
5.743770599365234,0.015199730172753334,-0.00272589223459363,-0.9961697459220886,0.08606576919555664,[0. 0. 0. 0. 0. 0. 0. 0. 0.],-2.44140625,-3.35693359375,25.146484375,[0. 0. 0. 0. 0. 0. 0. 0. 0.],0.02197265625,0.04541015625,1.0087890625,[0. 0. 0. 0. 0. 0. 0. 0. 0.]
5.764435768127441,0.01276699360460043,-0.0037857808638364077,-0.9957566261291504,0.09105847775936127,[0. 0. 0. 0. 0. 0. 0. 0. 0.],-1.953125,-3.60107421875,30.82275390625,[0. 0. 0. 0. 0. 0. 0. 0. 0.],0.04052734375,0.05078125,1.02734375,[0. 0. 0. 0. 0. 0. 0. 0. 0.]
5.788372039794922,0.01053752563893795,-0.004873957484960556,-0.9952237606048584,0.09692730754613876,[0. 0. 0. 0. 0. 0. 0. 0. 0.],4.39453125,-6.53076171875,36.2548828125,[0. 0. 0. 0. 0. 0. 0. 0. 0.],0.0478515625,0.03662109375,1.091796875,[0. 0. 0. 0. 0. 0. 0. 0. 0.]
5.810245513916016,0.006968872155994177,-0.007265097927302122,-0.9943643808364868,0.1055382639169693,[0. 0. 0. 0. 0. 0. 0. 0. 0.],5.2490234375,-9.1552734375,40.83251953125,[0. 0. 0. 0. 0. 0. 0. 0. 0.],0.0517578125,0.0458984375,0.970703125,[0. 0. 0. 0. 0. 0. 0. 0. 0.]
5.8234570026397705,0.005881404038518667,-0.007805246394127607,-0.9939760565757751,0.10916157811880112,[0. 0. 0. 0. 0. 0. 0. 0. 0.],-0.48828125,-1.8310546875,41.19873046875,[0. 0. 0. 0. 0. 0. 0. 0. 0.],0.087890625,0.0556640625,0.92626953125,[0. 0. 0. 0. 0. 0. 0. 0. 0.]
5.843507289886475,0.003999157343059778,-0.008633194491267204,-0.9931514263153076,0.11644624918699265,[0. 0. 0. 0. 0. 0. 0. 0. 0.],-0.18310546875,-0.6103515625,42.8466796875,[0. 0. 0. 0. 0. 0. 0. 0. 0.],0.04296875,0.0419921875,0.97265625,[0. 0. 0. 0. 0. 0. 0. 0. 0.]
5.864706516265869,0.0015105123165994883,-0.009763572365045547,-0.9920281767845154,0.12562856078147888,[0. 0. 0. 0. 0. 0. 0. 0. 0.],4.33349609375,-1.77001953125,41.56494140625,[0. 0. 0. 0. 0. 0. 0. 0. 0.],0.02783203125,0.0224609375,1.078125,[0. 0. 0. 0. 0. 0. 0. 0. 0.]
5.883462429046631,0.00047168511082418263,-0.010813768021762371,-0.9913404583930969,0.13087035715579987,[0. 0. 0. 0. 0. 0. 0. 0. 0.],0.30517578125,1.15966796875,39.97802734375,[0. 0. 0. 0. 0. 0. 0. 0. 0.],0.0439453125,0.05615234375,0.99462890625,[0. 0. 0. 0. 0. 0. 0. 0. 0.]
5.903549909591675,-0.0006111347465775907,-0.011700842529535294,-0.9903977513313293,0.13775025308132172,[0. 0. 0. 0. 0. 0. 0. 0. 0.],-2.86865234375,0.18310546875,38.6962890625,[0. 0. 0. 0. 0. 0. 0. 0. 0.],0.02685546875,0.04833984375,0.9716796875,[0. 0. 0. 0. 0. 0. 0. 0. 0.]
5.9235522747039795,-0.0020670974627137184,-0.011425923556089401,-0.9894851446151733,0.14416782557964325,[0. 0. 0. 0. 0. 0. 0. 0. 0.],-3.2958984375,0.8544921875,34.912109375,[0. 0. 0. 0. 0. 0. 0. 0. 0.],0.0234375,0.015625,0.97216796875,[0. 0. 0. 0. 0. 0. 0. 0. 0.]
5.94352650642395,-0.0002490766637492925,-0.0098058320581913,-0.9885382652282715,0.1506517380475998,[0. 0. 0. 0. 0. 0. 0. 0. 0.],-8.48388671875,8.7890625,25.45166015625,[0. 0. 0. 0. 0. 0. 0. 0. 0.],-0.00390625,0.0224609375,0.96484375,[0. 0. 0. 0. 0. 0. 0. 0. 0.]
5.9642393589019775,0.002018709434196353,-0.008977648802101612,-0.9881542325019836,0.1531880497932434,[0. 0. 0. 0. 0. 0. 0. 0. 0.],-3.47900390625,9.3994140625,16.11328125,[0. 0. 0. 0. 0. 0. 0. 0. 0.],-0.0107421875,0.0107421875,1.08447265625,[0. 0. 0. 0. 0. 0. 0. 0. 0.]
5.983747720718384,0.004911603406071663,-0.008797026239335537,-0.9878382682800293,0.1551581770181656,[0. 0. 0. 0. 0. 0. 0. 0. 0.],5.18798828125,-0.18310546875,4.21142578125,[0. 0. 0. 0. 0. 0. 0. 0. 0.],-0.08642578125,0.02294921875,1.11962890625,[0. 0. 0. 0. 0. 0. 0. 0. 0.]
6.003494024276733,0.005579698830842972,-0.00952232163399458,-0.9878301024436951,0.15514452755451202,[0. 0. 0. 0. 0. 0. 0. 0. 0.],2.38037109375,-5.37109375,-0.79345703125,[0. 0. 0. 0. 0. 0. 0. 0. 0.],-0.09521484375,0.048828125,0.9775390625,[0. 0. 0. 0. 0. 0. 0. 0. 0.]
6.023857593536377,0.006993121933192015,-0.009634253568947315,-0.987886905670166,0.15471859276294708,[0. 0. 0. 0. 0. 0. 0. 0. 0.],-6.04248046875,1.40380859375,-2.9296875,[0. 0. 0. 0. 0. 0. 0. 0. 0.],-0.0673828125,0.0615234375,0.88330078125,[0. 0. 0. 0. 0. 0. 0. 0. 0.]
6.0474693775177,0.008304154500365257,-0.008677147328853607,-0.9879078269004822,0.15457715094089508,[0. 0. 0. 0. 0. 0. 0. 0. 0.],-1.03759765625,-6.40869140625,1.03759765625,[0. 0. 0. 0. 0. 0. 0. 0. 0.],-0.10302734375,-0.00927734375,1.00634765625,[0. 0. 0. 0. 0. 0. 0. 0. 0.]
6.064442157745361,0.008799239061772823,-0.00822256039828062,-0.9878374338150024,0.15502387285232544,[0. 0. 0. 0. 0. 0. 0. 0. 0.],5.06591796875,-2.0751953125,3.662109375,[0. 0. 0. 0. 0. 0. 0. 0. 0.],-0.04443359375,-0.0107421875,1.0078125,[0. 0. 0. 0. 0. 0. 0. 0. 0.]
6.084532022476196,0.009926966391503811,-0.00855410099029541,-0.9877095818519592,0.15575037896633148,[0. 0. 0. 0. 0. 0. 0. 0. 0.],4.08935546875,-3.47900390625,5.0048828125,[0. 0. 0. 0. 0. 0. 0. 0. 0.],-0.0361328125,0.0322265625,0.99755859375,[0. 0. 0. 0. 0. 0. 0. 0. 0.]
6.10391902923584,0.010280227288603783,-0.009567581117153168,-0.9876053929328918,0.15632767975330353,[0. 0. 0. 0. 0. 0. 0. 0. 0.],-2.5634765625,-4.21142578125,4.33349609375,[0. 0. 0. 0. 0. 0. 0. 0. 0.],-0.03955078125,0.06103515625,1.03466796875,[0. 0. 0. 0. 0. 0. 0. 0. 0.]
6.1238603591918945,0.01037871465086937,-0.00804124679416418,-0.9874846339225769,0.1571681797504425,[0. 0. 0. 0. 0. 0. 0. 0. 0.],-11.77978515625,-1.953125,5.31005859375,[0. 0. 0. 0. 0. 0. 0. 0. 0.],-0.02880859375,-0.03564453125,0.9873046875,[0. 0. 0. 0. 0. 0. 0. 0. 0.]
6.144782781600952,0.010124484077095985,-0.0048103840090334415,-0.9874298572540283,0.1576598584651947,[0. 0. 0. 0. 0. 0. 0. 0. 0.],2.3193359375,5.43212890625,-0.8544921875,[0. 0. 0. 0. 0. 0. 0. 0. 0.],-0.01904296875,-0.052734375,1.0966796875,[0. 0. 0. 0. 0. 0. 0. 0. 0.]
6.158799409866333,0.011460281908512115,-0.004053810611367226,-0.9875442385673523,0.1568715125322342,[0. 0. 0. 0. 0. 0. 0. 0. 0.],5.18798828125,6.40869140625,-9.21630859375,[0. 0. 0. 0. 0. 0. 0. 0. 0.],-0.052734375,-0.02880859375,1.0380859375,[0. 0. 0. 0. 0. 0. 0. 0. 0.]
6.179062604904175,0.01460025180131197,-0.003923733253031969,-0.9878707528114319,0.15454058349132538,[0. 0. 0. 0. 0. 0. 0. 0. 0.],3.23486328125,7.87353515625,-16.66259765625,[0. 0. 0. 0. 0. 0. 0. 0. 0.],-0.11083984375,0.0087890625,0.93603515625,[0. 0. 0. 0. 0. 0. 0. 0. 0.]
6.2040300369262695,0.017588922753930092,-0.004104968160390854,-0.988406240940094,0.15075422823429108,[0. 0. 0. 0. 0. 0. 0. 0. 0.],1.40380859375,5.7373046875,-25.390625,[0. 0. 0. 0. 0. 0. 0. 0. 0.],-0.1015625,0.0380859375,1.013671875,[0. 0. 0. 0. 0. 0. 0. 0. 0.]
6.2238547801971436,0.020075146108865738,-0.004160895943641663,-0.9891756176948547,0.14529728889465332,[0. 0. 0. 0. 0. 0. 0. 0. 0.],-1.3427734375,2.86865234375,-35.2783203125,[0. 0. 0. 0. 0. 0. 0. 0. 0.],-0.107421875,0.0283203125,1.02783203125,[0. 0. 0. 0. 0. 0. 0. 0. 0.]
6.2444634437561035,0.022248797118663788,-0.004505518823862076,-0.9903551936149597,0.13667966425418854,[0. 0. 0. 0. 0. 0. 0. 0. 0.],4.94384765625,0.79345703125,-42.6025390625,[0. 0. 0. 0. 0. 0. 0. 0. 0.],-0.13134765625,0.0185546875,1.0126953125,[0. 0. 0. 0. 0. 0. 0. 0. 0.]
6.26436972618103,0.025024613365530968,-0.005036073736846447,-0.9913679361343384,0.1286003291606903,[0. 0. 0. 0. 0. 0. 0. 0. 0.],2.9296875,6.8359375,-49.37744140625,[0. 0. 0. 0. 0. 0. 0. 0. 0.],-0.07861328125,0.0283203125,0.97900390625,[0. 0. 0. 0. 0. 0. 0. 0. 0.]
6.283692836761475,0.02748797833919525,-0.005799043457955122,-0.9923673272132874,0.12007498741149902,[0. 0. 0. 0. 0. 0. 0. 0. 0.],6.7138671875,-1.220703125,-49.6826171875,[0. 0. 0. 0. 0. 0. 0. 0. 0.],-0.13916015625,0.02294921875,1.0205078125,[0. 0. 0. 0. 0. 0. 0. 0. 0.]
6.303646802902222,0.029474133625626564,-0.005923378746956587,-0.993335485458374,0.11126957833766937,[0. 0. 0. 0. 0. 0. 0. 0. 0.],-2.86865234375,2.86865234375,-51.6357421875,[0. 0. 0. 0. 0. 0. 0. 0. 0.],-0.12109375,0.04541015625,0.99658203125,[0. 0. 0. 0. 0. 0. 0. 0. 0.]
6.3267316818237305,0.03191167488694191,-0.005057476926594973,-0.9942303895950317,0.10228408873081207,[0. 0. 0. 0. 0. 0. 0. 0. 0.],-1.46484375,4.150390625,-52.30712890625,[0. 0. 0. 0. 0. 0. 0. 0. 0.],-0.0830078125,0.00244140625,0.97705078125,[0. 0. 0. 0. 0. 0. 0. 0. 0.]
6.344005346298218,0.03316684812307358,-0.0031028022058308125,-0.9948774576187134,0.09544255584478378,[0. 0. 0. 0. 0. 0. 0. 0. 0.],-4.150390625,6.103515625,-51.1474609375,[0. 0. 0. 0. 0. 0. 0. 0. 0.],-0.11083984375,-0.0751953125,0.931640625,[0. 0. 0. 0. 0. 0. 0. 0. 0.]
6.363785982131958,0.034795910120010376,-0.001382509944960475,-0.9956390261650085,0.08654654771089554,[0. 0. 0. 0. 0. 0. 0. 0. 0.],1.15966796875,2.25830078125,-50.96435546875,[0. 0. 0. 0. 0. 0. 0. 0. 0.],-0.14794921875,-0.05859375,0.9716796875,[0. 0. 0. 0. 0. 0. 0. 0. 0.]
6.380009651184082,0.03604144975543022,-0.0006650050054304302,-0.9963431358337402,0.07746614515781403,[0. 0. 0. 0. 0. 0. 0. 0. 0.],2.99072265625,-2.62451171875,-52.6123046875,[0. 0. 0. 0. 0. 0. 0. 0. 0.],-0.1396484375,-0.0068359375,1.06982421875,[0. 0. 0. 0. 0. 0. 0. 0. 0.]
6.3989481925964355,0.03608277067542076,-0.00033715926110744476,-0.9970380663871765,0.06791958212852478,[0. 0. 0. 0. 0. 0. 0. 0. 0.],3.23486328125,3.7841796875,-56.15234375,[0. 0. 0. 0. 0. 0. 0. 0. 0.],-0.0546875,0.00634765625,1.134765625,[0. 0. 0. 0. 0. 0. 0. 0. 0.]
6.423783779144287,0.03728831186890602,0.00016951722500380129,-0.9976086616516113,0.058194998651742935,[0. 0. 0. 0. 0. 0. 0. 0. 0.],4.8828125,-0.06103515625,-56.82373046875,[0. 0. 0. 0. 0. 0. 0. 0. 0.],-0.1240234375,-0.00830078125,1.0439453125,[0. 0. 0. 0. 0. 0. 0. 0. 0.]
6.443495750427246,0.03945247456431389,0.000523148279171437,-0.9980462789535522,0.04844388738274574,[0. 0. 0. 0. 0. 0. 0. 0. 0.],2.9296875,4.5166015625,-55.0537109375,[0. 0. 0. 0. 0. 0. 0. 0. 0.],-0.13134765625,-0.0322265625,0.8818359375,[0. 0. 0. 0. 0. 0. 0. 0. 0.]
6.463510751724243,0.040812958031892776,0.0010510196443647146,-0.9984017014503479,0.039079248905181885,[0. 0. 0. 0. 0. 0. 0. 0. 0.],-1.8310546875,-1.220703125,-51.81884765625,[0. 0. 0. 0. 0. 0. 0. 0. 0.],-0.16748046875,-0.00048828125,0.8720703125,[0. 0. 0. 0. 0. 0. 0. 0. 0.]
6.484013080596924,0.04183020070195198,0.0022614486515522003,-0.9986626505851746,0.030301539227366447,[0. 0. 0. 0. 0. 0. 0. 0. 0.],-6.7138671875,-2.99072265625,-48.9501953125,[0. 0. 0. 0. 0. 0. 0. 0. 0.],-0.126953125,-0.0009765625,1.01025390625,[0. 0. 0. 0. 0. 0. 0. 0. 0.]
6.503729343414307,0.04142070189118385,0.004722138866782188,-0.9988759756088257,0.02255907841026783,[0. 0. 0. 0. 0. 0. 0. 0. 0.],0.0,-6.40869140625,-40.0390625,[0. 0. 0. 0. 0. 0. 0. 0. 0.],-0.14990234375,-0.134765625,1.07568359375,[0. 0. 0. 0. 0. 0. 0. 0. 0.]
6.518828630447388,0.04024400934576988,0.005681450944393873,-0.9990360140800476,0.016588794067502022,[0. 0. 0. 0. 0. 0. 0. 0. 0.],6.16455078125,0.9765625,-28.4423828125,[0. 0. 0. 0. 0. 0. 0. 0. 0.],-0.0361328125,-0.09814453125,1.05615234375,[0. 0. 0. 0. 0. 0. 0. 0. 0.]
6.543648719787598,0.03833606466650963,0.005806091707199812,-0.9991674423217773,0.012698479928076267,[0. 0. 0. 0. 0. 0. 0. 0. 0.],-5.859375,-4.33349609375,-16.78466796875,[0. 0. 0. 0. 0. 0. 0. 0. 0.],-0.06689453125,0.0,0.86474609375,[0. 0. 0. 0. 0. 0. 0. 0. 0.]
6.5634753704071045,0.03725678473711014,0.006640203297138214,-0.9992255568504333,0.01077879685908556,[0. 0. 0. 0. 0. 0. 0. 0. 0.],-5.859375,0.732421875,-8.9111328125,[0. 0. 0. 0. 0. 0. 0. 0. 0.],-0.015625,-0.0283203125,1.00244140625,[0. 0. 0. 0. 0. 0. 0. 0. 0.]
6.583664655685425,0.0352160669863224,0.007453383877873421,-0.9993018507957458,0.010014228522777557,[0. 0. 0. 0. 0. 0. 0. 0. 0.],1.220703125,-2.99072265625,-2.25830078125,[0. 0. 0. 0. 0. 0. 0. 0. 0.],-0.02783203125,-0.0390625,1.13916015625,[0. 0. 0. 0. 0. 0. 0. 0. 0.]
6.603553771972656,0.03418048098683357,0.007557382807135582,-0.9993367791175842,0.010038544423878193,[0. 0. 0. 0. 0. 0. 0. 0. 0.],0.244140625,7.87353515625,-0.18310546875,[0. 0. 0. 0. 0. 0. 0. 0. 0.],0.017578125,-0.01806640625,1.03369140625,[0. 0. 0. 0. 0. 0. 0. 0. 0.]
6.623652219772339,0.033184975385665894,0.00600516377016902,-0.9993792176246643,0.010199299082159996,[0. 0. 0. 0. 0. 0. 0. 0. 0.],6.89697265625,-4.08935546875,0.91552734375,[0. 0. 0. 0. 0. 0. 0. 0. 0.],-0.06396484375,-0.0087890625,0.99072265625,[0. 0. 0. 0. 0. 0. 0. 0. 0.]
6.643446207046509,0.03331524878740311,0.005059374496340752,-0.999378502368927,0.010351933538913727,[0. 0. 0. 0. 0. 0. 0. 0. 0.],-5.0048828125,-2.13623046875,0.244140625,[0. 0. 0. 0. 0. 0. 0. 0. 0.],-0.05810546875,0.02490234375,0.87109375,[0. 0. 0. 0. 0. 0. 0. 0. 0.]
6.663402795791626,0.033344581723213196,0.005284976214170456,-0.9993813037872314,0.00986514613032341,[0. 0. 0. 0. 0. 0. 0. 0. 0.],-5.2490234375,13.73291015625,-5.859375,[0. 0. 0. 0. 0. 0. 0. 0. 0.],0.04150390625,0.0205078125,0.99169921875,[0. 0. 0. 0. 0. 0. 0. 0. 0.]
6.683745861053467,0.033954545855522156,0.004866109695285559,-0.9993845224380493,0.00735316751524806,[0. 0. 0. 0. 0. 0. 0. 0. 0.],2.685546875,13.18359375,-21.30126953125,[0. 0. 0. 0. 0. 0. 0. 0. 0.],-0.0302734375,0.01220703125,1.0908203125,[0. 0. 0. 0. 0. 0. 0. 0. 0.]
6.703770399093628,0.03574519604444504,0.0029825347010046244,-0.9993541240692139,0.0021954509429633617,[0. 0. 0. 0. 0. 0. 0. 0. 0.],2.99072265625,4.57763671875,-33.75244140625,[0. 0. 0. 0. 0. 0. 0. 0. 0.],-0.1298828125,0.05029296875,1.0244140625,[0. 0. 0. 0. 0. 0. 0. 0. 0.]
6.7234227657318115,0.037235282361507416,0.0016737941186875105,-0.9992939233779907,-0.004727657418698072,[0. 0. 0. 0. 0. 0. 0. 0. 0.],2.99072265625,0.30517578125,-43.9453125,[0. 0. 0. 0. 0. 0. 0. 0. 0.],-0.1572265625,0.06005859375,1.01220703125,[0. 0. 0. 0. 0. 0. 0. 0. 0.]
6.743762731552124,0.03961640223860741,0.0026202586013823748,-0.9991252422332764,-0.013131789863109589,[0. 0. 0. 0. 0. 0. 0. 0. 0.],-7.26318359375,6.8359375,-50.9033203125,[0. 0. 0. 0. 0. 0. 0. 0. 0.],-0.1962890625,-0.03759765625,0.93603515625,[0. 0. 0. 0. 0. 0. 0. 0. 0.]
6.76340913772583,0.042408641427755356,0.0031533706933259964,-0.9988318681716919,-0.022947883233428,[0. 0. 0. 0. 0. 0. 0. 0. 0.],7.6904296875,8.85009765625,-58.89892578125,[0. 0. 0. 0. 0. 0. 0. 0. 0.],-0.13916015625,-0.025390625,1.1328125,[0. 0. 0. 0. 0. 0. 0. 0. 0.]
6.783532381057739,0.04449285939335823,0.0018283758545294404,-0.9984373450279236,-0.03376459330320358,[0. 0. 0. 0. 0. 0. 0. 0. 0.],9.521484375,-3.60107421875,-63.1103515625,[0. 0. 0. 0. 0. 0. 0. 0. 0.],-0.20751953125,0.00927734375,1.0185546875,[0. 0. 0. 0. 0. 0. 0. 0. 0.]
6.8043365478515625,0.045501742511987686,0.0019417244475334883,-0.9979478716850281,-0.045009784400463104,[0. 0. 0. 0. 0. 0. 0. 0. 0.],-3.23486328125,-4.39453125,-66.46728515625,[0. 0. 0. 0. 0. 0. 0. 0. 0.],-0.19580078125,0.04150390625,0.8740234375,[0. 0. 0. 0. 0. 0. 0. 0. 0.]
6.82395076751709,0.04692013934254646,0.003943052142858505,-0.9971045851707458,-0.05971169099211693,[0. 0. 0. 0. 0. 0. 0. 0. 0.],0.6103515625,0.6103515625,-67.68798828125,[0. 0. 0. 0. 0. 0. 0. 0. 0.],-0.1181640625,-0.0537109375,1.03857421875,[0. 0. 0. 0. 0. 0. 0. 0. 0.]
6.843648672103882,0.04747313633561134,0.00500995060428977,-0.9965285658836365,-0.06820670515298843,[0. 0. 0. 0. 0. 0. 0. 0. 0.],0.79345703125,-9.765625,-64.453125,[0. 0. 0. 0. 0. 0. 0. 0. 0.],-0.1923828125,-0.05322265625,0.9697265625,[0. 0. 0. 0. 0. 0. 0. 0. 0.]
6.862644195556641,0.04775148257613182,0.005509271286427975,-0.9954790472984314,-0.08192095905542374,[0. 0. 0. 0. 0. 0. 0. 0. 0.],2.197265625,-5.2490234375,-61.8896484375,[0. 0. 0. 0. 0. 0. 0. 0. 0.],-0.10498046875,-0.025390625,1.0146484375,[0. 0. 0. 0. 0. 0. 0. 0. 0.]
6.8838300704956055,0.048080895096063614,0.006084070540964603,-0.994837760925293,-0.08915781229734421,[0. 0. 0. 0. 0. 0. 0. 0. 0.],-4.57763671875,-4.39453125,-53.1005859375,[0. 0. 0. 0. 0. 0. 0. 0. 0.],-0.11669921875,-0.0185546875,1.02734375,[0. 0. 0. 0. 0. 0. 0. 0. 0.]
6.898728370666504,0.047874074429273605,0.008297698572278023,-0.9940907955169678,-0.09707098454236984,[0. 0. 0. 0. 0. 0. 0. 0. 0.],-1.5869140625,-2.99072265625,-40.95458984375,[0. 0. 0. 0. 0. 0. 0. 0. 0.],-0.087890625,-0.06201171875,1.06689453125,[0. 0. 0. 0. 0. 0. 0. 0. 0.]
6.918865442276001,0.04626169428229332,0.00985660683363676,-0.9935902953147888,-0.10266991704702377,[0. 0. 0. 0. 0. 0. 0. 0. 0.],2.50244140625,-11.41357421875,-28.01513671875,[0. 0. 0. 0. 0. 0. 0. 0. 0.],-0.09326171875,-0.05224609375,1.0390625,[0. 0. 0. 0. 0. 0. 0. 0. 0.]
6.9396820068359375,0.044499367475509644,0.00997366663068533,-0.9932880401611328,-0.10629814863204956,[0. 0. 0. 0. 0. 0. 0. 0. 0.],-0.42724609375,5.126953125,-18.06640625,[0. 0. 0. 0. 0. 0. 0. 0. 0.],0.04150390625,-0.00341796875,0.95703125,[0. 0. 0. 0. 0. 0. 0. 0. 0.]
6.963712215423584,0.04300043359398842,0.009723820723593235,-0.9930974245071411,-0.1086917370557785,[0. 0. 0. 0. 0. 0. 0. 0. 0.],2.5634765625,-2.8076171875,-11.77978515625,[0. 0. 0. 0. 0. 0. 0. 0. 0.],-0.0126953125,-0.00927734375,0.96484375,[0. 0. 0. 0. 0. 0. 0. 0. 0.]
6.984750747680664,0.04088177904486656,0.009106626734137535,-0.9930121898651123,-0.11032993346452713,[0. 0. 0. 0. 0. 0. 0. 0. 0.],-0.244140625,-2.38037109375,-8.36181640625,[0. 0. 0. 0. 0. 0. 0. 0. 0.],-0.03369140625,0.0126953125,0.96484375,[0. 0. 0. 0. 0. 0. 0. 0. 0.]
7.003570556640625,0.03848663717508316,0.007730898447334766,-0.9929418563842773,-0.11191820353269577,[0. 0. 0. 0. 0. 0. 0. 0. 0.],4.2724609375,-1.64794921875,-9.521484375,[0. 0. 0. 0. 0. 0. 0. 0. 0.],0.0,0.01904296875,1.11083984375,[0. 0. 0. 0. 0. 0. 0. 0. 0.]
7.023654460906982,0.037031397223472595,0.006320987828075886,-0.992804229259491,-0.11370383203029633,[0. 0. 0. 0. 0. 0. 0. 0. 0.],3.0517578125,0.54931640625,-10.6201171875,[0. 0. 0. 0. 0. 0. 0. 0. 0.],-0.037109375,0.03125,1.0712890625,[0. 0. 0. 0. 0. 0. 0. 0. 0.]
7.043816566467285,0.03613129258155823,0.0044298251159489155,-0.9926193356513977,-0.11567982286214828,[0. 0. 0. 0. 0. 0. 0. 0. 0.],1.0986328125,2.38037109375,-11.53564453125,[0. 0. 0. 0. 0. 0. 0. 0. 0.],-0.056640625,0.02490234375,0.96484375,[0. 0. 0. 0. 0. 0. 0. 0. 0.]
7.06402063369751,0.03650606423616409,0.00267284968867898,-0.9924065470695496,-0.11742838472127914,[0. 0. 0. 0. 0. 0. 0. 0. 0.],2.74658203125,-6.7138671875,-9.6435546875,[0. 0. 0. 0. 0. 0. 0. 0. 0.],-0.11669921875,0.01416015625,0.8857421875,[0. 0. 0. 0. 0. 0. 0. 0. 0.]
7.083661794662476,0.03722849488258362,0.0018826001323759556,-0.9922153353691101,-0.11882422864437103,[0. 0. 0. 0. 0. 0. 0. 0. 0.],-3.23486328125,5.2490234375,-8.36181640625,[0. 0. 0. 0. 0. 0. 0. 0. 0.],-0.07373046875,0.048828125,1.0263671875,[0. 0. 0. 0. 0. 0. 0. 0. 0.]
7.104055166244507,0.03656531497836113,0.00029976730002090335,-0.9920690059661865,-0.1202578991651535,[0. 0. 0. 0. 0. 0. 0. 0. 0.],2.86865234375,-7.38525390625,-8.6669921875,[0. 0. 0. 0. 0. 0. 0. 0. 0.],-0.099609375,0.009765625,1.15087890625,[0. 0. 0. 0. 0. 0. 0. 0. 0.]
7.118921995162964,0.035780299454927444,-0.00173177442047745,-0.9919290542602539,-0.1216285452246666,[0. 0. 0. 0. 0. 0. 0. 0. 0.],5.7373046875,-2.13623046875,-7.568359375,[0. 0. 0. 0. 0. 0. 0. 0. 0.],-0.06005859375,0.0048828125,0.9658203125,[0. 0. 0. 0. 0. 0. 0. 0. 0.]
7.143785238265991,0.03562378138303757,-0.0030794760677963495,-0.9918072819709778,-0.1226368248462677,[0. 0. 0. 0. 0. 0. 0. 0. 0.],-9.27734375,-4.7607421875,-2.86865234375,[0. 0. 0. 0. 0. 0. 0. 0. 0.],-0.12060546875,0.06201171875,0.80859375,[0. 0. 0. 0. 0. 0. 0. 0. 0.]
7.164019823074341,0.03537493199110031,-0.002882331609725952,-0.9917833805084229,-0.12290672957897186,[0. 0. 0. 0. 0. 0. 0. 0. 0.],0.06103515625,-12.87841796875,-2.197265625,[0. 0. 0. 0. 0. 0. 0. 0. 0.],-0.14794921875,0.00634765625,0.9892578125,[0. 0. 0. 0. 0. 0. 0. 0. 0.]
7.18536639213562,0.03350038081407547,-0.0032138817477971315,-0.9917844533920288,-0.12341465055942535,[0. 0. 0. 0. 0. 0. 0. 0. 0.],4.2724609375,-3.35693359375,-1.708984375,[0. 0. 0. 0. 0. 0. 0. 0. 0.],-0.04052734375,0.02001953125,1.08056640625,[0. 0. 0. 0. 0. 0. 0. 0. 0.]
7.20437479019165,0.03254043683409691,-0.004590787924826145,-0.991811990737915,-0.1234058067202568,[0. 0. 0. 0. 0. 0. 0. 0. 0.],4.0283203125,-1.953125,1.03759765625,[0. 0. 0. 0. 0. 0. 0. 0. 0.],-0.05419921875,0.048828125,1.01953125,[0. 0. 0. 0. 0. 0. 0. 0. 0.]
7.223971366882324,0.03149820491671562,-0.006472456734627485,-0.9918667674064636,-0.1231522336602211,[0. 0. 0. 0. 0. 0. 0. 0. 0.],-2.50244140625,-4.2724609375,1.708984375,[0. 0. 0. 0. 0. 0. 0. 0. 0.],-0.06884765625,0.0439453125,0.97705078125,[0. 0. 0. 0. 0. 0. 0. 0. 0.]
7.243940591812134,0.030644668266177177,-0.006889491342008114,-0.9919168949127197,-0.12294017523527145,[0. 0. 0. 0. 0. 0. 0. 0. 0.],-4.2724609375,6.7138671875,-0.244140625,[0. 0. 0. 0. 0. 0. 0. 0. 0.],0.029296875,0.044921875,0.98095703125,[0. 0. 0. 0. 0. 0. 0. 0. 0.]
7.263873815536499,0.029421931132674217,-0.007044152356684208,-0.9919345378875732,-0.12308763712644577,[0. 0. 0. 0. 0. 0. 0. 0. 0.],2.25830078125,-0.8544921875,-1.89208984375,[0. 0. 0. 0. 0. 0. 0. 0. 0.],-0.005859375,0.01220703125,1.01416015625,[0. 0. 0. 0. 0. 0. 0. 0. 0.]
7.279814004898071,0.027028942480683327,-0.008854090236127377,-0.9919735789299011,-0.12320559471845627,[0. 0. 0. 0. 0. 0. 0. 0. 0.],4.638671875,-3.90625,-1.52587890625,[0. 0. 0. 0. 0. 0. 0. 0. 0.],-0.00732421875,0.03173828125,1.05615234375,[0. 0. 0. 0. 0. 0. 0. 0. 0.]
7.305486440658569,0.025722535327076912,-0.009634407237172127,-0.9919687509536743,-0.12346525490283966,[0. 0. 0. 0. 0. 0. 0. 0. 0.],2.50244140625,0.6103515625,-1.953125,[0. 0. 0. 0. 0. 0. 0. 0. 0.],0.03271484375,0.05322265625,1.10546875,[0. 0. 0. 0. 0. 0. 0. 0. 0.]
7.3235251903533936,0.02436070330440998,-0.010760441422462463,-0.9919422268867493,-0.12386050075292587,[0. 0. 0. 0. 0. 0. 0. 0. 0.],1.28173828125,-1.89208984375,-2.62451171875,[0. 0. 0. 0. 0. 0. 0. 0. 0.],-0.02783203125,0.0546875,1.0439453125,[0. 0. 0. 0. 0. 0. 0. 0. 0.]
7.345239639282227,0.023280255496501923,-0.011898144148290157,-0.991895854473114,-0.12433449923992157,[0. 0. 0. 0. 0. 0. 0. 0. 0.],-1.5869140625,0.9765625,-2.44140625,[0. 0. 0. 0. 0. 0. 0. 0. 0.],-0.03662109375,0.03173828125,0.9267578125,[0. 0. 0. 0. 0. 0. 0. 0. 0.]
7.363437175750732,0.024334317073225975,-0.013073316775262356,-0.9918301105499268,-0.12453939765691757,[0. 0. 0. 0. 0. 0. 0. 0. 0.],-0.244140625,-3.2958984375,-1.3427734375,[0. 0. 0. 0. 0. 0. 0. 0. 0.],-0.0732421875,0.0322265625,0.91015625,[0. 0. 0. 0. 0. 0. 0. 0. 0.]
7.3837504386901855,0.024160994216799736,-0.013738496229052544,-0.9917864799499512,-0.12484846264123917,[0. 0. 0. 0. 0. 0. 0. 0. 0.],-2.13623046875,5.0048828125,-3.11279296875,[0. 0. 0. 0. 0. 0. 0. 0. 0.],0.0107421875,0.05419921875,1.09765625,[0. 0. 0. 0. 0. 0. 0. 0. 0.]
7.4035210609436035,0.02295714057981968,-0.014224737882614136,-0.9917387366294861,-0.12539897859096527,[0. 0. 0. 0. 0. 0. 0. 0. 0.],1.220703125,-4.2724609375,-3.47900390625,[0. 0. 0. 0. 0. 0. 0. 0. 0.],-0.05810546875,0.0244140625,1.10986328125,[0. 0. 0. 0. 0. 0. 0. 0. 0.]
7.423867702484131,0.021717136725783348,-0.013797576539218426,-0.99170982837677,-0.12589552998542786,[0. 0. 0. 0. 0. 0. 0. 0. 0.],1.220703125,2.5634765625,-1.708984375,[0. 0. 0. 0. 0. 0. 0. 0. 0.],-0.02880859375,0.02587890625,0.9150390625,[0. 0. 0. 0. 0. 0. 0. 0. 0.]
7.44450569152832,0.02248341776430607,-0.014205271378159523,-0.991694450378418,-0.12583643198013306,[0. 0. 0. 0. 0. 0. 0. 0. 0.],-11.23046875,-3.84521484375,1.0986328125,[0. 0. 0. 0. 0. 0. 0. 0. 0.],-0.11328125,0.05615234375,0.86376953125,[0. 0. 0. 0. 0. 0. 0. 0. 0.]
7.464213132858276,0.02219034917652607,-0.013665604405105114,-0.9917141199111938,-0.12579333782196045,[0. 0. 0. 0. 0. 0. 0. 0. 0.],2.99072265625,-10.7421875,-0.1220703125,[0. 0. 0. 0. 0. 0. 0. 0. 0.],-0.08203125,-0.0078125,1.12060546875,[0. 0. 0. 0. 0. 0. 0. 0. 0.]
7.483413219451904,0.020944857969880104,-0.013222700916230679,-0.9917341470718384,-0.12589643895626068,[0. 0. 0. 0. 0. 0. 0. 0. 0.],1.64794921875,-1.0986328125,-1.03759765625,[0. 0. 0. 0. 0. 0. 0. 0. 0.],-0.0126953125,0.02490234375,1.0595703125,[0. 0. 0. 0. 0. 0. 0. 0. 0.]
7.503412485122681,0.0194889847189188,-0.01411144807934761,-0.9917659163475037,-0.12578341364860535,[0. 0. 0. 0. 0. 0. 0. 0. 0.],0.1220703125,-1.953125,0.67138671875,[0. 0. 0. 0. 0. 0. 0. 0. 0.],-0.02880859375,0.04345703125,1.037109375,[0. 0. 0. 0. 0. 0. 0. 0. 0.]
7.523323059082031,0.018819628283381462,-0.013832397758960724,-0.9918354153633118,-0.1253676414489746,[0. 0. 0. 0. 0. 0. 0. 0. 0.],-8.9111328125,-4.08935546875,2.5634765625,[0. 0. 0. 0. 0. 0. 0. 0. 0.],-0.02880859375,0.0078125,0.93701171875,[0. 0. 0. 0. 0. 0. 0. 0. 0.]
7.5457072257995605,0.01788421720266342,-0.00981201883405447,-0.992045521736145,-0.1242160052061081,[0. 0. 0. 0. 0. 0. 0. 0. 0.],-7.8125,-3.35693359375,9.6435546875,[0. 0. 0. 0. 0. 0. 0. 0. 0.],0.0810546875,-0.1357421875,1.0146484375,[0. 0. 0. 0. 0. 0. 0. 0. 0.]
7.563516139984131,0.01639796607196331,-0.007413311395794153,-0.992306113243103,-0.12249425798654556,[0. 0. 0. 0. 0. 0. 0. 0. 0.],-7.4462890625,-8.9111328125,15.56396484375,[0. 0. 0. 0. 0. 0. 0. 0. 0.],0.09033203125,-0.19189453125,0.9716796875,[0. 0. 0. 0. 0. 0. 0. 0. 0.]
7.585467576980591,0.013494406826794147,-0.004811074119061232,-0.9929620027542114,-0.11756375432014465,[0. 0. 0. 0. 0. 0. 0. 0. 0.],1.15966796875,-5.43212890625,28.076171875,[0. 0. 0. 0. 0. 0. 0. 0. 0.],0.14111328125,-0.22119140625,1.06591796875,[0. 0. 0. 0. 0. 0. 0. 0. 0.]
7.6034440994262695,0.012137370184063911,-0.0035477171186357737,-0.9934899210929871,-0.11321589350700378,[0. 0. 0. 0. 0. 0. 0. 0. 0.],-2.8076171875,-6.34765625,36.4990234375,[0. 0. 0. 0. 0. 0. 0. 0. 0.],0.11474609375,-0.21484375,1.052734375,[0. 0. 0. 0. 0. 0. 0. 0. 0.]
7.620651483535767,0.009461957961320877,-0.0006820742273703218,-0.9946052432060242,-0.10329785943031311,[0. 0. 0. 0. 0. 0. 0. 0. 0.],-6.7138671875,-11.23046875,53.52783203125,[0. 0. 0. 0. 0. 0. 0. 0. 0.],0.04443359375,-0.2197265625,0.953125,[0. 0. 0. 0. 0. 0. 0. 0. 0.]
7.639466762542725,0.008677303791046143,0.0011594564421102405,-0.9954056143760681,-0.09534718096256256,[0. 0. 0. 0. 0. 0. 0. 0. 0.],-3.96728515625,2.5634765625,64.697265625,[0. 0. 0. 0. 0. 0. 0. 0. 0.],0.125,-0.24853515625,1.00634765625,[0. 0. 0. 0. 0. 0. 0. 0. 0.]
7.66349196434021,0.008357042446732521,0.0022278805263340473,-0.9965307712554932,-0.08277485519647598,[0. 0. 0. 0. 0. 0. 0. 0. 0.],2.13623046875,-5.06591796875,77.81982421875,[0. 0. 0. 0. 0. 0. 0. 0. 0.],0.10498046875,-0.2421875,1.033203125,[0. 0. 0. 0. 0. 0. 0. 0. 0.]
7.687561750411987,0.006068019196391106,0.004745477810502052,-0.9976609349250793,-0.06792221963405609,[0. 0. 0. 0. 0. 0. 0. 0. 0.],-8.544921875,-13.18359375,89.66064453125,[0. 0. 0. 0. 0. 0. 0. 0. 0.],0.01513671875,-0.1982421875,0.8486328125,[0. 0. 0. 0. 0. 0. 0. 0. 0.]
7.703742027282715,0.0036773246247321367,0.009129405952990055,-0.9988560080528259,-0.04679640755057335,[0. 0. 0. 0. 0. 0. 0. 0. 0.],-7.32421875,-8.36181640625,101.6845703125,[0. 0. 0. 0. 0. 0. 0. 0. 0.],0.13818359375,-0.2890625,1.04541015625,[0. 0. 0. 0. 0. 0. 0. 0. 0.]
7.724655628204346,0.0018870927160605788,0.010183434933423996,-0.9995341300964355,-0.028709452599287033,[0. 0. 0. 0. 0. 0. 0. 0. 0.],3.41796875,2.685546875,107.2998046875,[0. 0. 0. 0. 0. 0. 0. 0. 0.],0.2236328125,-0.29833984375,1.0703125,[0. 0. 0. 0. 0. 0. 0. 0. 0.]
7.743708372116089,0.002051042392849922,0.011430485174059868,-0.9998319745063782,-0.014187945052981377,[0. 0. 0. 0. 0. 0. 0. 0. 0.],-5.2490234375,-1.0986328125,114.19677734375,[0. 0. 0. 0. 0. 0. 0. 0. 0.],0.162109375,-0.2236328125,0.958984375,[0. 0. 0. 0. 0. 0. 0. 0. 0.]
7.759245157241821,6.572013080585748e-05,0.012879588641226292,-0.9998964667320251,0.006421211641281843,[0. 0. 0. 0. 0. 0. 0. 0. 0.],3.2958984375,-4.21142578125,120.60546875,[0. 0. 0. 0. 0. 0. 0. 0. 0.],0.18896484375,-0.32861328125,1.13525390625,[0. 0. 0. 0. 0. 0. 0. 0. 0.]
7.783627510070801,-0.0025702635757625103,0.012884191237390041,-0.9995232224464417,0.027941299602389336,[0. 0. 0. 0. 0. 0. 0. 0. 0.],9.27734375,-14.22119140625,127.44140625,[0. 0. 0. 0. 0. 0. 0. 0. 0.],0.158203125,-0.30224609375,1.00390625,[0. 0. 0. 0. 0. 0. 0. 0. 0.]
7.803836107254028,-0.004067875444889069,0.013064849190413952,-0.9986060857772827,0.05097885802388191,[0. 0. 0. 0. 0. 0. 0. 0. 0.],3.23486328125,-5.4931640625,136.962890625,[0. 0. 0. 0. 0. 0. 0. 0. 0.],0.20654296875,-0.234375,0.9140625,[0. 0. 0. 0. 0. 0. 0. 0. 0.]
7.8238301277160645,-0.008150259964168072,0.014733311720192432,-0.9969832897186279,0.07576848566532135,[0. 0. 0. 0. 0. 0. 0. 0. 0.],-3.84521484375,-21.78955078125,146.240234375,[0. 0. 0. 0. 0. 0. 0. 0. 0.],0.1181640625,-0.2060546875,0.81005859375,[0. 0. 0. 0. 0. 0. 0. 0. 0.]
7.839679718017578,-0.011041766032576561,0.01779533363878727,-0.9937986731529236,0.1092047467827797,[0. 0. 0. 0. 0. 0. 0. 0. 0.],-6.53076171875,6.34765625,158.203125,[0. 0. 0. 0. 0. 0. 0. 0. 0.],0.314453125,-0.2646484375,0.98388671875,[0. 0. 0. 0. 0. 0. 0. 0. 0.]
7.86348819732666,-0.012615861371159554,0.018760528415441513,-0.9912749528884888,0.12985698878765106,[0. 0. 0. 0. 0. 0. 0. 0. 0.],2.5634765625,-18.12744140625,159.3017578125,[0. 0. 0. 0. 0. 0. 0. 0. 0.],0.28955078125,-0.34375,1.1171875,[0. 0. 0. 0. 0. 0. 0. 0. 0.]
7.889186382293701,-0.015570991672575474,0.01791595295071602,-0.9871805310249329,0.15783260762691498,[0. 0. 0. 0. 0. 0. 0. 0. 0.],18.4326171875,-15.9912109375,163.02490234375,[0. 0. 0. 0. 0. 0. 0. 0. 0.],0.3369140625,-0.37451171875,1.16845703125,[0. 0. 0. 0. 0. 0. 0. 0. 0.]
7.899693965911865,-0.018273882567882538,0.017073018476366997,-0.9805076718330383,0.1948830634355545,[0. 0. 0. 0. 0. 0. 0. 0. 0.],0.8544921875,-0.8544921875,178.5888671875,[0. 0. 0. 0. 0. 0. 0. 0. 0.],0.3359375,-0.1982421875,0.8955078125,[0. 0. 0. 0. 0. 0. 0. 0. 0.]
7.918665170669556,-0.020912911742925644,0.0178973488509655,-0.9756057858467102,0.2177976667881012,[0. 0. 0. 0. 0. 0. 0. 0. 0.],-3.11279296875,-21.1181640625,181.15234375,[0. 0. 0. 0. 0. 0. 0. 0. 0.],0.25244140625,-0.23388671875,0.86669921875,[0. 0. 0. 0. 0. 0. 0. 0. 0.]
7.940938234329224,-0.025395354256033897,0.019675761461257935,-0.9656359553337097,0.2579054534435272,[0. 0. 0. 0. 0. 0. 0. 0. 0.],-7.080078125,-8.9111328125,190.91796875,[0. 0. 0. 0. 0. 0. 0. 0. 0.],0.2529296875,-0.27294921875,0.80859375,[0. 0. 0. 0. 0. 0. 0. 0. 0.]
7.963589906692505,-0.02802579291164875,0.01968616247177124,-0.9587680697441101,0.28211861848831177,[0. 0. 0. 0. 0. 0. 0. 0. 0.],9.27734375,-20.751953125,193.359375,[0. 0. 0. 0. 0. 0. 0. 0. 0.],0.36474609375,-0.3935546875,1.1123046875,[0. 0. 0. 0. 0. 0. 0. 0. 0.]
7.9868247509002686,-0.02966664917767048,0.01902743987739086,-0.9484346508979797,0.31500720977783203,[0. 0. 0. 0. 0. 0. 0. 0. 0.],8.72802734375,-2.197265625,197.1435546875,[0. 0. 0. 0. 0. 0. 0. 0. 0.],0.48779296875,-0.3642578125,1.17724609375,[0. 0. 0. 0. 0. 0. 0. 0. 0.]
7.998608350753784,-0.032440248876810074,0.01807563193142414,-0.9367246031761169,0.3480919897556305,[0. 0. 0. 0. 0. 0. 0. 0. 0.],8.72802734375,-22.5830078125,202.880859375,[0. 0. 0. 0. 0. 0. 0. 0. 0.],0.35107421875,-0.31689453125,0.982421875,[0. 0. 0. 0. 0. 0. 0. 0. 0.]
8.01865005493164,-0.03478977084159851,0.018638979643583298,-0.9232737421989441,0.38210973143577576,[0. 0. 0. 0. 0. 0. 0. 0. 0.],-7.26318359375,-11.53564453125,212.646484375,[0. 0. 0. 0. 0. 0. 0. 0. 0.],0.2783203125,-0.23828125,0.73486328125,[0. 0. 0. 0. 0. 0. 0. 0. 0.]
8.038685083389282,-0.039810024201869965,0.01887885108590126,-0.9080671668052673,0.4165005385875702,[0. 0. 0. 0. 0. 0. 0. 0. 0.],0.91552734375,-15.44189453125,216.9189453125,[0. 0. 0. 0. 0. 0. 0. 0. 0.],0.353515625,-0.375,0.94384765625,[0. 0. 0. 0. 0. 0. 0. 0. 0.]
8.064029216766357,-0.04107845574617386,0.019428309053182602,-0.8913002014160156,0.45113083720207214,[0. 0. 0. 0. 0. 0. 0. 0. 0.],9.58251953125,-8.48388671875,220.703125,[0. 0. 0. 0. 0. 0. 0. 0. 0.],0.5244140625,-0.435546875,1.1630859375,[0. 0. 0. 0. 0. 0. 0. 0. 0.]
8.08587098121643,-0.042844727635383606,0.017924413084983826,-0.8683748841285706,0.493728905916214,[0. 0. 0. 0. 0. 0. 0. 0. 0.],14.22119140625,11.3525390625,226.9287109375,[0. 0. 0. 0. 0. 0. 0. 0. 0.],0.458984375,-0.3759765625,1.0224609375,[0. 0. 0. 0. 0. 0. 0. 0. 0.]
8.10405445098877,-0.04293127730488777,0.017367975786328316,-0.8531700968742371,0.519572913646698,[0. 0. 0. 0. 0. 0. 0. 0. 0.],13.916015625,-20.69091796875,227.5390625,[0. 0. 0. 0. 0. 0. 0. 0. 0.],0.3486328125,-0.2578125,0.796875,[0. 0. 0. 0. 0. 0. 0. 0. 0.]
8.125171422958374,-0.04869338870048523,0.015357053838670254,-0.8253186941146851,0.5623542666435242,[0. 0. 0. 0. 0. 0. 0. 0. 0.],-2.197265625,-5.37109375,236.572265625,[0. 0. 0. 0. 0. 0. 0. 0. 0.],0.5458984375,-0.2470703125,0.873046875,[0. 0. 0. 0. 0. 0. 0. 0. 0.]
8.143817901611328,-0.04936450347304344,0.016242720186710358,-0.8078992962837219,0.5870248079299927,[0. 0. 0. 0. 0. 0. 0. 0. 0.],6.28662109375,-9.70458984375,228.69873046875,[0. 0. 0. 0. 0. 0. 0. 0. 0.],0.720703125,-0.32763671875,1.12890625,[0. 0. 0. 0. 0. 0. 0. 0. 0.]
8.163642406463623,-0.049106448888778687,0.01583147421479225,-0.7838424444198608,0.6188126802444458,[0. 0. 0. 0. 0. 0. 0. 0. 0.],10.7421875,7.87353515625,228.21044921875,[0. 0. 0. 0. 0. 0. 0. 0. 0.],0.61669921875,-0.30810546875,1.037109375,[0. 0. 0. 0. 0. 0. 0. 0. 0.]
8.19035530090332,-0.05142810940742493,0.015191849321126938,-0.7521148324012756,0.6568468809127808,[0. 0. 0. 0. 0. 0. 0. 0. 0.],1.8310546875,-7.50732421875,222.65625,[0. 0. 0. 0. 0. 0. 0. 0. 0.],0.6025390625,-0.3583984375,0.98583984375,[0. 0. 0. 0. 0. 0. 0. 0. 0.]
8.203929901123047,-0.051832638680934906,0.015505821444094181,-0.7328231930732727,0.6782647371292114,[0. 0. 0. 0. 0. 0. 0. 0. 0.],5.7373046875,-5.55419921875,221.3134765625,[0. 0. 0. 0. 0. 0. 0. 0. 0.],0.5771484375,-0.29541015625,0.86865234375,[0. 0. 0. 0. 0. 0. 0. 0. 0.]
8.22432279586792,-0.05413632467389107,0.015538358129560947,-0.706537663936615,0.7054306268692017,[0. 0. 0. 0. 0. 0. 0. 0. 0.],-1.15966796875,-14.892578125,211.9140625,[0. 0. 0. 0. 0. 0. 0. 0. 0.],0.53759765625,-0.32861328125,0.87548828125,[0. 0. 0. 0. 0. 0. 0. 0. 0.]
8.24360179901123,-0.0546705536544323,0.015123315155506134,-0.681131899356842,0.7299602031707764,[0. 0. 0. 0. 0. 0. 0. 0. 0.],9.70458984375,0.06103515625,198.54736328125,[0. 0. 0. 0. 0. 0. 0. 0. 0.],0.72412109375,-0.3837890625,1.11962890625,[0. 0. 0. 0. 0. 0. 0. 0. 0.]
8.264801740646362,-0.05304337292909622,0.017143642529845238,-0.656257152557373,0.752475380897522,[0. 0. 0. 0. 0. 0. 0. 0. 0.],5.37109375,1.40380859375,187.5,[0. 0. 0. 0. 0. 0. 0. 0. 0.],0.599609375,-0.28759765625,0.9326171875,[0. 0. 0. 0. 0. 0. 0. 0. 0.]
8.285108804702759,-0.055024806410074234,0.015386364422738552,-0.6326349377632141,0.7723398208618164,[0. 0. 0. 0. 0. 0. 0. 0. 0.],5.2490234375,-13.3056640625,169.49462890625,[0. 0. 0. 0. 0. 0. 0. 0. 0.],0.60205078125,-0.30908203125,1.021484375,[0. 0. 0. 0. 0. 0. 0. 0. 0.]
8.303593158721924,-0.054933011531829834,0.015377755276858807,-0.6120644807815552,0.7887477278709412,[0. 0. 0. 0. 0. 0. 0. 0. 0.],7.2021484375,-0.91552734375,141.66259765625,[0. 0. 0. 0. 0. 0. 0. 0. 0.],0.75244140625,-0.2421875,1.07861328125,[0. 0. 0. 0. 0. 0. 0. 0. 0.]
8.323928833007812,-0.054559677839279175,0.01580076664686203,-0.5942486524581909,0.8022730946540833,[0. 0. 0. 0. 0. 0. 0. 0. 0.],3.96728515625,-1.0986328125,121.9482421875,[0. 0. 0. 0. 0. 0. 0. 0. 0.],0.5009765625,-0.1708984375,0.8310546875,[0. 0. 0. 0. 0. 0. 0. 0. 0.]
8.344026803970337,-0.056163858622312546,0.012882672250270844,-0.579286515712738,0.8130848407745361,[0. 0. 0. 0. 0. 0. 0. 0. 0.],3.173828125,-12.451171875,98.876953125,[0. 0. 0. 0. 0. 0. 0. 0. 0.],0.5439453125,-0.2001953125,0.9189453125,[0. 0. 0. 0. 0. 0. 0. 0. 0.]
8.363624811172485,-0.05550048500299454,0.012841188348829746,-0.56707763671875,0.8216920495033264,[0. 0. 0. 0. 0. 0. 0. 0. 0.],5.859375,13.916015625,79.04052734375,[0. 0. 0. 0. 0. 0. 0. 0. 0.],0.71875,-0.169921875,1.07861328125,[0. 0. 0. 0. 0. 0. 0. 0. 0.]
8.38380765914917,-0.05430569872260094,0.0140168322250247,-0.5547676086425781,0.830112874507904,[0. 0. 0. 0. 0. 0. 0. 0. 0.],4.0283203125,-13.85498046875,60.48583984375,[0. 0. 0. 0. 0. 0. 0. 0. 0.],0.505859375,-0.18212890625,0.9580078125,[0. 0. 0. 0. 0. 0. 0. 0. 0.]
8.403487920761108,-0.05598273128271103,0.01037454605102539,-0.5489137768745422,0.8339377045631409,[0. 0. 0. 0. 0. 0. 0. 0. 0.],7.87353515625,-25.32958984375,48.2177734375,[0. 0. 0. 0. 0. 0. 0. 0. 0.],0.54541015625,-0.20458984375,1.06591796875,[0. 0. 0. 0. 0. 0. 0. 0. 0.]
8.423604726791382,-0.054675329476594925,0.009263803251087666,-0.5433041453361511,0.8377025127410889,[0. 0. 0. 0. 0. 0. 0. 0. 0.],13.427734375,16.845703125,33.3251953125,[0. 0. 0. 0. 0. 0. 0. 0. 0.],0.765625,-0.1435546875,1.11328125,[0. 0. 0. 0. 0. 0. 0. 0. 0.]
8.443511009216309,-0.05343668535351753,0.007535766344517469,-0.5396947860717773,0.8401293754577637,[0. 0. 0. 0. 0. 0. 0. 0. 0.],7.080078125,-7.26318359375,20.08056640625,[0. 0. 0. 0. 0. 0. 0. 0. 0.],0.458984375,-0.08935546875,0.8291015625,[0. 0. 0. 0. 0. 0. 0. 0. 0.]
8.466106414794922,-0.05430550128221512,0.005879450123757124,-0.5377659797668457,0.8413228392601013,[0. 0. 0. 0. 0. 0. 0. 0. 0.],-2.685546875,0.732421875,7.38525390625,[0. 0. 0. 0. 0. 0. 0. 0. 0.],0.515625,-0.0546875,0.806640625,[0. 0. 0. 0. 0. 0. 0. 0. 0.]
8.478661060333252,-0.055564526468515396,0.003192444099113345,-0.5386179685592651,0.840709924697876,[0. 0. 0. 0. 0. 0. 0. 0. 0.],4.33349609375,-8.11767578125,-14.7705078125,[0. 0. 0. 0. 0. 0. 0. 0. 0.],0.607421875,-0.06103515625,1.00439453125,[0. 0. 0. 0. 0. 0. 0. 0. 0.]
8.503549337387085,-0.055916912853717804,0.0007696191896684468,-0.542903482913971,0.8379311561584473,[0. 0. 0. 0. 0. 0. 0. 0. 0.],10.498046875,-2.74658203125,-38.9404296875,[0. 0. 0. 0. 0. 0. 0. 0. 0.],0.68212890625,-0.0361328125,1.17041015625,[0. 0. 0. 0. 0. 0. 0. 0. 0.]
8.523500204086304,-0.05281961336731911,0.001180909457616508,-0.550654947757721,0.8330594301223755,[0. 0. 0. 0. 0. 0. 0. 0. 0.],7.4462890625,24.5361328125,-55.5419921875,[0. 0. 0. 0. 0. 0. 0. 0. 0.],0.611328125,0.0224609375,0.96923828125,[0. 0. 0. 0. 0. 0. 0. 0. 0.]
8.543559789657593,-0.05278348922729492,0.0016048133838921785,-0.5607548356056213,0.8262962102890015,[0. 0. 0. 0. 0. 0. 0. 0. 0.],-7.568359375,3.173828125,-78.18603515625,[0. 0. 0. 0. 0. 0. 0. 0. 0.],0.38720703125,0.10791015625,0.7578125,[0. 0. 0. 0. 0. 0. 0. 0. 0.]
8.563933372497559,-0.05239319056272507,-0.00013456953456625342,-0.5744151473045349,0.8168857097625732,[0. 0. 0. 0. 0. 0. 0. 0. 0.],7.568359375,7.9345703125,-104.248046875,[0. 0. 0. 0. 0. 0. 0. 0. 0.],0.47998046875,0.046875,1.14453125,[0. 0. 0. 0. 0. 0. 0. 0. 0.]
8.588733911514282,-0.050114963203668594,-0.0020153545774519444,-0.590449333190918,0.8055148720741272,[0. 0. 0. 0. 0. 0. 0. 0. 0.],13.3056640625,10.19287109375,-116.27197265625,[0. 0. 0. 0. 0. 0. 0. 0. 0.],0.18701171875,0.07470703125,1.056640625,[0. 0. 0. 0. 0. 0. 0. 0. 0.]
8.604339361190796,-0.04289518669247627,9.920217053149827e-06,-0.611835241317749,0.7898213267326355,[0. 0. 0. 0. 0. 0. 0. 0. 0.],11.23046875,34.7900390625,-121.39892578125,[0. 0. 0. 0. 0. 0. 0. 0. 0.],-0.0927734375,0.111328125,1.0205078125,[0. 0. 0. 0. 0. 0. 0. 0. 0.]
8.62354040145874,-0.0386260561645031,0.0012636656174436212,-0.6245390772819519,0.7800368070602417,[0. 0. 0. 0. 0. 0. 0. 0. 0.],13.36669921875,24.23095703125,-123.9013671875,[0. 0. 0. 0. 0. 0. 0. 0. 0.],-0.24169921875,0.15380859375,1.06689453125,[0. 0. 0. 0. 0. 0. 0. 0. 0.]
8.64373230934143,-0.03386801853775978,0.0017500001704320312,-0.6415090560913086,0.7663655877113342,[0. 0. 0. 0. 0. 0. 0. 0. 0.],8.30078125,17.39501953125,-125.0,[0. 0. 0. 0. 0. 0. 0. 0. 0.],-0.318359375,0.283203125,0.9580078125,[0. 0. 0. 0. 0. 0. 0. 0. 0.]
8.663403272628784,-0.030303172767162323,0.0014141974970698357,-0.658160924911499,0.7522658705711365,[0. 0. 0. 0. 0. 0. 0. 0. 0.],5.615234375,8.36181640625,-124.69482421875,[0. 0. 0. 0. 0. 0. 0. 0. 0.],-0.34130859375,0.3203125,0.93701171875,[0. 0. 0. 0. 0. 0. 0. 0. 0.]
8.684918880462646,-0.025745347142219543,0.0013745013857260346,-0.6783560514450073,0.7342808246612549,[0. 0. 0. 0. 0. 0. 0. 0. 0.],4.82177734375,10.31494140625,-124.0234375,[0. 0. 0. 0. 0. 0. 0. 0. 0.],-0.23876953125,0.31103515625,0.96484375,[0. 0. 0. 0. 0. 0. 0. 0. 0.]
8.704835653305054,-0.024229437112808228,0.0023017895873636007,-0.6900265216827393,0.7233747839927673,[0. 0. 0. 0. 0. 0. 0. 0. 0.],-6.8359375,8.30078125,-124.45068359375,[0. 0. 0. 0. 0. 0. 0. 0. 0.],-0.2861328125,0.3564453125,0.88623046875,[0. 0. 0. 0. 0. 0. 0. 0. 0.]
8.71877145767212,-0.02195729874074459,0.002181795658543706,-0.7056483030319214,0.7082185745239258,[0. 0. 0. 0. 0. 0. 0. 0. 0.],3.41796875,8.30078125,-124.6337890625,[0. 0. 0. 0. 0. 0. 0. 0. 0.],-0.25732421875,0.287109375,1.0185546875,[0. 0. 0. 0. 0. 0. 0. 0. 0.]
8.743496894836426,-0.019246486946940422,0.0025622863322496414,-0.7205871343612671,0.6930924654006958,[0. 0. 0. 0. 0. 0. 0. 0. 0.],-3.662109375,8.85009765625,-119.20166015625,[0. 0. 0. 0. 0. 0. 0. 0. 0.],-0.27685546875,0.33935546875,1.00341796875,[0. 0. 0. 0. 0. 0. 0. 0. 0.]
8.758732795715332,-0.01759445294737816,0.002537401393055916,-0.7347550392150879,0.6780996322631836,[0. 0. 0. 0. 0. 0. 0. 0. 0.],-0.18310546875,2.8076171875,-116.27197265625,[0. 0. 0. 0. 0. 0. 0. 0. 0.],-0.29296875,0.3330078125,1.07421875,[0. 0. 0. 0. 0. 0. 0. 0. 0.]
8.783856868743896,-0.015469757840037346,0.0021342914551496506,-0.7481456995010376,0.6633508205413818,[0. 0. 0. 0. 0. 0. 0. 0. 0.],4.150390625,-1.03759765625,-114.44091796875,[0. 0. 0. 0. 0. 0. 0. 0. 0.],-0.2587890625,0.3125,1.04345703125,[0. 0. 0. 0. 0. 0. 0. 0. 0.]
8.803455591201782,-0.0142410509288311,0.001478339545428753,-0.7609791159629822,0.6486184000968933,[0. 0. 0. 0. 0. 0. 0. 0. 0.],0.54931640625,-0.30517578125,-112.60986328125,[0. 0. 0. 0. 0. 0. 0. 0. 0.],-0.2470703125,0.328125,1.00048828125,[0. 0. 0. 0. 0. 0. 0. 0. 0.]
8.825659990310669,-0.012786682695150375,0.0004198205715510994,-0.7733781933784485,0.6338158845901489,[0. 0. 0. 0. 0. 0. 0. 0. 0.],4.08935546875,-1.220703125,-108.7646484375,[0. 0. 0. 0. 0. 0. 0. 0. 0.],-0.26025390625,0.3134765625,0.98291015625,[0. 0. 0. 0. 0. 0. 0. 0. 0.]
8.843646049499512,-0.011167704127728939,-0.0009579280158504844,-0.7850179076194763,0.6193717122077942,[0. 0. 0. 0. 0. 0. 0. 0. 0.],2.44140625,-1.40380859375,-104.79736328125,[0. 0. 0. 0. 0. 0. 0. 0. 0.],-0.26171875,0.31005859375,1.01806640625,[0. 0. 0. 0. 0. 0. 0. 0. 0.]
8.863972187042236,-0.00951891764998436,-0.001633681240491569,-0.7957133650779724,0.6055963635444641,[0. 0. 0. 0. 0. 0. 0. 0. 0.],1.5869140625,2.38037109375,-98.32763671875,[0. 0. 0. 0. 0. 0. 0. 0. 0.],-0.2548828125,0.326171875,1.0068359375,[0. 0. 0. 0. 0. 0. 0. 0. 0.]
8.883638143539429,-0.007833128795027733,-0.0022308588959276676,-0.8054686784744263,0.5925824046134949,[0. 0. 0. 0. 0. 0. 0. 0. 0.],3.5400390625,-1.0986328125,-89.7216796875,[0. 0. 0. 0. 0. 0. 0. 0. 0.],-0.26904296875,0.30078125,1.02978515625,[0. 0. 0. 0. 0. 0. 0. 0. 0.]
8.904465913772583,-0.0058217234909534454,-0.003290783613920212,-0.8139217495918274,0.580936074256897,[0. 0. 0. 0. 0. 0. 0. 0. 0.],5.4931640625,-1.40380859375,-77.08740234375,[0. 0. 0. 0. 0. 0. 0. 0. 0.],-0.2451171875,0.27197265625,1.0,[0. 0. 0. 0. 0. 0. 0. 0. 0.]
8.91914415359497,-0.005165878217667341,-0.004545652773231268,-0.8207805156707764,0.5712022185325623,[0. 0. 0. 0. 0. 0. 0. 0. 0.],-2.44140625,-3.41796875,-62.92724609375,[0. 0. 0. 0. 0. 0. 0. 0. 0.],-0.2392578125,0.3125,0.96923828125,[0. 0. 0. 0. 0. 0. 0. 0. 0.]
8.938843965530396,-0.0047257342375814915,-0.0051089259795844555,-0.8260619044303894,0.5635364055633545,[0. 0. 0. 0. 0. 0. 0. 0. 0.],-0.48828125,-8.72802734375,-48.2177734375,[0. 0. 0. 0. 0. 0. 0. 0. 0.],-0.20703125,0.294921875,1.03515625,[0. 0. 0. 0. 0. 0. 0. 0. 0.]
8.966407537460327,-0.004039619583636522,-0.006025856360793114,-0.8298414945602417,0.5579521059989929,[0. 0. 0. 0. 0. 0. 0. 0. 0.],0.6103515625,-2.3193359375,-32.3486328125,[0. 0. 0. 0. 0. 0. 0. 0. 0.],-0.13671875,0.27490234375,1.03125,[0. 0. 0. 0. 0. 0. 0. 0. 0.]
8.99331521987915,-0.0012330374447628856,-0.00846579484641552,-0.8331125378608704,0.5530372858047485,[0. 0. 0. 0. 0. 0. 0. 0. 0.],4.8828125,-1.03759765625,-10.25390625,[0. 0. 0. 0. 0. 0. 0. 0. 0.],-0.11328125,0.29638671875,0.97705078125,[0. 0. 0. 0. 0. 0. 0. 0. 0.]
9.004351377487183,-0.0008889344171620905,-0.008796009235084057,-0.8333387970924377,0.5526917576789856,[0. 0. 0. 0. 0. 0. 0. 0. 0.],2.685546875,-0.9765625,-9.521484375,[0. 0. 0. 0. 0. 0. 0. 0. 0.],-0.1103515625,0.306640625,0.98095703125,[0. 0. 0. 0. 0. 0. 0. 0. 0.]
9.024198055267334,0.0003082282782997936,-0.009608021937310696,-0.8339389562606812,0.5517730712890625,[0. 0. 0. 0. 0. 0. 0. 0. 0.],-1.3427734375,0.18310546875,-5.126953125,[0. 0. 0. 0. 0. 0. 0. 0. 0.],-0.1025390625,0.349609375,1.0146484375,[0. 0. 0. 0. 0. 0. 0. 0. 0.]
9.04452657699585,0.0017096195369958878,-0.011130934581160545,-0.8345193266868591,0.5508635640144348,[0. 0. 0. 0. 0. 0. 0. 0. 0.],1.77001953125,-1.708984375,-4.45556640625,[0. 0. 0. 0. 0. 0. 0. 0. 0.],-0.0947265625,0.33447265625,1.072265625,[0. 0. 0. 0. 0. 0. 0. 0. 0.]
