time,imu.ypr.x,imu.ypr.y,imu.ypr.z,imu.linear_acceleration.x,imu.linear_acceleration.y,imu.linear_acceleration.z,imu.angular_velocity.x,imu.angular_velocity.y,imu.angular_velocity.z,imu.compass.x,imu.compass.y,imu.compass.z,imu.orientation.x,imu.orientation.y,imu.orientation.z,imu.orientation.w
0.14341974258422852,-1.2250821528839393,2.0724778965546222,160.31591891535652,-0.037109375,0.021484375,1.00537109375,-0.3662109375,-0.6103515625,0.0,0.0,0.0,0.0,0.01964469999074936,-0.007440492976456881,-0.9850983619689941,0.17070423066616058
0.16369938850402832,-1.2084291911920961,2.1413614215512586,160.31983944394008,-0.03759765625,0.02099609375,1.00537109375,0.18310546875,-0.3662109375,0.0,0.0,0.0,0.0,0.02021176926791668,-0.007195181213319302,-0.9850954413414001,0.17066529393196106
0.18339276313781738,-1.185896824007047,2.128321096321823,160.32392389706376,-0.03759765625,0.02099609375,1.005859375,0.1220703125,-0.67138671875,-0.06103515625,0.0,0.0,0.0,0.02006586454808712,-0.007021659519523382,-0.9851048588752747,0.17063570022583008
0.20343923568725586,-1.121798700297651,2.035536818428608,160.3293607276431,-0.03564453125,0.01953125,1.0029296875,-0.1220703125,-0.91552734375,-0.18310546875,0.0,0.0,0.0,0.019172506406903267,-0.006609999109059572,-0.9851298928260803,0.1706104725599289
0.22577857971191406,-1.1849093280634515,2.073378414308006,160.3320928033111,-0.03662109375,0.02099609375,1.00732421875,0.3662109375,-0.54931640625,-0.1220703125,0.0,0.0,0.0,0.019591592252254486,-0.007096561137586832,-0.985124945640564,0.17057207226753235
0.2452096939086914,-1.2837657508505136,2.082802367815331,160.33012570883014,-0.03662109375,0.0224609375,1.00537109375,0.0,-0.3662109375,-0.1220703125,0.0,0.0,0.0,0.01981988176703453,-0.00793201383203268,-0.9851141571998596,0.17057079076766968
0.28917789459228516,-1.1645710524275632,2.005044506096144,160.33915521891288,-0.03515625,0.02099609375,1.00244140625,-0.42724609375,-0.6103515625,-0.18310546875,0.0,0.0,0.0,0.018973462283611298,-0.0070248194970190525,-0.985146164894104,0.17052258551120758
0.28932952880859375,-1.1825766050184805,2.058185512272959,160.34145016247402,-0.0361328125,0.02099609375,1.0048828125,0.1220703125,-0.9765625,-0.30517578125,0.0,0.0,0.0,0.019456936046481133,-0.007100761402398348,-0.9851411581039429,0.1704937219619751
0.3003406524658203,-1.1419496793398927,1.9818365905134985,160.3465591439732,-0.03515625,0.02001953125,1.00341796875,0.42724609375,-0.732421875,-0.18310546875,0.0,0.0,0.0,0.01873984932899475,-0.00686615752056241,-0.9851616621017456,0.170465350151062
0.32363343238830566,-1.2684095646056208,2.064030660098609,160.3440046532236,-0.03662109375,0.0234375,1.00341796875,-0.30517578125,-0.48828125,-0.18310546875,0.0,0.0,0.0,0.019634712487459183,-0.007830385118722916,-0.985138475894928,0.1704564243555069
0.34334349632263184,-1.2657417354044962,2.0784284854255843,160.3473514459169,-0.03662109375,0.0224609375,1.00537109375,-0.3662109375,-0.6103515625,-0.1220703125,0.0,0.0,0.0,0.019754284992814064,-0.007786560337990522,-0.9851416349411011,0.1704263985157013
0.3927924633026123,-1.3099660363415653,2.064098535103486,160.3511080499604,-0.0361328125,0.02294921875,1.00244140625,0.30517578125,-0.6103515625,0.0,0.0,0.0,0.0,0.01969660073518753,-0.0081887636333704,-0.9851461052894592,0.17038825154304504
0.4064319133758545,-1.2243697854978481,2.075216802411797,160.35722789945675,-0.03662109375,0.021484375,1.005859375,-0.06103515625,-0.79345703125,-0.06103515625,0.0,0.0,0.0,0.019664499908685684,-0.00743736932054162,-0.9851595759391785,0.17034895718097687
0.42432355880737305,-1.1954256849511555,2.105921704382178,160.36105280539195,-0.03759765625,0.0205078125,1.00439453125,-0.30517578125,-0.91552734375,-0.244140625,0.0,0.0,0.0,0.019885191693902016,-0.007143449038267136,-0.9851627945899963,0.17031745612621307
0.43938279151916504,-1.2613100098502157,1.9855537075258665,160.36250080549598,-0.03515625,0.02197265625,1.0029296875,-0.18310546875,-0.6103515625,-0.244140625,0.0,0.0,0.0,0.018948255106806755,-0.00788941141217947,-0.9851770997047424,0.17030811309814453
0.45897817611694336,-1.1969776319966292,2.0861286699411274,160.36681748505146,-0.03662109375,0.02099609375,1.0048828125,-0.06103515625,-0.3662109375,-0.06103515625,0.0,0.0,0.0,0.019716983661055565,-0.00718726497143507,-0.9851740598678589,0.17026999592781067
0.4785442352294922,-1.211262972645711,2.0961131258472165,160.37027356077147,-0.037109375,0.0205078125,1.0048828125,-0.244140625,-0.91552734375,-0.1220703125,0.0,0.0,0.0,0.019823823124170303,-0.007295810617506504,-0.9851768612861633,0.17023660242557526
0.5052728652954102,-1.2076974004555527,2.0576386702525347,160.37546450454067,-0.0361328125,0.02099609375,1.005859375,0.42724609375,-0.67138671875,-0.18310546875,0.0,0.0,0.0,0.01948743872344494,-0.007323324214667082,-0.985190212726593,0.17019708454608917
0.5235440731048584,-1.253261485687002,2.028785816764285,160.37633876875444,-0.03564453125,0.02197265625,1.00439453125,-0.18310546875,-0.54931640625,-0.1220703125,0.0,0.0,0.0,0.019307011738419533,-0.007758154533803463,-0.9851923584938049,0.17018522322177887
0.5433862209320068,-1.245272192070497,2.0245250593826665,160.37868835382892,-0.03564453125,0.02197265625,1.00390625,-0.54931640625,-0.54931640625,-0.244140625,0.0,0.0,0.0,0.01925835758447647,-0.007696203421801329,-0.9851970076560974,0.17016693949699402
0.5632936954498291,-1.1811580601052334,2.0947537047589724,160.38538193921553,-0.03662109375,0.0205078125,1.00341796875,-0.18310546875,-0.67138671875,-0.06103515625,0.0,0.0,0.0,0.019766485318541527,-0.007041621021926403,-0.9852012991905212,0.1701119989156723
0.583425760269165,-1.1202930704724863,2.0536302029833835,160.39203454346713,-0.0361328125,0.01953125,1.005859375,0.42724609375,-0.6103515625,0.0,0.0,0.0,0.0,0.01932220347225666,-0.006580631248652935,-0.9852206707000732,0.1700698882341385
0.6046667098999023,-1.1876559178834427,2.02103483271679,160.39278586427582,-0.03564453125,0.02099609375,1.00634765625,0.244140625,-0.732421875,-0.18310546875,0.0,0.0,0.0,0.01914190500974655,-0.007208396680653095,-0.9852221608161926,0.1700558066368103
0.6232638359069824,-1.1879540983293961,2.1200636110586895,160.39685665702115,-0.037109375,0.02099609375,1.00439453125,-0.48828125,-0.8544921875,-0.244140625,0.0,0.0,0.0,0.019993452355265617,-0.007064396515488625,-0.985214352607727,0.17000922560691833
0.6438226699829102,-1.1828214246115432,2.1314085552700806,160.39969801571587,-0.03759765625,0.021484375,1.00537109375,-0.3662109375,-0.48828125,-0.30517578125,0.0,0.0,0.0,0.020083196461200714,-0.007003895007073879,-0.985217273235321,0.16998444497585297
0.6653099060058594,-1.2567752978498563,2.1441598781202598,160.40314043105758,-0.0380859375,0.021484375,1.0048828125,-0.06103515625,-0.244140625,-0.18310546875,0.0,0.0,0.0,0.020302290096879005,-0.00762137258425355,-0.9852157831192017,0.16994036734104156
0.6857833862304688,-1.1106234435984523,2.14228477774968,160.41088586557638,-0.03759765625,0.02001953125,1.00634765625,0.1220703125,-0.67138671875,-0.1220703125,0.0,0.0,0.0,0.020068978890776634,-0.006368953734636307,-0.9852364659309387,0.1698996126651764
0.7033936977386475,-1.2021799949883576,2.108775442794774,160.41088586557638,-0.037109375,0.021484375,1.0048828125,-0.30517578125,-0.9765625,-0.244140625,0.0,0.0,0.0,0.019916633144021034,-0.007205928210169077,-0.985235869884491,0.1698874682188034
0.7199580669403076,-1.2251023232863318,2.0442429617428473,160.41464246961988,-0.03564453125,0.021484375,1.001953125,0.06103515625,-0.54931640625,-0.06103515625,0.0,0.0,0.0,0.01939556561410427,-0.007499530911445618,-0.9852490425109863,0.16985896229743958
0.7468335628509521,-1.2787643448307717,2.006200515613169,160.41483371491663,-0.03515625,0.0224609375,1.00341796875,-0.06103515625,-0.30517578125,-0.06103515625,0.0,0.0,0.0,0.019148029386997223,-0.00801746267825365,-0.9852508306503296,0.16985279321670532
0.7648003101348877,-1.2510537337595011,2.0883435722229153,160.41938262090386,-0.03662109375,0.02197265625,1.005859375,-0.1220703125,-0.79345703125,-0.244140625,0.0,0.0,0.0,0.01981286332011223,-0.007657964248210192,-0.9852481484413147,0.16980835795402527
0.7828114032745361,-1.2187262349744192,2.1151990222657595,160.42531122510343,-0.037109375,0.02099609375,1.0068359375,0.0,-0.9765625,-0.18310546875,0.0,0.0,0.0,0.019995462149381638,-0.007341162301599979,-0.9852553009986877,0.1697598099708557
0.8039708137512207,-1.3238070945294786,2.130191500937349,160.42498337602328,-0.037109375,0.0224609375,1.00439453125,0.0,-0.6103515625,-0.30517578125,0.0,0.0,0.0,0.02028004266321659,-0.008222319185733795,-0.9852455258369446,0.16974234580993652
0.8236572742462158,-1.3099150233662016,2.063437714301287,160.42793401774472,-0.0361328125,0.02294921875,1.00390625,-0.18310546875,-0.732421875,-0.1220703125,0.0,0.0,0.0,0.019685350358486176,-0.008202510885894299,-0.9852601885795593,0.16972774267196655
0.8435602188110352,-1.2670498233522596,2.109863790750333,160.43207311238174,-0.03662109375,0.02197265625,1.00146484375,-0.67138671875,-0.6103515625,-0.244140625,0.0,0.0,0.0,0.020020723342895508,-0.0077657513320446014,-0.9852628111839294,0.16969388723373413
0.8638038635253906,-1.2235410914524552,2.1233211844059623,160.4369635278275,-0.037109375,0.02197265625,1.0029296875,0.06103515625,-0.3662109375,-0.06103515625,0.0,0.0,0.0,0.02007167600095272,-0.007372541353106499,-0.9852710366249084,0.16965778172016144
0.8828513622283936,-1.223907893955226,2.107267891978905,160.43964096198212,-0.037109375,0.021484375,1.0048828125,0.0,-0.3662109375,0.0,0.0,0.0,0.0,0.019934028387069702,-0.0073999823071062565,-0.9852772355079651,0.16963668167591095
0.9033877849578857,-1.2353273299172527,2.0698175378729022,160.4417173394898,-0.03662109375,0.02099609375,1.0048828125,-0.1220703125,-1.03759765625,-0.30517578125,0.0,0.0,0.0,0.01962881162762642,-0.007554091978818178,-0.9852848649024963,0.1696212887763977
0.9235942363739014,-1.2375530110913247,2.113441102328127,160.44500949066975,-0.037109375,0.021484375,1.00390625,-0.30517578125,-0.91552734375,-0.244140625,0.0,0.0,0.0,0.020006949082016945,-0.007509083021432161,-0.9852834939956665,0.1695874035358429
0.9505047798156738,-1.3349802167945617,2.0943942660539006,160.4445860189412,-0.03759765625,0.0234375,1.00439453125,0.1220703125,-0.54931640625,-0.1220703125,0.0,0.0,0.0,0.019987402483820915,-0.008374960161745548,-0.985278844833374,0.169576495885849
0.9634041786193848,-1.1883520635702551,2.1089590041287183,160.4520992270282,-0.037109375,0.02099609375,1.0048828125,0.0,-0.54931640625,0.0,0.0,0.0,0.0,0.01989515870809555,-0.0070939199067652225,-0.9852977395057678,0.1695355921983719
0.9839704036712646,-1.1376260628735688,2.115566998707294,160.45772730290432,-0.037109375,0.02001953125,1.00634765625,0.0,-0.8544921875,-0.06103515625,0.0,0.0,0.0,0.019876597449183464,-0.006648939568549395,-0.9853081703186035,0.1694951355457306
1.0045833587646484,-1.200891543834458,2.058841850763515,160.4595031520885,-0.0361328125,0.02099609375,1.00390625,0.3662109375,-0.54931640625,-0.18310546875,0.0,0.0,0.0,0.019482342526316643,-0.007277310360223055,-0.9853149652481079,0.16947555541992188
1.0242574214935303,-1.307167152885741,2.0604889935705457,160.45985832192537,-0.03662109375,0.02197265625,1.00390625,0.1220703125,-0.6103515625,-0.18310546875,0.0,0.0,0.0,0.019653648138046265,-0.008188735693693161,-0.9853081107139587,0.16945421695709229
1.0460779666900635,-1.278021028150004,2.120033088650836,160.4640383976974,-0.03759765625,0.0224609375,1.00341796875,-0.48828125,-0.79345703125,-0.244140625,0.0,0.0,0.0,0.020122211426496506,-0.007850599475204945,-0.9853079319000244,0.16941583156585693
1.0589194297790527,-1.2326322866811537,2.1091525973030056,160.46783598287593,-0.037109375,0.021484375,1.005859375,-0.06103515625,-0.67138671875,-0.1220703125,0.0,0.0,0.0,0.01996130496263504,-0.0074771130457520485,-0.9853181838989258,0.1693924516439438
1.0838024616241455,-1.2547500400392417,2.0559038022033516,160.47122375670426,-0.0361328125,0.02197265625,1.0048828125,0.18310546875,-0.3662109375,0.0,0.0,0.0,0.0,0.019535942003130913,-0.007746763527393341,-0.9853292107582092,0.1693660318851471
1.1129915714263916,-1.2114502692393574,2.0711498516478777,160.4741743984257,-0.03564453125,0.021484375,1.00390625,0.1220703125,-0.732421875,0.0,0.0,0.0,0.0,0.01960284262895584,-0.007352365180850029,-0.9853342175483704,0.16934619843959808
1.118567943572998,-1.2767677951590124,2.0101763260403507,160.47338209648197,-0.03564453125,0.0224609375,1.00341796875,-0.54931640625,-0.6103515625,-0.244140625,0.0,0.0,0.0,0.01917516626417637,-0.008004188537597656,-0.9853370785713196,0.16934919357299805
1.1636288166046143,-1.236022515108713,2.078196045550392,160.4802805875437,-0.037109375,0.021484375,1.00390625,0.1220703125,-0.42724609375,-0.1220703125,0.0,0.0,0.0,0.019699333235621452,-0.007554267533123493,-0.9853407740592957,0.16928865015506744
1.1638081073760986,-1.2045973483460133,2.1203163280579798,160.48207009710623,-0.03662109375,0.021484375,1.0029296875,-0.06103515625,-0.3662109375,-0.1220703125,0.0,0.0,0.0,0.02001495286822319,-0.007221998646855354,-0.9853394031524658,0.16927365958690643
1.1881840229034424,-1.1637766160497263,1.994983210561892,160.48607258795985,-0.03564453125,0.02099609375,1.00537109375,0.1220703125,-0.8544921875,-0.1220703125,0.0,0.0,0.0,0.018876759335398674,-0.00705720204859972,-0.9853652715682983,0.16926062107086182
1.203620195388794,-1.2338818911341487,2.0473485633810875,160.48635945590502,-0.03662109375,0.02197265625,1.00537109375,-0.3662109375,-0.9765625,-0.18310546875,0.0,0.0,0.0,0.01943053863942623,-0.007582568563520908,-0.9853541254997253,0.169240340590477
1.2234947681427002,-1.2683081789851285,2.1041279259514036,160.4872063993621,-0.037109375,0.0224609375,1.00732421875,-0.1220703125,-0.42724609375,-0.1220703125,0.0,0.0,0.0,0.019969522953033447,-0.00779469171538949,-0.9853451251983643,0.16922032833099365
1.2438468933105469,-1.358546183700104,2.042697631443132,160.4873156823888,-0.0361328125,0.0234375,1.0029296875,-0.06103515625,-0.3662109375,-0.1220703125,0.0,0.0,0.0,0.01957458257675171,-0.008661579340696335,-0.985347330570221,0.1692114919424057
1.2638564109802246,-1.1789380351815677,2.0351596639203766,160.49655009814666,-0.037109375,0.02099609375,1.0048828125,-0.42724609375,-0.79345703125,-0.06103515625,0.0,0.0,0.0,0.019663406535983086,-0.0071416390128433704,-0.9853671789169312,0.16915670037269592
1.2856945991516113,-1.115473518239396,2.1109965349354973,160.50238307969786,-0.037109375,0.01953125,1.0048828125,0.0,-0.91552734375,-0.18310546875,0.0,0.0,0.0,0.019802013412117958,-0.006472953595221043,-0.9853761196136475,0.16911552846431732
1.3038599491119385,-1.2970818449676882,2.0051766275679017,160.49914557003126,-0.03564453125,0.0224609375,1.0048828125,0.30517578125,-0.732421875,0.0,0.0,0.0,0.0,0.019160358235239983,-0.008190575987100601,-0.9853743314743042,0.16912491619586945
1.3275673389434814,-1.207506795489027,2.065455394870791,160.50572987239116,-0.0361328125,0.02099609375,1.00390625,-0.18310546875,-1.03759765625,-0.30517578125,0.0,0.0,0.0,0.019546033814549446,-0.007332274224609137,-0.9853819012641907,0.16907617449760437
1.3440759181976318,-1.263289590770756,2.0735837468699296,160.50507417423083,-0.0361328125,0.02197265625,1.00390625,-0.6103515625,-0.79345703125,0.0,0.0,0.0,0.0,0.01969827152788639,-0.007799820508807898,-0.9853761792182922,0.16907133162021637
1.3602371215820312,-1.2894415313290886,2.180586130737584,160.50924058962454,-0.0380859375,0.0224609375,1.0029296875,0.0,-0.244140625,-0.18310546875,0.0,0.0,0.0,0.020656611770391464,-0.007867204956710339,-0.9853652119636536,0.1690177023410797
1.3838188648223877,-1.1968936420141794,1.9950160808472728,160.5141446654486,-0.03515625,0.02099609375,1.00537109375,0.0,-0.30517578125,0.0,0.0,0.0,0.0,0.018924156203866005,-0.007346558850258589,-0.9854046702384949,0.1690138429403305
1.4050142765045166,-1.2019980344800003,1.981430621144706,160.5171772694401,-0.03564453125,0.02099609375,1.00439453125,0.06103515625,-1.03759765625,-0.18310546875,0.0,0.0,0.0,0.01881467178463936,-0.007411031983792782,-0.9854105710983276,0.1689884066581726
1.4186482429504395,-1.336560338370362,2.0329906519720744,160.5154970429043,-0.03564453125,0.0234375,1.001953125,-0.42724609375,-0.732421875,-0.244140625,0.0,0.0,0.0,0.019456569105386734,-0.008491681888699532,-0.9853917956352234,0.1689741611480713
1.4447145462036133,-1.333508311028424,2.107843335416479,160.5192536469478,-0.037109375,0.02392578125,1.0048828125,-0.18310546875,-0.42724609375,-0.1220703125,0.0,0.0,0.0,0.02009541355073452,-0.008355450816452503,-0.9853873252868652,0.16893287003040314
1.465203046798706,-1.217924541520589,2.1010951085165064,160.5248134209322,-0.037109375,0.021484375,1.00390625,-0.42724609375,-0.3662109375,-0.06103515625,0.0,0.0,0.0,0.01986662484705448,-0.007372463587671518,-0.985404372215271,0.1689060777425766
1.4838778972625732,-1.1026390591804132,2.0852475755381956,160.532599836586,-0.037109375,0.01953125,1.00341796875,-0.06103515625,-0.91552734375,-0.1220703125,0.0,0.0,0.0,0.01955997943878174,-0.006405826658010483,-0.9854250550270081,0.1688607782125473
1.5033931732177734,-1.2571930066062849,2.014515844040836,160.5286383268674,-0.03564453125,0.02197265625,1.00341796875,0.1220703125,-0.8544921875,0.0,0.0,0.0,0.0,0.019179774448275566,-0.007838692516088486,-0.9854193329811096,0.16887684166431427
1.5240066051483154,-1.2203743382768022,2.072731253884147,160.53265447809935,-0.0361328125,0.021484375,1.00341796875,-0.18310546875,-0.3662109375,-0.18310546875,0.0,0.0,0.0,0.0196258332580328,-0.0074367765337228775,-0.9854198098182678,0.16884158551692963
1.5441854000091553,-1.2661786540679656,2.165384904409486,160.53306428944956,-0.03857421875,0.02294921875,1.00244140625,-0.42724609375,-0.6103515625,-0.18310546875,0.0,0.0,0.0,0.020489996299147606,-0.007693903986364603,-0.9854041337966919,0.16881893575191498
1.5646052360534668,-1.1767406352595278,2.0909080948128436,160.5400037616463,-0.03662109375,0.0205078125,1.00244140625,0.0,-0.67138671875,-0.1220703125,0.0,0.0,0.0,0.019717389717698097,-0.007035973947495222,-0.9854308366775513,0.16878379881381989
1.5840325355529785,-1.1909293927648772,2.12031910282233,160.5427358373143,-0.037109375,0.0205078125,1.00537109375,0.42724609375,-0.6103515625,-0.06103515625,0.0,0.0,0.0,0.01999102346599102,-0.007115051615983248,-0.9854297041893005,0.16875438392162323
1.6042513847351074,-1.2549728749609133,2.1634455575720253,160.54322761093454,-0.0380859375,0.02294921875,1.00634765625,-0.06103515625,-0.67138671875,-0.1220703125,0.0,0.0,0.0,0.020456138998270035,-0.007602222263813019,-0.9854201078414917,0.16873373091220856
1.6190309524536133,-1.2418960509081007,2.1196358704619174,160.54602798849425,-0.037109375,0.021484375,1.00341796875,-0.48828125,-0.79345703125,-0.18310546875,0.0,0.0,0.0,0.020059984177350998,-0.007554921787232161,-0.985431432723999,0.16871730983257294
1.6437029838562012,-1.1881713837223673,2.003430660461317,160.55105500772336,-0.03515625,0.02099609375,1.0029296875,-0.06103515625,-0.54931640625,-0.18310546875,0.0,0.0,0.0,0.01898130774497986,-0.007265230640769005,-0.9854584336280823,0.16869688034057617
1.6656701564788818,-1.2840788723352765,2.039450730266437,160.55013976237458,-0.03564453125,0.0224609375,1.0068359375,0.06103515625,-0.18310546875,0.06103515625,0.0,0.0,0.0,0.019432295113801956,-0.008036711253225803,-0.9854457974433899,0.16868428885936737
1.6785945892333984,-1.2231310666588429,2.0498151154451083,160.55586346089905,-0.0361328125,0.02099609375,1.0068359375,0.1220703125,-0.8544921875,-0.3662109375,0.0,0.0,0.0,0.019431322813034058,-0.00749825919046998,-0.9854569435119629,0.16864420473575592
1.7047600746154785,-1.2335920349812461,2.013915641167521,160.55736610251645,-0.03515625,0.021484375,1.00341796875,-0.48828125,-0.91552734375,-0.1220703125,0.0,0.0,0.0,0.0191379114985466,-0.007641422562301159,-0.9854633808135986,0.16863372921943665
1.723886489868164,-1.2213991868174214,2.080968248579771,160.56237946136724,-0.0361328125,0.021484375,1.00341796875,-0.06103515625,-0.67138671875,-0.18310546875,0.0,0.0,0.0,0.019696243107318878,-0.007438533939421177,-0.9854623079299927,0.16858480870723724
1.7458837032318115,-1.307087004884699,2.083964567191291,160.56112270655996,-0.0361328125,0.0224609375,1.00244140625,-0.30517578125,-0.67138671875,-0.1220703125,0.0,0.0,0.0,0.019848154857754707,-0.008170791901648045,-0.9854542016983032,0.16858051717281342
1.7636191844940186,-1.236990267536739,2.076098750588375,160.5671742541646,-0.0361328125,0.021484375,1.00390625,-0.30517578125,-0.67138671875,-0.18310546875,0.0,0.0,0.0,0.019676990807056427,-0.0075806183740496635,-0.9854689836502075,0.16854144632816315
1.7847106456756592,-1.2676753192698444,2.106370575876695,160.56930527318565,-0.037109375,0.0224609375,1.00341796875,0.06103515625,-0.3662109375,-0.1220703125,0.0,0.0,0.0,0.019982289522886276,-0.007800249848514795,-0.9854658246040344,0.16851411759853363
1.7998850345611572,-1.259308230814873,2.0887200864009126,160.57217395263706,-0.037109375,0.021484375,1.00439453125,0.18310546875,-0.67138671875,-0.1220703125,0.0,0.0,0.0,0.019818009808659554,-0.00775480642914772,-0.985473096370697,0.1684930920600891
1.8236796855926514,-1.318206446131774,2.149436626140918,160.5723242167988,-0.037109375,0.02294921875,1.00537109375,-0.3662109375,-0.67138671875,-0.1220703125,0.0,0.0,0.0,0.020426711067557335,-0.00817185826599598,-0.985460638999939,0.1684739738702774
1.843477725982666,-1.224001168726079,2.0740428636482013,160.5786762927269,-0.03662109375,0.021484375,1.0048828125,-0.48828125,-0.48828125,-0.06103515625,0.0,0.0,0.0,0.019639456644654274,-0.007473913487046957,-0.9854870438575745,0.16844506561756134
1.8633923530578613,-1.0365871812032759,2.0296696859315673,160.58965923691227,-0.03564453125,0.0185546875,1.005859375,0.18310546875,-0.3662109375,0.0,0.0,0.0,0.0,0.018981775268912315,-0.00592932989820838,-0.9855204224586487,0.1683870553970337
1.8833534717559814,-1.1248982187986616,2.0630443380937766,160.59006904826248,-0.03662109375,0.02001953125,1.00537109375,0.244140625,-0.732421875,-0.1220703125,0.0,0.0,0.0,0.019398529082536697,-0.006639758124947548,-0.9855114817619324,0.1683652400970459
1.8995187282562256,-1.231762931665858,2.063699609367275,160.5893177274538,-0.0361328125,0.021484375,1.00390625,-0.18310546875,-1.03759765625,-0.18310546875,0.0,0.0,0.0,0.019561218097805977,-0.007557723205536604,-0.985503613948822,0.1683533489704132
1.923903465270996,-1.279167112548391,2.1528124471381966,160.59009636901916,-0.0380859375,0.02294921875,1.00390625,-0.42724609375,-0.67138671875,-0.244140625,0.0,0.0,0.0,0.02039712853729725,-0.007834317162632942,-0.9854889512062073,0.16832762956619263
1.945227861404419,-1.2322091351177302,2.033336430298806,160.59740467143106,-0.0361328125,0.02197265625,1.00341796875,-0.1220703125,-0.3662109375,-0.3662109375,0.0,0.0,0.0,0.019300226122140884,-0.007607629522681236,-0.9855197072029114,0.16828739643096924
1.964620590209961,-1.2859462887430402,2.038172417674587,160.5982379545098,-0.03564453125,0.02197265625,1.00341796875,0.06103515625,-0.48828125,0.0,0.0,0.0,0.0,0.019420668482780457,-0.008062806911766529,-0.9855166077613831,0.16827057301998138
1.9836947917938232,-1.2452763542170224,2.051412099050422,160.6031147095772,-0.0361328125,0.02099609375,1.00390625,-0.06103515625,-0.91552734375,-0.18310546875,0.0,0.0,0.0,0.01947447657585144,-0.007694377098232508,-0.9855247735977173,0.1682339310646057
2.0034825801849365,-1.336154475723275,2.0326371896825264,160.60214482271508,-0.03564453125,0.02294921875,1.00341796875,0.06103515625,-0.8544921875,-0.1220703125,0.0,0.0,0.0,0.01944650523364544,-0.008503420278429985,-0.9855194687843323,0.1682291030883789
2.0234944820404053,-1.2783118447982584,2.0868575791916144,160.6085105590215,-0.03662109375,0.0224609375,1.00341796875,-0.1220703125,-0.3662109375,-0.30517578125,0.0,0.0,0.0,0.019827423617243767,-0.007927266880869865,-0.9855254292488098,0.16817758977413177
2.0436389446258545,-1.2188261264910307,2.1196587089069547,160.61274527630692,-0.037109375,0.021484375,1.001953125,-0.54931640625,-0.54931640625,-0.06103515625,0.0,0.0,0.0,0.02002192847430706,-0.007368157152086496,-0.9855309724807739,0.1681475192308426
2.0666005611419678,-1.1980602169800763,2.168805548523193,160.6163925973237,-0.0380859375,0.02099609375,1.0048828125,0.0,-0.732421875,-0.06103515625,0.0,0.0,0.0,0.02041388303041458,-0.0071179307997226715,-0.9855304956436157,0.16811399161815643
2.0850982666015625,-1.1380163441516116,2.095877057434028,160.6219523713081,-0.037109375,0.0205078125,1.005859375,0.3662109375,-0.6103515625,-0.06103515625,0.0,0.0,0.0,0.019698286429047585,-0.006709718611091375,-0.9855528473854065,0.1680850237607956
2.1040542125701904,-1.2607277362234721,2.060624530136888,160.6188104842899,-0.03662109375,0.02197265625,1.00390625,-0.1220703125,-0.67138671875,-0.18310546875,0.0,0.0,0.0,0.019575314596295357,-0.00781638827174902,-0.9855454564094543,0.16809526085853577
2.1295814514160156,-1.308487086942846,2.1695679683892957,160.61927493715345,-0.03759765625,0.0224609375,1.00244140625,-0.54931640625,-0.8544921875,-0.244140625,0.0,0.0,0.0,0.020582230761647224,-0.008067036047577858,-0.9855272769927979,0.16806934773921967
2.1396944522857666,-1.2313846032188627,2.047896259175158,160.62590022064836,-0.03515625,0.021484375,1.0048828125,-0.06103515625,-0.54931640625,-0.1220703125,0.0,0.0,0.0,0.019422339275479317,-0.007583940867334604,-0.9855595231056213,0.1680406630039215
2.164804220199585,-1.1913046262824047,2.0397826347714174,160.62952022090846,-0.03564453125,0.02099609375,1.00634765625,0.3662109375,-0.54931640625,-0.1220703125,0.0,0.0,0.0,0.01929355598986149,-0.007251759525388479,-0.9855685234069824,0.16801734268665314
2.180553436279297,-1.1734221238182536,2.2035645946527995,160.63488874959612,-0.03857421875,0.02001953125,1.00439453125,-0.06103515625,-0.8544921875,-0.244140625,0.0,0.0,0.0,0.020675549283623695,-0.006858259905129671,-0.9855539202690125,0.16795527935028076
2.2034475803375244,-1.21618753903729,2.1222742444722464,160.6356673911615,-0.03662109375,0.021484375,1.001953125,-0.54931640625,-0.8544921875,-0.18310546875,0.0,0.0,0.0,0.02003907971084118,-0.007345625199377537,-0.9855644106864929,0.1679505854845047
2.223491907119751,-1.2309778867981296,2.145429439532236,160.63818090077604,-0.03759765625,0.021484375,1.0029296875,0.0,-0.6103515625,-0.244140625,0.0,0.0,0.0,0.020259728655219078,-0.007439261768013239,-0.9855638146400452,0.16792353987693787
2.246330499649048,-1.1957254662226955,2.082831609562715,160.64289373130336,-0.03662109375,0.02099609375,1.00390625,-0.244140625,-0.8544921875,-0.18310546875,0.0,0.0,0.0,0.019669421017169952,-0.007228821516036987,-0.9855819344520569,0.16789649426937103
2.2672603130340576,-1.2083914117082495,2.142730874479846,160.64524331637784,-0.0380859375,0.021484375,1.00537109375,-0.42724609375,-0.6103515625,-0.1220703125,0.0,0.0,0.0,0.02020297758281231,-0.007250211667269468,-0.9855759143829346,0.16786710917949677
2.284553050994873,-1.2084307920176829,2.111952334532476,160.65077576960556,-0.03662109375,0.02099609375,1.00439453125,0.244140625,-0.42724609375,-0.244140625,0.0,0.0,0.0,0.01993797905743122,-0.007296704687178135,-0.985588550567627,0.16782315075397491
2.304354429244995,-1.1072826273206697,2.088043043899435,160.65705954364196,-0.03662109375,0.01904296875,1.0048828125,0.1220703125,-0.732421875,-0.1220703125,0.0,0.0,0.0,0.01958385296165943,-0.006462906487286091,-0.9856072068214417,0.16778920590877533
2.323819637298584,-1.2159070743944964,2.163488246254338,160.6561579586715,-0.0380859375,0.0224609375,1.00537109375,-0.18310546875,-0.67138671875,-0.244140625,0.0,0.0,0.0,0.020391810685396194,-0.007286318577826023,-0.9855883717536926,0.16776937246322632
2.343937873840332,-1.2780958400657567,2.0943219087373808,160.6553246755928,-0.03662109375,0.0224609375,1.00341796875,-0.48828125,-0.732421875,0.0,0.0,0.0,0.0,0.01988806389272213,-0.00792255625128746,-0.9855929613113403,0.1677740216255188
2.364506244659424,-1.2327686770211423,2.1081647811942927,160.66115765714397,-0.03662109375,0.021484375,1.00390625,0.1220703125,-0.48828125,-0.06103515625,0.0,0.0,0.0,0.019940368831157684,-0.007513397838920355,-0.9856027364730835,0.16773009300231934
2.384326219558716,-1.208910719528582,2.0630836116815043,160.6658431669146,-0.0361328125,0.021484375,1.00439453125,0.30517578125,-0.732421875,-0.1220703125,0.0,0.0,0.0,0.01951742358505726,-0.007375130895525217,-0.985617458820343,0.16769924759864807
2.4036037921905518,-1.2234351167986142,2.0189983691270688,160.66688135566844,-0.03564453125,0.02197265625,1.005859375,-0.30517578125,-1.0986328125,-0.18310546875,0.0,0.0,0.0,0.019159452989697456,-0.007564892992377281,-0.9856240749359131,0.16769300401210785
2.424936532974243,-1.2714166621094247,2.039082113494668,160.66998226155164,-0.03662109375,0.0224609375,1.001953125,-0.06103515625,-0.8544921875,-0.244140625,0.0,0.0,0.0,0.019402185454964638,-0.007948658429086208,-0.9856225848197937,0.16765588521957397
2.4437050819396973,-1.300322342842036,2.1680307489392194,160.67061063895528,-0.0380859375,0.02294921875,1.0009765625,-0.06103515625,-0.18310546875,-0.06103515625,0.0,0.0,0.0,0.020553449168801308,-0.008008286356925964,-0.9856032729148865,0.16762948036193848
2.464071273803711,-1.207349060807882,2.0793102201587503,160.67694905450503,-0.03662109375,0.021484375,1.0048828125,-0.06103515625,-0.6103515625,0.0,0.0,0.0,0.0,0.019653987139463425,-0.007339806295931339,-0.98563152551651,0.16760201752185822
2.48323655128479,-1.2106083417024476,2.053565956516503,160.68149796049227,-0.03564453125,0.0205078125,1.00732421875,-0.06103515625,-1.0986328125,-0.244140625,0.0,0.0,0.0,0.019437039270997047,-0.007406347896903753,-0.985641598701477,0.16756542026996613
2.5037801265716553,-1.1596590791972663,2.114913434981088,160.68683916842323,-0.037109375,0.02001953125,1.00390625,-0.06103515625,-0.732421875,-0.18310546875,0.0,0.0,0.0,0.01988985203206539,-0.006879139691591263,-0.9856438636779785,0.16752107441425323
2.5236411094665527,-1.2209099745181193,2.1522323079455687,160.68600588534449,-0.03759765625,0.02099609375,1.00244140625,-0.1220703125,-0.42724609375,-0.1220703125,0.0,0.0,0.0,0.02030041627585888,-0.007351153530180454,-0.985633373260498,0.16751308739185333
2.5436463356018066,-1.1322595618983486,2.0965062886113155,160.69193448954405,-0.037109375,0.0205078125,1.00439453125,-0.30517578125,-0.54931640625,-0.1220703125,0.0,0.0,0.0,0.019691182300448418,-0.0066713071428239346,-0.9856556057929993,0.1674841344356537
2.563819646835327,-1.2000852613472792,2.1233625924278057,160.69448898029364,-0.037109375,0.02099609375,1.00537109375,0.1220703125,-0.79345703125,-0.06103515625,0.0,0.0,0.0,0.020021140575408936,-0.007215817458927631,-0.9856512546539307,0.1674472540616989
2.583440065383911,-1.2233484587735195,2.192420500691689,160.69821826358046,-0.03857421875,0.021484375,1.0068359375,0.3662109375,-0.67138671875,-0.3662109375,0.0,0.0,0.0,0.02064884640276432,-0.007315439637750387,-0.9856451749801636,0.16740289330482483
2.6047379970550537,-1.201696332217756,2.0636281058244013,160.70228905632578,-0.0361328125,0.02099609375,1.005859375,0.06103515625,-0.732421875,-0.1220703125,0.0,0.0,0.0,0.019509222358465195,-0.007318486925214529,-0.9856711626052856,0.16738688945770264
2.624366521835327,-1.178986273392581,2.0289819712595114,160.70407856588832,-0.03564453125,0.02099609375,1.00341796875,-0.732421875,-0.67138671875,-0.06103515625,0.0,0.0,0.0,0.019177943468093872,-0.007174162659794092,-0.9856799244880676,0.16737933456897736
2.6432952880859375,-1.1954398789380243,2.1576815182427693,160.7066603773946,-0.0380859375,0.021484375,1.005859375,-0.06103515625,-0.48828125,-0.1220703125,0.0,0.0,0.0,0.020308764651417732,-0.007127753458917141,-0.985664427280426,0.16733932495117188
2.6637330055236816,-1.2614296448823967,2.0594631845345743,160.70767124539177,-0.0361328125,0.02197265625,1.00537109375,0.30517578125,-0.48828125,-0.1220703125,0.0,0.0,0.0,0.019560283049941063,-0.007839305326342583,-0.985675573348999,0.16733089089393616
2.683476686477661,-1.1511833480458094,2.026394183337723,160.7139003779148,-0.03564453125,0.0205078125,1.00341796875,-0.1220703125,-0.9765625,-0.06103515625,0.0,0.0,0.0,0.019114479422569275,-0.006940437015146017,-0.9856963753700256,0.1672998070716858
2.703665256500244,-1.1657881067602949,2.0643124054018718,160.71790286876845,-0.03662109375,0.0205078125,1.00537109375,0.244140625,-0.79345703125,-0.06103515625,0.0,0.0,0.0,0.019461702555418015,-0.007011268753558397,-0.985696017742157,0.167258620262146
2.7235190868377686,-1.2586953280585702,2.165543492864277,160.71678271774456,-0.03759765625,0.02197265625,1.00146484375,-0.06103515625,-0.3662109375,-0.30517578125,0.0,0.0,0.0,0.020468078553676605,-0.007662144489586353,-0.9856739640235901,0.167240172624588
2.7484264373779297,-1.2232181515707605,2.118072824359042,160.7208535104899,-0.03662109375,0.02197265625,1.00390625,-0.30517578125,-0.30517578125,-0.1220703125,0.0,0.0,0.0,0.02000773511826992,-0.007427141070365906,-0.9856891632080078,0.16721712052822113
2.7677996158599854,-1.31010050569085,2.089708756283272,160.72187803886538,-0.03662109375,0.02294921875,1.001953125,-0.48828125,-0.67138671875,-0.1220703125,0.0,0.0,0.0,0.019890477880835533,-0.008216149173676968,-0.9856886863708496,0.16719655692577362
2.783428430557251,-1.2451196867529353,2.054859637033986,160.72810717138844,-0.0361328125,0.021484375,1.00390625,0.18310546875,-0.8544921875,0.0,0.0,0.0,0.0,0.019495496526360512,-0.00770922563970089,-0.9857072234153748,0.16715848445892334
2.8034486770629883,-1.205826995840027,1.975830079468707,160.73215064337708,-0.03466796875,0.02099609375,1.0048828125,0.1220703125,-0.54931640625,-0.18310546875,0.0,0.0,0.0,0.018758146092295647,-0.007487438153475523,-0.9857263565063477,0.16713948547840118
2.8235292434692383,-1.188489841292419,2.1053633364175295,160.7361531342307,-0.037109375,0.02099609375,1.00341796875,-0.54931640625,-0.67138671875,-0.1220703125,0.0,0.0,0.0,0.019846785813570023,-0.00714965770021081,-0.9857154488563538,0.16709297895431519
2.843374490737915,-1.274300496043051,2.0586316090031254,160.73566136061046,-0.0361328125,0.0224609375,1.00341796875,-0.48828125,-0.6103515625,-0.1220703125,0.0,0.0,0.0,0.019569983705878258,-0.007956011220812798,-0.9857156872749329,0.16708804666996002
2.8649606704711914,-1.20314860119003,2.0993843595728294,160.74186317237684,-0.037109375,0.021484375,1.0029296875,0.0,-0.30517578125,-0.06103515625,0.0,0.0,0.0,0.01981636881828308,-0.007285477593541145,-0.9857237339019775,0.16704201698303223
2.8786678314208984,-1.1739064269190898,2.0850514210429694,160.74680822933593,-0.03662109375,0.0205078125,1.0029296875,0.30517578125,-0.8544921875,-0.18310546875,0.0,0.0,0.0,0.019650153815746307,-0.007055722177028656,-0.985734760761261,0.16700617969036102
2.904672384262085,-1.2150518066443639,2.0276268190394986,160.74917147478877,-0.03564453125,0.02099609375,1.00634765625,0.0,-0.91552734375,-0.1220703125,0.0,0.0,0.0,0.019216017797589302,-0.007493931334465742,-0.9857436418533325,0.16698558628559113
2.923792600631714,-1.2452049573958546,2.123686172639735,160.75193087121343,-0.037109375,0.02197265625,1.00341796875,0.0,-0.91552734375,-0.18310546875,0.0,0.0,0.0,0.02008603699505329,-0.007613506633788347,-0.9857321381568909,0.1669451743364334
2.9471492767333984,-1.3024131277800004,2.160648381663494,160.75343351283084,-0.037109375,0.0224609375,1.00244140625,-0.18310546875,-0.244140625,-0.30517578125,0.0,0.0,0.0,0.02048720233142376,-0.008051903918385506,-0.9857251048088074,0.16691765189170837
2.966602325439453,-1.209008903497901,2.035240985860182,160.75800973957476,-0.0361328125,0.021484375,1.0029296875,0.06103515625,-0.54931640625,-0.06103515625,0.0,0.0,0.0,0.019272133708000183,-0.007432318292558193,-0.9857558608055115,0.1669096052646637
2.9819176197052,-1.2447239626678976,1.9737891335673425,160.76117894734963,-0.03466796875,0.021484375,1.00537109375,-0.06103515625,-0.79345703125,-0.1220703125,0.0,0.0,0.0,0.01879533939063549,-0.007829776965081692,-0.9857664108276367,0.16688372194766998
3.003418207168579,-1.242190922981175,2.0573189320220133,160.76443011739457,-0.0361328125,0.02197265625,1.0048828125,-0.1220703125,-0.732421875,-0.30517578125,0.0,0.0,0.0,0.019509943202137947,-0.007686621509492397,-0.985759973526001,0.16684627532958984
3.0241189002990723,-1.2217800765853555,2.112659899441807,160.76917026867855,-0.037109375,0.021484375,1.00439453125,-0.1220703125,-0.54931640625,-0.244140625,0.0,0.0,0.0,0.019955947995185852,-0.0074311052449047565,-0.9857603907585144,0.166802316904068
3.043372392654419,-1.2449115794266614,2.1127945822345033,160.76934785359697,-0.037109375,0.02197265625,1.005859375,-0.3662109375,-0.54931640625,-0.06103515625,0.0,0.0,0.0,0.019990764558315277,-0.007629922591149807,-0.9857591986656189,0.16679686307907104
3.0635087490081787,-1.259571940149859,2.1298830752076405,160.7738284576925,-0.037109375,0.02197265625,1.0029296875,-0.1220703125,-0.6103515625,-0.18310546875,0.0,0.0,0.0,0.020158791914582253,-0.007731893565505743,-0.9857622981071472,0.1667535901069641
3.084749460220337,-1.1825578219982629,2.1431306539897035,160.77900574108338,-0.03759765625,0.0205078125,1.00390625,0.18310546875,-0.6103515625,-0.1220703125,0.0,0.0,0.0,0.020160354673862457,-0.007050973363220692,-0.9857727885246277,0.16672106087207794
3.1034538745880127,-1.2251118215181465,2.145507986707691,160.78060400534915,-0.0380859375,0.021484375,1.001953125,-0.1220703125,-0.48828125,-0.244140625,0.0,0.0,0.0,0.020242609083652496,-0.0074138580821454525,-0.9857721328735352,0.16669952869415283
3.1192617416381836,-1.309648325823454,2.119093510753136,160.78039909967404,-0.037109375,0.02294921875,1.0029296875,-0.6103515625,-0.67138671875,-0.30517578125,0.0,0.0,0.0,0.020138386636972427,-0.008179564028978348,-0.9857698082923889,0.16668961942195892
3.1465680599212646,-1.1549759173041647,2.1259759935589817,160.78941494937848,-0.037109375,0.0205078125,1.005859375,0.1220703125,-0.67138671875,-0.18310546875,0.0,0.0,0.0,0.01997203938663006,-0.00684052798897028,-0.9857921004295349,0.1666383445262909
3.164393901824951,-1.1458212226605262,2.2036849767369207,160.79023457207887,-0.03857421875,0.02001953125,1.0048828125,0.0,-0.42724609375,0.06103515625,0.0,0.0,0.0,0.020627135410904884,-0.0066486685536801815,-0.9857823848724365,0.16662399470806122
3.1794168949127197,-1.171476907286975,2.1134479325172975,160.79128642121105,-0.037109375,0.02099609375,1.00634765625,-0.06103515625,-0.9765625,-0.06103515625,0.0,0.0,0.0,0.019888153299689293,-0.00700106518343091,-0.9857956171035767,0.16662074625492096
3.2035229206085205,-1.2238885773264796,2.096467441910411,160.79468785541772,-0.03662109375,0.02099609375,1.00537109375,0.18310546875,-0.79345703125,-0.244140625,0.0,0.0,0.0,0.01981806755065918,-0.007477281149476767,-0.9857997298240662,0.16658440232276917
3.2238309383392334,-1.2329176605224133,2.0310709419284776,160.79767947827418,-0.03564453125,0.021484375,1.00439453125,0.1220703125,-0.67138671875,-0.18310546875,0.0,0.0,0.0,0.019268440082669258,-0.00765074510127306,-0.9858126044273376,0.1665649116039276
3.243802785873413,-1.2952163495506284,2.11745661322986,160.79739261032904,-0.037109375,0.0224609375,1.0048828125,-0.3662109375,-0.30517578125,0.0,0.0,0.0,0.0,0.020102115347981453,-0.008060782216489315,-0.985795795917511,0.16654619574546814
3.2635843753814697,-1.2612697757671363,1.9982898758938246,160.80158634647944,-0.03564453125,0.0224609375,1.0048828125,-0.30517578125,-0.6103515625,0.0,0.0,0.0,0.0,0.019027389585971832,-0.007943060249090195,-0.9858207702636719,0.16653044521808624
3.2793374061584473,-1.2748204441936184,2.050621931540816,160.80605329019662,-0.03564453125,0.02197265625,1.0048828125,0.42724609375,-0.48828125,-0.1220703125,0.0,0.0,0.0,0.019496945664286613,-0.007984170690178871,-0.9858191609382629,0.1664833426475525
3.305060863494873,-1.3635819541091074,1.9459373296793232,160.80522000711787,-0.03466796875,0.02392578125,1.00390625,0.244140625,-0.732421875,-0.1220703125,0.0,0.0,0.0,0.018725434318184853,-0.008900094777345657,-0.9858253598213196,0.16648875176906586
3.3237221240997314,-1.4126045696598162,2.082472811187878,160.80513804484784,-0.03662109375,0.0244140625,1.0048828125,-0.54931640625,-0.67138671875,-0.18310546875,0.0,0.0,0.0,0.019971169531345367,-0.009122956544160843,-0.9858031868934631,0.16646353900432587
3.3447914123535156,-1.2318784045515134,2.068294619131401,160.81565653616966,-0.03662109375,0.021484375,1.00439453125,-0.48828125,-0.67138671875,-0.244140625,0.0,0.0,0.0,0.019585946574807167,-0.0075906491838395596,-0.9858336448669434,0.16640596091747284
3.3670742511749268,-1.2612553683368557,1.9996482297650109,160.81896234772793,-0.03515625,0.02197265625,1.005859375,0.1220703125,-0.30517578125,-0.18310546875,0.0,0.0,0.0,0.019037850201129913,-0.007943845354020596,-0.9858457446098328,0.16638076305389404
3.383573532104492,-1.2634075182556443,2.0148217084496056,160.82217253663785,-0.03564453125,0.0224609375,1.0048828125,0.1220703125,-0.67138671875,-0.18310546875,0.0,0.0,0.0,0.019171282649040222,-0.007940815761685371,-0.9858482480049133,0.16635102033615112
3.403707265853882,-1.26575454200919,2.1031640155047855,160.8240030273354,-0.03662109375,0.02197265625,1.0048828125,-0.48828125,-1.0986328125,-0.18310546875,0.0,0.0,0.0,0.019934531301259995,-0.007832784205675125,-0.9858384728431702,0.16632409393787384
3.4244203567504883,-1.2134044503939214,2.074881482812232,160.8295218201848,-0.0361328125,0.02099609375,1.00341796875,-0.1220703125,-0.732421875,-0.244140625,0.0,0.0,0.0,0.01961488462984562,-0.007424505427479744,-0.9858539700508118,0.16628898680210114
3.443554401397705,-1.2244214388034462,2.078377259006809,160.83034144288519,-0.03662109375,0.02099609375,1.0009765625,0.18310546875,-0.1220703125,-0.06103515625,0.0,0.0,0.0,0.019660891965031624,-0.007514339871704578,-0.9858540296554565,0.16627979278564453
3.4594855308532715,-1.1905907647924328,2.13103566963008,160.83516355643923,-0.03759765625,0.021484375,1.00390625,-0.30517578125,-0.54931640625,-0.1220703125,0.0,0.0,0.0,0.020064499229192734,-0.007147547323256731,-0.9858556389808655,0.1662379652261734
3.4834108352661133,-1.2059660542226602,2.0506676084308904,160.83711699054183,-0.0361328125,0.02099609375,1.0068359375,0.0,-1.0986328125,-0.1220703125,0.0,0.0,0.0,0.019395295530557632,-0.007397014647722244,-0.9858689308166504,0.166227787733078
3.504340171813965,-1.2670169530668787,1.995197721190513,160.8382371415657,-0.03515625,0.02197265625,1.005859375,0.0,-0.54931640625,-0.30517578125,0.0,0.0,0.0,0.019006581977009773,-0.008003085851669312,-0.9858739972114563,0.16621457040309906
3.5241804122924805,-1.3040764922863102,2.0829569008453026,160.8399310284799,-0.03662109375,0.02294921875,1.001953125,-0.1220703125,-0.42724609375,-0.1220703125,0.0,0.0,0.0,0.01981518417596817,-0.008194624446332455,-0.9858617782592773,0.16618293523788452
3.543442964553833,-1.1915018479946888,2.1115096528968946,160.84706174597338,-0.037109375,0.02099609375,1.0029296875,-0.30517578125,-0.67138671875,-0.18310546875,0.0,0.0,0.0,0.01989709958434105,-0.007185843773186207,-0.98587566614151,0.16613765060901642
3.55926775932312,-1.2189814065729427,2.0485536648827716,160.8498621235331,-0.0361328125,0.021484375,1.0087890625,0.1220703125,-0.9765625,-0.244140625,0.0,0.0,0.0,0.01939515396952629,-0.007514217868447304,-0.9858868718147278,0.16611626744270325
3.5834085941314697,-1.118916147024494,2.0305714843454203,160.85549019940916,-0.03564453125,0.01953125,1.0048828125,0.244140625,-0.48828125,-0.18310546875,0.0,0.0,0.0,0.019095061346888542,-0.006680366583168507,-0.9859036803245544,0.16608668863773346
3.6053123474121094,-1.2092981193205687,2.0795349760711264,160.8548481616272,-0.037109375,0.02197265625,1.005859375,-0.06103515625,-0.8544921875,-0.1220703125,0.0,0.0,0.0,0.019647326320409775,-0.007386750541627407,-0.9858903288841248,0.166071355342865
3.6289517879486084,-1.293413179609745,2.0700297006239956,160.85471155784379,-0.03662109375,0.0224609375,1.005859375,-0.42724609375,-0.732421875,-0.18310546875,0.0,0.0,0.0,0.019687460735440254,-0.008124218322336674,-0.9858857989311218,0.1660592406988144
3.643770456314087,-1.262916918574167,2.0729073446986868,160.85941072799275,-0.03662109375,0.02197265625,1.00537109375,-0.06103515625,-0.244140625,-0.244140625,0.0,0.0,0.0,0.019667699933052063,-0.00785847008228302,-0.9858943223953247,0.16602368652820587
3.6634607315063477,-1.1717991001167294,2.0819246885069846,160.8664185020812,-0.03662109375,0.0205078125,1.0048828125,0.18310546875,-0.6103515625,-0.1220703125,0.0,0.0,0.0,0.01961282640695572,-0.007062636315822601,-0.985909104347229,0.16597789525985718
3.6791810989379883,-1.1920891375416043,2.0843818490608967,160.8703526910431,-0.03662109375,0.02099609375,1.00537109375,0.0,-0.91552734375,-0.244140625,0.0,0.0,0.0,0.01966310292482376,-0.007234314456582069,-0.9859132766723633,0.1659402698278427
3.7034072875976562,-1.2870922664197215,2.076296185744071,160.86946476645102,-0.03662109375,0.0224609375,1.00537109375,-0.244140625,-0.91552734375,-0.18310546875,0.0,0.0,0.0,0.019731173291802406,-0.008063273504376411,-0.985906720161438,0.1659325808286667
3.7216362953186035,-1.225566669428187,1.9500606295038951,160.87416393659998,-0.03466796875,0.021484375,1.00390625,0.06103515625,-0.67138671875,-0.18310546875,0.0,0.0,0.0,0.01855572871863842,-0.007717909291386604,-0.9859349131584167,0.16591757535934448
3.7435176372528076,-1.2213556443614626,2.0864204470847336,160.87483329513864,-0.03662109375,0.021484375,1.00634765625,-0.18310546875,-0.42724609375,-0.06103515625,0.0,0.0,0.0,0.01972273178398609,-0.007483926136046648,-0.9859175682067871,0.165896475315094
3.7636806964874268,-1.034157768292867,2.083423488142979,160.88573427705398,-0.03662109375,0.0185546875,1.0068359375,-0.18310546875,-0.79345703125,-0.1220703125,0.0,0.0,0.0,0.019425351172685623,-0.005879507400095463,-0.9859446883201599,0.16583503782749176
3.783413887023926,-1.2339777272259405,2.0279040820311187,160.88255140890075,-0.03515625,0.02294921875,1.00439453125,0.1220703125,-0.67138671875,-0.18310546875,0.0,0.0,0.0,0.019237056374549866,-0.007678728550672531,-0.9859360456466675,0.16583490371704102
3.799260139465332,-1.2645475195168019,2.084116538900324,160.88364423916798,-0.03662109375,0.021484375,1.0029296875,0.244140625,-0.48828125,-0.30517578125,0.0,0.0,0.0,0.019764835014939308,-0.007860401645302773,-0.9859277009963989,0.16581352055072784
3.8234331607818604,-1.2564915248341832,2.0727833340765685,160.88537910721715,-0.03662109375,0.02197265625,1.00634765625,-0.6103515625,-0.67138671875,-0.06103515625,0.0,0.0,0.0,0.019655555486679077,-0.007807824295014143,-0.9859324097633362,0.16580137610435486
3.840506076812744,-1.3217708443831686,2.044978487739093,160.88693639034793,-0.0361328125,0.0234375,1.00390625,-0.30517578125,-0.48828125,-0.1220703125,0.0,0.0,0.0,0.019510678946971893,-0.008410071022808552,-0.9859338402748108,0.16578026115894318
3.863787889480591,-1.191120851505049,2.053899995455599,160.89469548524505,-0.0361328125,0.02099609375,1.0029296875,0.3662109375,-0.48828125,0.1220703125,0.0,0.0,0.0,0.01939791440963745,-0.007274341769516468,-0.9859528541564941,0.16573460400104523
3.8792386054992676,-1.2857504544129312,2.0977288924727477,160.89513261735192,-0.03662109375,0.02197265625,1.00390625,0.1220703125,-0.732421875,-0.18310546875,0.0,0.0,0.0,0.01991182006895542,-0.008025080896914005,-0.9859409332275391,0.16570928692817688
3.9041032791137695,-1.2300511155051235,2.049206801722154,160.90032356112113,-0.0361328125,0.021484375,1.0048828125,-0.42724609375,-1.0986328125,-0.30517578125,0.0,0.0,0.0,0.01941346749663353,-0.007617058698087931,-0.9859590530395508,0.16568003594875336
3.9238829612731934,-1.2283485841327921,2.0719893245855547,160.90272778770898,-0.03662109375,0.02197265625,1.00390625,-0.18310546875,-0.48828125,-0.244140625,0.0,0.0,0.0,0.019606856629252434,-0.007569805718958378,-0.985959529876709,0.16565699875354767
3.943977117538452,-1.26636499016626,2.113738002113611,160.9050227312701,-0.037109375,0.02197265625,1.00341796875,-0.1220703125,-0.244140625,-0.1220703125,0.0,0.0,0.0,0.020020844414830208,-0.007836809381842613,-0.9859542846679688,0.16562563180923462
3.961484670639038,-1.1698841925498928,2.1306395186582194,160.910924014713,-0.037109375,0.02099609375,1.0048828125,0.1220703125,-0.732421875,-0.06103515625,0.0,0.0,0.0,0.020026441663503647,-0.006983221508562565,-0.9859666228294373,0.16558979451656342
3.984036922454834,-1.2300737405067492,2.0944851929472263,160.91234469406035,-0.037109375,0.021484375,1.00390625,-0.244140625,-0.9765625,-0.244140625,0.0,0.0,0.0,0.019802263006567955,-0.007553715258836746,-0.9859700798988342,0.16557124257087708
4.0035200119018555,-1.3214847234899685,2.0390187208014336,160.91203050535853,-0.0361328125,0.02294921875,1.00390625,0.06103515625,-0.54931640625,-0.1220703125,0.0,0.0,0.0,0.019457148388028145,-0.00842051301151514,-0.9859709739685059,0.1655651479959488
4.023855447769165,-1.2420294530403275,2.1351867170981556,160.9182596378816,-0.03759765625,0.02197265625,1.0048828125,-0.18310546875,-0.42724609375,-0.18310546875,0.0,0.0,0.0,0.020169325172901154,-0.00759867625311017,-0.9859720468521118,0.1655135154724121
4.038665294647217,-1.2691720911934294,2.0800019902556257,160.91895631717694,-0.03662109375,0.0224609375,1.00537109375,-0.30517578125,-0.6103515625,0.06103515625,0.0,0.0,0.0,0.019733691588044167,-0.00791223719716072,-0.9859790205955505,0.16550947725772858
4.063645601272583,-1.2604057568371296,2.1167864009175528,160.9214015248998,-0.037109375,0.021484375,1.0048828125,0.0,-0.6103515625,0.06103515625,0.0,0.0,0.0,0.020037343725562096,-0.00778398010879755,-0.9859780073165894,0.16548548638820648
4.084833860397339,-1.2057754492561346,2.0668259150164365,160.92545865726677,-0.03662109375,0.02099609375,1.0048828125,0.3662109375,-0.54931640625,-0.1220703125,0.0,0.0,0.0,0.019528336822986603,-0.00738693680614233,-0.9859945774078369,0.16546592116355896
4.103834867477417,-1.2871259904787484,2.122607856524519,160.9259777516437,-0.037109375,0.0224609375,1.0048828125,-0.06103515625,-0.8544921875,-0.30517578125,0.0,0.0,0.0,0.020125696435570717,-0.008006265386939049,-0.9859818816184998,0.16544069349765778
4.131073474884033,-1.2474889086212835,2.0062577184474675,160.929966582119,-0.03564453125,0.02197265625,1.0029296875,-0.67138671875,-0.79345703125,-0.244140625,0.0,0.0,0.0,0.01906713843345642,-0.007834264077246189,-0.9860066175460815,0.16542726755142212
4.148646593093872,-1.220232291686407,2.108661250569588,160.93387345032423,-0.037109375,0.021484375,1.00390625,-0.1220703125,-0.244140625,-0.1220703125,0.0,0.0,0.0,0.019908608868718147,-0.00745224766433239,-0.9859998226165771,0.16538605093955994
4.159226179122925,-1.1596452053755146,2.13121047978415,160.93920099787684,-0.03759765625,0.0205078125,1.0048828125,0.1220703125,-0.48828125,0.0,0.0,0.0,0.0,0.02001485601067543,-0.00689923670142889,-0.9860080480575562,0.16534815728664398
4.184144973754883,-1.130114669055553,2.1025021274855287,160.944268998241,-0.037109375,0.0205078125,1.00634765625,-0.1220703125,-0.9765625,-0.18310546875,0.0,0.0,0.0,0.01972493901848793,-0.006687526125460863,-0.9860212802886963,0.1653129756450653
4.205477714538574,-1.1781926907883902,2.109521640961598,160.9467278663422,-0.03662109375,0.0205078125,1.00439453125,0.18310546875,-0.8544921875,-0.1220703125,0.0,0.0,0.0,0.01985454000532627,-0.00709149893373251,-0.9860209226608276,0.1652826964855194
4.240764856338501,-1.2439103163830199,2.0739724273223854,160.9491457533084,-0.0361328125,0.02197265625,1.00439453125,-0.244140625,-0.3662109375,-0.1220703125,0.0,0.0,0.0,0.01964329555630684,-0.0077087837271392345,-0.9860251545906067,0.16525472700595856
4.240951061248779,-1.2439103163830199,2.0739724273223854,160.9491457533084,-0.0361328125,0.02197265625,1.00439453125,-0.244140625,-0.3662109375,-0.1220703125,0.0,0.0,0.0,0.01964329555630684,-0.0077087837271392345,-0.9860251545906067,0.16525472700595856
4.2643959522247314,-1.2130014692328908,2.0783608238641187,160.95316190454037,-0.03662109375,0.02099609375,1.0048828125,-0.1220703125,-0.8544921875,-0.06103515625,0.0,0.0,0.0,0.01963621936738491,-0.007437167689204216,-0.9860323667526245,0.16522492468357086
4.284409999847412,-1.2666458816958768,2.093836538419487,160.9552929235614,-0.03662109375,0.02197265625,1.0048828125,0.1220703125,-0.8544921875,-0.1220703125,0.0,0.0,0.0,0.01984657347202301,-0.007876766845583916,-0.9860297441482544,0.1651955097913742
4.303784132003784,-1.269824160815754,2.1148850470073506,160.9575742067442,-0.037109375,0.0224609375,1.00341796875,0.1220703125,-0.6103515625,-0.30517578125,0.0,0.0,0.0,0.02003210037946701,-0.007874095812439919,-0.986029863357544,0.16517281532287598
4.325607061386108,-1.2660381015814512,1.9791606504627346,160.95950032009011,-0.03466796875,0.02197265625,1.00244140625,-0.42724609375,-0.8544921875,-0.244140625,0.0,0.0,0.0,0.01885870285332203,-0.00803794153034687,-0.9860514998435974,0.1651732325553894
4.343434572219849,-1.1668611935119275,1.8842109891592138,160.96486884877777,-0.03369140625,0.0205078125,1.00390625,-0.18310546875,-0.6103515625,-0.1220703125,0.0,0.0,0.0,0.017898399382829666,-0.007322527002543211,-0.9860782623291016,0.16515392065048218
4.363442659378052,-1.169135006175307,2.083525514093706,160.96780583012085,-0.03662109375,0.0205078125,1.005859375,0.244140625,-0.54931640625,-0.06103515625,0.0,0.0,0.0,0.01961650513112545,-0.007054751738905907,-0.9860555529594421,0.16510578989982605
4.3852784633636475,-1.1816911350256118,2.1428875419439333,160.97070183032895,-0.037109375,0.02099609375,1.005859375,0.1220703125,-0.48828125,0.06103515625,0.0,0.0,0.0,0.020145190879702568,-0.0070775821805000305,-0.9860503673553467,0.16507193446159363
4.403488397598267,-1.1752039494179807,2.1878483293726,160.97245035875648,-0.03857421875,0.02099609375,1.001953125,-0.54931640625,-0.9765625,-0.18310546875,0.0,0.0,0.0,0.020522596314549446,-0.006957159843295813,-0.9860466718673706,0.16505277156829834
4.4232988357543945,-1.1838411505102848,2.0700299140674074,160.97641186847508,-0.0361328125,0.02099609375,1.00341796875,-0.30517578125,-0.54931640625,-0.244140625,0.0,0.0,0.0,0.01952103152871132,-0.007202250882983208,-0.9860689043998718,0.1650308221578598
4.443479776382446,-1.2688552344489643,2.036062316107876,160.97799647236252,-0.03662109375,0.0224609375,1.00439453125,0.0,-0.18310546875,-0.18310546875,0.0,0.0,0.0,0.01935107633471489,-0.007983101531863213,-0.9860702753067017,0.16500671207904816
4.463500738143921,-1.1634766213347745,2.089986019274892,160.98348794445522,-0.03662109375,0.0205078125,1.00390625,-0.1220703125,-0.732421875,-0.1220703125,0.0,0.0,0.0,0.01966298371553421,-0.006999422330409288,-0.986077606678009,0.16497109830379486
4.4848151206970215,-1.1159832211062082,2.0823016295718046,160.99083722800214,-0.037109375,0.01953125,1.005859375,0.0,-0.79345703125,-0.244140625,0.0,0.0,0.0,0.019528064876794815,-0.00660307239741087,-0.9860920310020447,0.16491685807704926
4.505054950714111,-1.2252954895737964,2.057666204452626,160.9930092281582,-0.0361328125,0.021484375,1.0029296875,0.244140625,-0.48828125,-0.48828125,0.0,0.0,0.0,0.019473249092698097,-0.007579633500427008,-0.9860919117927551,0.16488240659236908
4.5186285972595215,-1.2533741838083072,2.1328091709367563,160.99753081338875,-0.03857421875,0.02294921875,1.00048828125,-0.30517578125,-0.244140625,-0.3662109375,0.0,0.0,0.0,0.020159922540187836,-0.007713680155575275,-0.9860858917236328,0.16482964158058167
4.538777589797974,-1.279868807763904,2.1188096310157576,160.9987739078177,-0.037109375,0.0224609375,1.00390625,-0.42724609375,-0.30517578125,-0.06103515625,0.0,0.0,0.0,0.020077485591173172,-0.007962075062096119,-0.9860879182815552,0.16481605172157288
4.559046745300293,-1.2017604719629307,1.9227253586718578,161.0139915692885,-0.0302734375,0.02001953125,1.00634765625,0.30517578125,0.54931640625,-1.3427734375,0.0,0.0,0.0,0.018276851624250412,-0.007575053256005049,-0.9861418008804321,0.16472142934799194
4.583471775054932,-1.3047112729922983,2.004878447121948,161.06397489363465,-0.0419921875,0.02392578125,1.00341796875,0.42724609375,1.15966796875,-3.41796875,0.0,0.0,0.0,0.01912812329828739,-0.008351007476449013,-0.9861955046653748,0.1642647087574005
4.606489896774292,-1.2736239871501025,2.276630116412188,161.16593595756459,-0.05615234375,0.0185546875,1.0048828125,-0.3662109375,-0.67138671875,-4.08935546875,0.0,0.0,0.0,0.02141524851322174,-0.007712026592344046,-0.9863041639328003,0.16335904598236084
4.6193883419036865,-1.127577467222305,2.285483535680405,161.23668305698757,-0.03466796875,0.01611328125,1.0107421875,-0.244140625,-1.64794921875,-2.44140625,0.0,0.0,0.0,0.021279247477650642,-0.006455464754253626,-0.9864124655723572,0.16277626156806946
4.643622398376465,-1.0691994134993827,2.1252131468060558,161.25211928451182,-0.021484375,0.013671875,1.0068359375,0.0,-0.3662109375,0.0,0.0,0.0,0.0,0.019815925508737564,-0.006183797027915716,-0.9864619970321655,0.16267143189907074
4.663898468017578,-1.058090644422886,1.9182027062242517,161.24605407652885,-0.0107421875,0.01904296875,1.00244140625,0.732421875,0.30517578125,0.30517578125,0.0,0.0,0.0,0.018018512055277824,-0.006381684448570013,-0.9864826798439026,0.16274721920490265
4.683372735977173,-0.9497697138803016,1.826407098213396,161.24882713333187,-0.0390625,-0.04248046875,0.9775390625,-5.7373046875,1.8310546875,-0.30517578125,0.0,0.0,0.0,0.01707431487739086,-0.005580195691436529,-0.986504077911377,0.1627490371465683
4.703530788421631,-0.5430677005774791,1.8817943828534986,161.2827595131285,-0.03125,-0.34228515625,1.03857421875,-6.4697265625,-3.23486328125,-4.57763671875,0.0,0.0,0.0,0.01697281189262867,-0.002005184069275856,-0.9865584373474121,0.16251294314861298
4.7234814167022705,-0.43231218112175557,1.8807905584889184,161.349831970778,-0.0810546875,-0.10791015625,1.0791015625,3.41796875,2.50244140625,-1.8310546875,0.0,0.0,0.0,0.01680647023022175,-0.001062913448549807,-0.9866549968719482,0.16195181012153625
4.7443461418151855,-0.1902702338954848,1.8757193564735954,161.4000611819343,-0.05029296875,-0.181640625,0.93896484375,-0.18310546875,-2.44140625,-1.3427734375,0.0,0.0,0.0,0.016421133652329445,0.0010067453840747476,-0.986726701259613,0.16155466437339783
4.763508081436157,-0.0913212900596167,1.8028391035954439,161.4439519775408,-0.0166015625,-0.05859375,1.02734375,2.9296875,-0.18310546875,-0.48828125,0.0,0.0,0.0,0.01565474085509777,0.001750003662891686,-0.9867972135543823,0.1611928641796112
4.7843897342681885,0.19184683365499416,1.7273801341404948,161.48919515060297,-0.00634765625,-0.18359375,1.00732421875,1.28173828125,-0.79345703125,-1.40380859375,0.0,0.0,0.0,0.014608165249228477,0.00407657353207469,-0.9868636727333069,0.16084203124046326
4.80357027053833,0.27084290728508403,1.7105221600518457,161.51293688815792,-0.04833984375,-0.03955078125,1.03662109375,5.615234375,-1.5869140625,0.244140625,0.0,0.0,0.0,0.014353079721331596,0.004730261396616697,-0.9868961572647095,0.16064764559268951
4.823512077331543,0.4722883178384882,1.7707501278227833,161.5083879821707,-0.009765625,-0.14990234375,0.96533203125,-2.3193359375,-1.5869140625,-2.5634765625,0.0,0.0,0.0,0.014589092694222927,0.006550122518092394,-0.9868717193603516,0.16071268916130066
4.843580007553101,0.6719196995174457,1.7356853240061132,161.5735343264743,-0.02392578125,-0.0869140625,0.99853515625,0.67138671875,1.5869140625,-1.8310546875,0.0,0.0,0.0,0.014011776074767113,0.008212258107960224,-0.9869548678398132,0.16017577052116394
4.863562107086182,0.8736218558145336,1.77580681568612,161.62246580168824,-0.04052734375,-0.11669921875,0.99658203125,1.52587890625,-1.220703125,-3.173828125,0.0,0.0,0.0,0.014079651795327663,0.009999462403357029,-0.9870015382766724,0.15978045761585236
4.883456230163574,1.0673835436755115,1.837587050667649,161.67993501336474,-0.0498046875,-0.04296875,0.9853515625,-1.03759765625,1.28173828125,-1.708984375,0.0,0.0,0.0,0.014347493648529053,0.011747166514396667,-0.9870539903640747,0.1593126505613327
4.903578042984009,1.3043546090515765,1.8400704647611832,161.75140611283976,-0.017578125,-0.09228515625,0.9912109375,-0.6103515625,1.64794921875,-3.5400390625,0.0,0.0,0.0,0.014047999866306782,0.013783016242086887,-0.9871264696121216,0.1587265282869339
4.923710823059082,1.4917460782944598,1.927773508798732,161.81611532503644,-0.0419921875,-0.04052734375,1.01513671875,1.52587890625,1.03759765625,-3.47900390625,0.0,0.0,0.0,0.01455270778387785,0.015510207042098045,-0.9871780872344971,0.15819965302944183
4.94546914100647,1.7948964473643652,2.004708546166344,161.91631420016054,-0.041015625,-0.04150390625,0.97705078125,-3.41796875,-0.91552734375,-3.72314453125,0.0,0.0,0.0,0.014812873676419258,0.01821465604007244,-0.9872585535049438,0.15738296508789062
4.964099407196045,1.9781645100609704,1.9928807929579977,161.97837329895927,-0.0341796875,-0.04443359375,1.02978515625,-0.54931640625,1.220703125,-3.41796875,0.0,0.0,0.0,0.014469947665929794,0.01976955123245716,-0.98731529712677,0.15687039494514465
4.9834301471710205,2.303815123082485,2.0465178416232845,162.05123775702498,-0.0419921875,-0.15576171875,0.9140625,-9.21630859375,3.0517578125,-2.685546875,0.0,0.0,0.0,0.014500646851956844,0.022639162838459015,-0.9873450994491577,0.15629100799560547
5.003352403640747,2.5556224265528753,2.126921334428794,162.12852817767282,-0.05126953125,-0.10205078125,1.09619140625,1.953125,3.11279296875,-2.5634765625,0.0,0.0,0.0,0.014866797253489494,0.024907832965254784,-0.9873831868171692,0.15567003190517426
5.019223928451538,2.5766378514119466,2.130861926693068,162.21885059925708,-0.03857421875,-0.04052734375,1.06640625,4.33349609375,-3.0517578125,-3.60107421875,0.0,0.0,0.0,0.014891982078552246,0.025082504376769066,-0.9875001907348633,0.15489508211612701
5.044902324676514,2.456272415876574,2.054281418832062,162.28711150982218,-0.01171875,-0.02587890625,0.9892578125,-0.244140625,-0.8544921875,-5.92041015625,0.0,0.0,0.0,0.014408890157938004,0.02393367327749729,-0.9876323938369751,0.15427884459495544
5.063547611236572,2.319269493296696,1.9678765376236387,162.3871464604062,-0.03857421875,-0.02685546875,0.9619140625,-1.220703125,-0.67138671875,-5.43212890625,0.0,0.0,0.0,0.01386827789247036,0.02262498438358307,-0.9878100156784058,0.15338623523712158
5.083831071853638,2.487455217645444,2.0776889040045186,162.5229442814844,-0.0439453125,-0.0869140625,0.94921875,-4.7607421875,0.06103515625,-4.94384765625,0.0,0.0,0.0,0.014618518762290478,0.024203753098845482,-0.9879368543624878,0.152253657579422
5.103434324264526,2.6849887707538556,2.1469021990720196,162.58344609715235,-0.06689453125,-0.11669921875,1.0107421875,-3.41796875,-0.6103515625,-3.662109375,0.0,0.0,0.0,0.014966525137424469,0.02599029242992401,-0.9879608154296875,0.15176938474178314
5.127667188644409,2.9976767519477434,2.272680986411451,162.63561508203293,-0.09912109375,-0.16455078125,1.01611328125,-2.0751953125,-1.0986328125,-0.9765625,0.0,0.0,0.0,0.015649951994419098,0.02884448692202568,-0.9879299998283386,0.15138506889343262
5.139422178268433,3.0771863437456273,2.3210318955459712,162.64834655464583,-0.09228515625,-0.130859375,1.02197265625,2.5634765625,-1.3427734375,0.244140625,0.0,0.0,0.0,0.015965105965733528,0.029591618105769157,-0.9879164695739746,0.1512959897518158
5.16513729095459,3.2446245892670817,2.394668591874702,162.6670066314583,-0.0771484375,-0.12841796875,0.91064453125,-0.79345703125,-0.48828125,-0.3662109375,0.0,0.0,0.0,0.016384001821279526,0.031128939241170883,-0.9878810048103333,0.1511743664741516
5.18406343460083,3.349183899845987,2.3918541270498332,162.67656889629632,-0.080078125,-0.091796875,0.99560546875,0.91552734375,-8.1787109375,-1.52587890625,0.0,0.0,0.0,0.016224460676312447,0.032025277614593506,-0.9878654479980469,0.15110617876052856
5.203906536102295,3.454647783603096,2.285900177219776,162.7099138798243,-0.00537109375,-0.0693359375,1.0927734375,-3.173828125,-1.5869140625,-3.0517578125,0.0,0.0,0.0,0.01518136914819479,0.03279143199324608,-0.9879023432731628,0.1508089005947113
5.223743200302124,3.46184274756347,2.286456837637132,162.74819025993307,-0.06103515625,-0.048828125,1.001953125,-1.89208984375,-3.23486328125,-3.5400390625,0.0,0.0,0.0,0.015187675133347511,0.03284911811351776,-0.9879504442214966,0.1504799872636795
5.238560199737549,3.4545041361871145,2.3928609396221754,162.82561728436434,-0.07958984375,-0.0458984375,0.96240234375,-3.11279296875,-0.244140625,-6.4697265625,0.0,0.0,0.0,0.016137078404426575,0.032913561910390854,-0.9880311489105225,0.1498362272977829
5.2664172649383545,3.2776092803163657,2.5829372068174026,163.06673662244413,-0.05908203125,-0.05126953125,1.02197265625,2.74658203125,2.3193359375,-9.70458984375,0.0,0.0,0.0,0.018074117600917816,0.0315968319773674,-0.9883512258529663,0.14777334034442902
5.28352427482605,3.110803040736549,2.7425235095576928,163.26701142928724,-0.0634765625,-0.033203125,0.984375,1.40380859375,2.13623046875,-8.6669921875,0.0,0.0,0.0,0.019718961790204048,0.030327728018164635,-0.9886153936386108,0.14605197310447693
5.30517315864563,2.91368911737527,2.7977398260251336,163.4306081202874,-0.0546875,-0.017578125,1.00048828125,-0.30517578125,-1.03759765625,-8.4228515625,0.0,0.0,0.0,0.02048759162425995,0.02866768091917038,-0.9888601899147034,0.14461654424667358
5.323756694793701,2.785424354621366,2.7574649752539186,163.57342737583235,-0.01123046875,-0.017578125,1.07080078125,0.6103515625,3.72314453125,-10.80322265625,0.0,0.0,0.0,0.020336098968982697,0.02748507633805275,-0.9890807271003723,0.14335373044013977
5.345470190048218,2.5451060696651715,2.7072635117411483,163.84334279145293,-0.0361328125,-0.0048828125,1.04052734375,7.38525390625,3.84521484375,-15.380859375,0.0,0.0,0.0,0.02026294358074665,0.025300761684775352,-0.9894828200340271,0.1409723162651062
5.363925933837891,2.3030689249156606,2.8035211542707263,164.25076357544418,-0.10498046875,0.02099609375,0.95849609375,3.96728515625,0.244140625,-22.76611328125,0.0,0.0,0.0,0.02147478237748146,0.023252129554748535,-0.9900064468383789,0.137424036860466
5.389228105545044,2.101508334961292,3.01494816592459,164.91942543481008,-0.08251953125,0.0107421875,0.94775390625,-0.67138671875,3.23486328125,-29.47998046875,0.0,0.0,0.0,0.023669930174946785,0.02162478305399418,-0.9907798171043396,0.13163402676582336
5.403712272644043,1.9670080363819893,3.10933369629135,165.3558472020172,-0.08642578125,-0.00537109375,1.0244140625,5.06591796875,-1.15966796875,-29.35791015625,0.0,0.0,0.0,0.0247187577188015,0.020475517958402634,-0.9912749528884888,0.12784306704998016
5.41993522644043,1.682078157418445,3.170003278480811,165.93178241321104,-0.08203125,0.0107421875,1.11083984375,6.8359375,-2.74658203125,-29.11376953125,0.0,0.0,0.0,0.025651995092630386,0.01794920302927494,-0.9919371604919434,0.12280312925577164
5.44467306137085,1.462299531956948,3.249419595507842,166.65223076686397,-0.052734375,0.033203125,0.9365234375,-0.6103515625,3.35693359375,-30.21240234375,0.0,0.0,0.0,0.026675894856452942,0.01596388965845108,-0.9927015900611877,0.11652123928070068
5.46017861366272,1.2906199524043271,3.3114490256723705,167.25145692312753,-0.05908203125,0.009765625,0.95458984375,0.8544921875,3.84521484375,-30.6396484375,0.0,0.0,0.0,0.027463499456644058,0.014395910315215588,-0.9933038353919983,0.11129264533519745
5.483511924743652,1.1558154969635475,3.3963879775301797,167.71353288085723,-0.0673828125,-0.001953125,0.9833984375,2.50244140625,2.62451171875,-31.1279296875,0.0,0.0,0.0,0.028384165838360786,0.013195076026022434,-0.9937382340431213,0.10725904256105423
5.504177808761597,1.0141305864293317,3.494327340699462,168.33128251014986,-0.072265625,0.025390625,0.94873046875,-2.99072265625,2.50244140625,-30.8837890625,0.0,0.0,0.0,0.02943071722984314,0.011899081990122795,-0.9942910671234131,0.10187001526355743
5.524684190750122,0.9076431347920729,3.556194980758026,168.9554115361273,-0.08837890625,0.02490234375,1.0615234375,0.8544921875,-1.46484375,-31.982421875,0.0,0.0,0.0,0.03012183867394924,0.010865929536521435,-0.9948247671127319,0.09642833471298218
5.543784856796265,0.7317463403137923,3.469479966272602,169.6019162618257,-0.03466796875,0.0234375,1.15966796875,2.74658203125,-1.15966796875,-33.447265625,0.0,0.0,0.0,0.029568761587142944,0.009099559858441353,-0.9953917860984802,0.09076512604951859
5.563814878463745,0.5167791028748934,3.2924561905812695,170.18629358683364,-0.05908203125,0.0,1.03076171875,6.65283203125,-5.615234375,-26.55029296875,0.0,0.0,0.0,0.028236981481313705,0.006948619615286589,-0.9959027171134949,0.08562903106212616
5.584807872772217,0.3368760022420037,3.1847005649142095,170.58032720005167,-0.041015625,0.0,0.91552734375,3.662109375,-4.638671875,-15.80810546875,0.0,0.0,0.0,0.02745293267071247,0.005210401955991983,-0.9962274432182312,0.08215898275375366
5.603490829467773,0.2911770474548731,2.961729039459143,170.7691409494675,-0.00634765625,-0.0048828125,0.92236328125,1.953125,1.52587890625,-5.9814453125,0.0,0.0,0.0,0.025554796680808067,0.004611426964402199,-0.996415913105011,0.08050563186407089
5.627416372299194,0.14341867134570135,2.995465905090775,170.77072555335494,-0.11376953125,0.02734375,0.97314453125,-1.52587890625,-6.40869140625,1.64794921875,0.0,0.0,0.0,0.025951987132430077,0.003349924925714731,-0.9964144229888916,0.0804586112499237
5.63882303237915,0.12218849573417122,3.0034617087313324,170.73045475800856,-0.10205078125,0.015625,1.0146484375,-1.5869140625,-9.21630859375,2.01416015625,0.0,0.0,0.0,0.026035301387310028,0.00318007986061275,-0.9963849186897278,0.08080387860536575
5.665108680725098,-0.000941206029035541,2.7963197870080054,170.75138245762548,-0.01123046875,0.0185546875,1.0390625,1.3427734375,-4.33349609375,-3.11279296875,0.0,0.0,0.0,0.024321306496858597,0.001958993263542652,-0.9964480400085449,0.08059759438037872
5.684274911880493,-0.1295613914585091,2.5588774385792097,170.82792155746463,-0.0224609375,0.0322265625,1.02880859375,-0.67138671875,-7.080078125,-4.7607421875,0.0,0.0,0.0,0.02234743721783161,0.0006585685187019408,-0.9965513348579407,0.07991097122430801
5.705243825912476,-0.2652015979174766,2.350902660663964,170.84307091704372,-0.02099609375,0.02734375,0.98095703125,-2.25830078125,-4.150390625,1.28173828125,0.0,0.0,0.0,0.020633241161704063,-0.0006689318106509745,-0.996600329875946,0.07975997775793076
5.723454713821411,-0.35545427686699704,2.0603878213934648,170.64447633673643,0.00244140625,0.00732421875,0.98046875,1.03759765625,-3.90625,14.2822265625,0.0,0.0,0.0,0.018172260373830795,-0.001624850556254387,-0.9965077638626099,0.08148255944252014
5.7437684535980225,-0.46128381586853984,1.7084586958705614,170.1173086762165,0.02197265625,0.04541015625,1.0087890625,-2.44140625,-3.35693359375,25.146484375,0.0,0.0,0.0,0.015199730172753334,-0.00272589223459363,-0.9961697459220886,0.08606576919555664
5.764435052871704,-0.5653774996451209,1.4174234815626718,169.54308101231518,0.04052734375,0.05078125,1.02734375,-1.953125,-3.60107421875,30.82275390625,0.0,0.0,0.0,0.01276699360460043,-0.0037857808638364077,-0.9957566261291504,0.09105847775936127
5.788369655609131,-0.6730381429940353,1.1476855441388225,168.86798511475112,0.0478515625,0.03662109375,1.091796875,4.39453125,-6.53076171875,36.2548828125,0.0,0.0,0.0,0.01053752563893795,-0.004873957484960556,-0.9952237606048584,0.09692730754613876
5.810244083404541,-0.9122151993894559,0.7062287535746247,167.8774027794242,0.0517578125,0.0458984375,0.970703125,5.2490234375,-9.1552734375,40.83251953125,0.0,0.0,0.0,0.006968872155994177,-0.007265097927302122,-0.9943643808364868,0.1055382639169693
5.823456287384033,-0.9626911511294964,0.5722730558599247,167.46062463627,0.087890625,0.0556640625,0.92626953125,-0.48828125,-1.8310546875,41.19873046875,0.0,0.0,0.0,0.005881404038518667,-0.007805246394127607,-0.9939760565757751,0.10916157811880112
5.843506336212158,-1.0359544282096977,0.339933925958186,166.62221891565093,0.04296875,0.0419921875,0.97265625,-0.18310546875,-0.6103515625,42.8466796875,0.0,0.0,0.0,0.003999157343059778,-0.008633194491267204,-0.9931514263153076,0.11644624918699265
5.864705562591553,-1.1317229651616796,0.0311559879402925,165.56487831137628,0.02783203125,0.0224609375,1.078125,4.33349609375,-1.77001953125,41.56494140625,0.0,0.0,0.0,0.0015105123165994883,-0.009763572365045547,-0.9920281767845154,0.12562856078147888
5.8834617137908936,-1.2356075811166347,-0.1085871611778693,164.96050219247854,0.0439453125,0.05615234375,0.99462890625,0.30517578125,1.15966796875,39.97802734375,0.0,0.0,0.0,0.00047168511082418263,-0.010813768021762371,-0.9913404583930969,0.13087035715579987
5.9035491943359375,-1.3184253323503319,-0.25405723715210166,164.16646538070788,0.02685546875,0.04833984375,0.9716796875,-2.86865234375,0.18310546875,38.6962890625,0.0,0.0,0.0,-0.0006111347465775907,-0.011700842529535294,-0.9903977513313293,0.13775025308132172
5.923527240753174,-1.2615341254323569,-0.4231460939360249,163.42534887462648,0.0234375,0.015625,0.97216796875,-3.2958984375,0.8544921875,34.912109375,0.0,0.0,0.0,-0.0020670974627137184,-0.011425923556089401,-0.9894851446151733,0.14416782557964325
5.943525791168213,-1.1065618289198218,-0.19749749451207066,162.67167848085057,-0.00390625,0.0224609375,0.96484375,-8.48388671875,8.7890625,25.45166015625,0.0,0.0,0.0,-0.0002490766637492925,-0.0098058320581913,-0.9885382652282715,0.1506517380475998
5.964238405227661,-1.0520728208772816,0.07099266606799519,162.37515264822366,-0.0107421875,0.0107421875,1.08447265625,-3.47900390625,9.3994140625,16.11328125,0.0,0.0,0.0,0.002018709434196353,-0.008977648802101612,-0.9881542325019836,0.1531880497932434
5.983746767044067,-1.0832234994127115,0.399577032101015,162.1433633485501,-0.08642578125,0.02294921875,1.11962890625,5.18798828125,-0.18310546875,4.21142578125,0.0,0.0,0.0,0.004911603406071663,-0.008797026239335537,-0.9878382682800293,0.1551581770181656
6.003493070602417,-1.1772167207890187,0.46231987018826615,162.14380048065698,-0.09521484375,0.048828125,0.9775390625,2.38037109375,-5.37109375,-0.79345703125,0.0,0.0,0.0,0.005579698830842972,-0.00952232163399458,-0.9878301024436951,0.15514452755451202
6.02385687828064,-1.2147777453039172,0.620848080576586,162.19120199349686,-0.0673828125,0.0615234375,0.88330078125,-6.04248046875,1.40380859375,-2.9296875,0.0,0.0,0.0,0.006993121933192015,-0.009634253568947315,-0.987886905670166,0.15471859276294708
6.04746675491333,-1.1295772185452377,0.7864035951254971,162.20641965496765,-0.10302734375,-0.00927734375,1.00634765625,-1.03759765625,-6.40869140625,1.03759765625,0.0,0.0,0.0,0.008304154500365257,-0.008677147328853607,-0.9879078269004822,0.15457715094089508
6.064441442489624,-1.0872744419207636,0.8500168821255282,162.15427799084378,-0.04443359375,-0.0107421875,1.0078125,5.06591796875,-2.0751953125,3.662109375,0.0,0.0,0.0,0.008799239061772823,-0.00822256039828062,-0.9878374338150024,0.15502387285232544
6.084531307220459,-1.1455944390357407,0.9709411658732255,162.0681083242749,-0.0361328125,0.0322265625,0.99755859375,4.08935546875,-3.47900390625,5.0048828125,0.0,0.0,0.0,0.009926966391503811,-0.00855410099029541,-0.9877095818519592,0.15575037896633148
6.10391640663147,-1.2672265544970336,0.9920836962838827,161.99962884765634,-0.03955078125,0.06103515625,1.03466796875,-2.5634765625,-4.21142578125,4.33349609375,0.0,0.0,0.0,0.010280227288603783,-0.009567581117153168,-0.9876053929328918,0.15632767975330353
6.123858451843262,-1.0970929455743628,1.0296597685592963,161.90344612376424,-0.02880859375,-0.03564453125,0.9873046875,-11.77978515625,-1.953125,5.31005859375,0.0,0.0,0.0,0.01037871465086937,-0.00804124679416418,-0.9874846339225769,0.1571681797504425
6.144780397415161,-0.727357997132912,1.0587502912863211,161.84993842180634,-0.01904296875,-0.052734375,1.0966796875,2.3193359375,5.43212890625,-0.8544921875,0.0,0.0,0.0,0.010124484077095985,-0.0048103840090334415,-0.9874298572540283,0.1576598584651947
6.158798694610596,-0.6649247853945592,1.2241152542295592,161.94084823965923,-0.052734375,-0.02880859375,1.0380859375,5.18798828125,6.40869140625,-9.21630859375,0.0,0.0,0.0,0.011460281908512115,-0.004053810611367226,-0.9875442385673523,0.1568715125322342
6.179061651229858,-0.7030157365395154,1.583488645617542,162.20792229658505,-0.11083984375,0.0087890625,0.93603515625,3.23486328125,7.87353515625,-16.66259765625,0.0,0.0,0.0,0.01460025180131197,-0.003923733253031969,-0.9878707528114319,0.15454058349132538
6.204028367996216,-0.7692482410036878,1.9216205755736084,162.6429780259582,-0.1015625,0.0380859375,1.013671875,1.40380859375,5.7373046875,-25.390625,0.0,0.0,0.0,0.017588922753930092,-0.004104968160390854,-0.988406240940094,0.15075422823429108
6.2238523960113525,-0.8065152472191583,2.2068087210651437,163.271942825868,-0.107421875,0.0283203125,1.02783203125,-1.3427734375,2.86865234375,-35.2783203125,0.0,0.0,0.0,0.020075146108865738,-0.004160895943641663,-0.9891756176948547,0.14529728889465332
6.244462728500366,-0.8606052761646347,2.455118967680488,164.2659675765366,-0.13134765625,0.0185546875,1.0126953125,4.94384765625,0.79345703125,-42.6025390625,0.0,0.0,0.0,0.022248797118663788,-0.004505518823862076,-0.9903551936149597,0.13667966425418854
6.264369010925293,-0.9420284415080327,2.7697204690590373,165.19494160555004,-0.07861328125,0.0283203125,0.97900390625,2.9296875,6.8359375,-49.37744140625,0.0,0.0,0.0,0.025024613365530968,-0.005036073736846447,-0.9913679361343384,0.1286003291606903
6.283690929412842,-1.0391989815088654,3.0474925232158196,166.1740219023147,-0.13916015625,0.02294921875,1.0205078125,6.7138671875,-1.220703125,-49.6826171875,0.0,0.0,0.0,0.02748797833919525,-0.005799043457955122,-0.9923673272132874,0.12007498741149902
6.303644180297852,-1.0518404877237955,3.281244648502105,167.18706189963265,-0.12109375,0.04541015625,0.99658203125,-2.86865234375,2.86865234375,-51.6357421875,0.0,0.0,0.0,0.029474133625626564,-0.005923378746956587,-0.993335485458374,0.11126957833766937
6.326729774475098,-0.9521342399935955,3.5787585106811632,168.22266884196833,-0.0830078125,0.00244140625,0.97705078125,-1.46484375,4.150390625,-52.30712890625,0.0,0.0,0.0,0.03191167488694191,-0.005057476926594973,-0.9942303895950317,0.10228408873081207
6.344003438949585,-0.7180325477600232,3.7499134463281623,169.0168149367657,-0.11083984375,-0.0751953125,0.931640625,-4.150390625,6.103515625,-51.1474609375,0.0,0.0,0.0,0.03316684812307358,-0.0031028022058308125,-0.9948774576187134,0.09544255584478378
6.363784313201904,-0.5040310883975936,3.9593684543025964,170.04661621830687,-0.14794921875,-0.05859375,0.9716796875,1.15966796875,2.25830078125,-50.96435546875,0.0,0.0,0.0,0.034795910120010376,-0.001382509944960475,-0.9956390261650085,0.08654654771089554
6.380007982254028,-0.39688916589962986,4.112570024272806,171.09409402942003,-0.1396484375,-0.0068359375,1.06982421875,2.99072265625,-2.62451171875,-52.6123046875,0.0,0.0,0.0,0.03604144975543022,-0.0006650050054304302,-0.9963431358337402,0.07746614515781403
6.39894700050354,-0.320184247210109,4.123468444867207,172.19438286319573,-0.0546875,0.00634765625,1.134765625,3.23486328125,3.7841796875,-56.15234375,0.0,0.0,0.0,0.03608277067542076,-0.00033715926110744476,-0.9970380663871765,0.06791958212852478
6.42378306388855,-0.2299222834721856,4.267783511840407,173.31435630215938,-0.1240234375,-0.00830078125,1.0439453125,4.8828125,-0.06103515625,-56.82373046875,0.0,0.0,0.0,0.03728831186890602,0.00016951722500380129,-0.9976086616516113,0.058194998651742935
6.44349479675293,-0.159676455901249,4.519677900222715,174.43592800538886,-0.13134765625,-0.0322265625,0.8818359375,2.9296875,4.5166015625,-55.0537109375,0.0,0.0,0.0,0.03945247456431389,0.000523148279171437,-0.9980462789535522,0.04844388738274574
6.4635090827941895,-0.06273024492596894,4.679252036688546,175.5144012149555,-0.16748046875,-0.00048828125,0.8720703125,-1.8310546875,-1.220703125,-51.81884765625,0.0,0.0,0.0,0.040812958031892776,0.0010510196443647146,-0.9984017014503479,0.039079248905181885
6.484011888504028,0.11394913982080698,4.800444352000314,176.52888921237752,-0.126953125,-0.0009765625,1.01025390625,-6.7138671875,-2.99072265625,-48.9501953125,0.0,0.0,0.0,0.04183020070195198,0.0022614486515522003,-0.9986626505851746,0.030301539227366447
6.503727436065674,0.43493670799075945,4.758804530612154,177.43052882433255,-0.14990234375,-0.134765625,1.07568359375,0.0,-6.40869140625,-40.0390625,0.0,0.0,0.0,0.04142070189118385,0.004722138866782188,-0.9988759756088257,0.02255907841026783
6.518827676773071,0.5758004216794133,4.62299304915562,178.12065113807066,-0.0361328125,-0.09814453125,1.05615234375,6.16455078125,0.9765625,-28.4423828125,0.0,0.0,0.0,0.04024400934576988,0.005681450944393873,-0.9990360140800476,0.016588794067502022
6.54364800453186,0.6108043407629352,4.402110707812932,178.56720890600607,-0.06689453125,0.0,0.86474609375,-5.859375,-4.33349609375,-16.78466796875,0.0,0.0,0.0,0.03833606466650963,0.005806091707199812,-0.9991674423217773,0.012698479928076267
6.563474178314209,0.7163184904434673,4.278182901738575,178.7906926956489,-0.015625,-0.0283203125,1.00244140625,-5.859375,0.732421875,-8.9111328125,0.0,0.0,0.0,0.03725678473711014,0.006640203297138214,-0.9992255568504333,0.01077879685908556
6.583663702011108,0.8151440706575587,4.044557988725581,178.88046870209953,-0.02783203125,-0.0390625,1.13916015625,1.220703125,-2.99072265625,-2.25830078125,0.0,0.0,0.0,0.0352160669863224,0.007453383877873421,-0.9993018507957458,0.010014228522777557
6.603553056716919,0.8280909610335824,3.9259619990720642,178.87732681508135,0.017578125,-0.01806640625,1.03369140625,0.244140625,7.87353515625,-0.18310546875,0.0,0.0,0.0,0.03418048098683357,0.007557382807135582,-0.9993367791175842,0.010038544423878193
6.623650074005127,0.6503802710829873,3.810183462451178,178.8521917189357,-0.06396484375,-0.0087890625,0.99072265625,6.89697265625,-4.08935546875,0.91552734375,0.0,0.0,0.0,0.033184975385665894,0.00600516377016902,-0.9993792176246643,0.010199299082159996
6.6434454917907715,0.5410940427116099,3.824113633263419,178.83112741553538,-0.05810546875,0.02490234375,0.87109375,-5.0048828125,-2.13623046875,0.244140625,0.0,0.0,0.0,0.03331524878740311,0.005059374496340752,-0.999378502368927,0.010351933538913727
6.66340184211731,0.5688222095034816,3.8274642679381334,178.88788628753818,0.04150390625,0.0205078125,0.99169921875,-5.2490234375,13.73291015625,-5.859375,0.0,0.0,0.0,0.033344581723213196,0.005284976214170456,-0.9993813037872314,0.00986514613032341
6.683744668960571,0.5298932795247294,3.89561034594782,179.17490449684044,-0.0302734375,0.01220703125,1.0908203125,2.685546875,13.18359375,-21.30126953125,0.0,0.0,0.0,0.033954545855522156,0.004866109695285559,-0.9993845224380493,0.00735316751524806
6.703767776489258,0.33341397678687995,4.097694726034164,179.76018340681884,-0.1298828125,0.05029296875,1.0244140625,2.99072265625,4.57763671875,-33.75244140625,0.0,0.0,0.0,0.03574519604444504,0.0029825347010046244,-0.9993541240692139,0.0021954509429633617
6.723421812057495,0.21242871492454168,4.266872108473033,-179.44995621471688,-0.1572265625,0.06005859375,1.01220703125,2.99072265625,0.30517578125,-43.9453125,0.0,0.0,0.0,0.037235282361507416,0.0016737941186875105,-0.9992939233779907,-0.004727657418698072
6.743760585784912,0.3607438848532017,4.536529684452429,-178.47968686198155,-0.1962890625,-0.03759765625,0.93603515625,-7.26318359375,6.8359375,-50.9033203125,0.0,0.0,0.0,0.03961640223860741,0.0026202586013823748,-0.9991252422332764,-0.013131789863109589
6.763408184051514,0.4741508784086389,4.8514987353856895,-177.34766496932195,-0.13916015625,-0.025390625,1.1328125,7.6904296875,8.85009765625,-58.89892578125,0.0,0.0,0.0,0.042408641427755356,0.0031533706933259964,-0.9988318681716919,-0.022947883233428
6.783531427383423,0.3828506992364471,5.090157924703806,-176.10926971052862,-0.20751953125,0.00927734375,1.0185546875,9.521484375,-3.60107421875,-63.1103515625,0.0,0.0,0.0,0.04449285939335823,0.0018283758545294404,-0.9984373450279236,-0.03376459330320358
6.804335832595825,0.45862761933334534,5.200538477446266,-174.81432048540756,-0.19580078125,0.04150390625,0.8740234375,-3.23486328125,-4.39453125,-66.46728515625,0.0,0.0,0.0,0.045501742511987686,0.0019417244475334883,-0.9979478716850281,-0.045009784400463104
6.823948621749878,0.7749704454242775,5.341839723448198,-173.10971017424748,-0.1181640625,-0.0537109375,1.03857421875,0.6103515625,0.6103515625,-67.68798828125,0.0,0.0,0.0,0.04692013934254646,0.003943052142858505,-0.9971045851707458,-0.05971169099211693
6.84364652633667,0.9473828829304995,5.389924682091911,-172.12448270722982,-0.1923828125,-0.05322265625,0.9697265625,0.79345703125,-9.765625,-64.453125,0.0,0.0,0.0,0.04747313633561134,0.00500995060428977,-0.9965285658836365,-0.06820670515298843
6.862643480300903,1.0815967404514848,5.40346681278193,-170.54008372546195,-0.10498046875,-0.025390625,1.0146484375,2.197265625,-5.2490234375,-61.8896484375,0.0,0.0,0.0,0.04775148257613182,0.005509271286427975,-0.9954790472984314,-0.08192095905542374
6.883828163146973,1.1902344210168283,5.42717525316469,-169.701199891601,-0.11669921875,-0.0185546875,1.02734375,-4.57763671875,-4.39453125,-53.1005859375,0.0,0.0,0.0,0.048080895096063614,0.006084070540964603,-0.994837760925293,-0.08915781229734421
6.8987274169921875,1.4844336137360206,5.36910199663348,-168.77611907041447,-0.087890625,-0.06201171875,1.06689453125,-1.5869140625,-2.99072265625,-40.95458984375,0.0,0.0,0.0,0.047874074429273605,0.008297698572278023,-0.9940907955169678,-0.09707098454236984
6.918864488601685,1.6735324168279953,5.158221613556629,-168.1254889104574,-0.09326171875,-0.05224609375,1.0390625,2.50244140625,-11.41357421875,-28.01513671875,0.0,0.0,0.0,0.04626169428229332,0.00985660683363676,-0.9935902953147888,-0.10266991704702377
6.9396812915802,1.6837884794752984,4.949692523101555,-167.71054125800077,0.04150390625,-0.00341796875,0.95703125,-0.42724609375,5.126953125,-18.06640625,0.0,0.0,0.0,0.044499367475509644,0.00997366663068533,-0.9932880401611328,-0.10629814863204956
6.963711500167847,1.6481070376426228,4.777898324436925,-167.43923248378954,-0.0126953125,-0.00927734375,0.96484375,2.5634765625,-2.8076171875,-11.77978515625,0.0,0.0,0.0,0.04300043359398842,0.009723820723593235,-0.9930974245071411,-0.1086917370557785
6.984748363494873,1.55819784250316,4.541591281514232,-167.25836907456758,-0.03369140625,0.0126953125,0.96484375,-0.244140625,-2.38037109375,-8.36181640625,0.0,0.0,0.0,0.04088177904486656,0.009106626734137535,-0.9930121898651123,-0.11032993346452713
7.003569602966309,1.377209568885458,4.283958253568644,-167.08672642072517,0.0,0.01904296875,1.11083984375,4.2724609375,-1.64794921875,-9.521484375,0.0,0.0,0.0,0.03848663717508316,0.007730898447334766,-0.9929418563842773,-0.11191820353269577
7.023653745651245,1.2048438754863684,4.134177327712141,-166.88951153863022,-0.037109375,0.03125,1.0712890625,3.0517578125,0.54931640625,-10.6201171875,0.0,0.0,0.0,0.037031397223472595,0.006320987828075886,-0.992804229259491,-0.11370383203029633
7.043815851211548,0.9853424062947859,4.0544442606623505,-166.67059031535297,-0.056640625,0.02490234375,0.96484375,1.0986328125,2.38037109375,-11.53564453125,0.0,0.0,0.0,0.03613129258155823,0.0044298251159489155,-0.9926193356513977,-0.11567982286214828
7.0640199184417725,0.7972820054000647,4.119101819553453,-166.47482343336208,-0.11669921875,0.01416015625,0.8857421875,2.74658203125,-6.7138671875,-9.6435546875,0.0,0.0,0.0,0.03650606423616409,0.00267284968867898,-0.9924065470695496,-0.11742838472127914
7.083660840988159,0.7229341156240064,4.211017382761607,-166.31537949737728,-0.07373046875,0.048828125,1.0263671875,-3.23486328125,5.2490234375,-8.36181640625,0.0,0.0,0.0,0.03722849488258362,0.0018826001323759556,-0.9922153353691101,-0.11882422864437103
7.10405421257019,0.5393947129904519,4.156358367041758,-166.1571649954431,-0.099609375,0.009765625,1.15087890625,2.86865234375,-7.38525390625,-8.6669921875,0.0,0.0,0.0,0.03656531497836113,0.00029976730002090335,-0.9920690059661865,-0.1202578991651535
7.1189210414886475,0.3026204424398477,4.094649742324808,-166.00796634321335,-0.06005859375,0.0048828125,0.9658203125,5.7373046875,-2.13623046875,-7.568359375,0.0,0.0,0.0,0.035780299454927444,-0.00173177442047745,-0.9919290542602539,-0.1216285452246666
7.143784523010254,0.15102108543853546,4.0955035159710595,-165.89692112768728,-0.12060546875,0.06201171875,0.80859375,-9.27734375,-4.7607421875,-2.86865234375,0.0,0.0,0.0,0.03562378138303757,-0.0030794760677963495,-0.9918072819709778,-0.1226368248462677
7.1640191078186035,0.1710766552758085,4.064363829771325,-165.86520172918173,-0.14794921875,0.00634765625,0.9892578125,0.06103515625,-12.87841796875,-2.197265625,0.0,0.0,0.0,0.03537493199110031,-0.002882331609725952,-0.9917833805084229,-0.12290672957897186
7.185365676879883,0.10875982355761046,3.8556831944940413,-165.80983621576962,-0.04052734375,0.02001953125,1.08056640625,4.2724609375,-3.35693359375,-1.708984375,0.0,0.0,0.0,0.03350038081407547,-0.0032138817477971315,-0.9917844533920288,-0.12341465055942535
7.2043726444244385,-0.06172850163465137,3.7659579875753457,-165.8169259521281,-0.05419921875,0.048828125,1.01953125,4.0283203125,-1.953125,1.03759765625,0.0,0.0,0.0,0.03254043683409691,-0.004590787924826145,-0.991811990737915,-0.1234058067202568
7.223969459533691,-0.2917482220242154,3.6739297262458863,-165.85387727553785,-0.06884765625,0.0439453125,0.97705078125,-2.50244140625,-4.2724609375,1.708984375,0.0,0.0,0.0,0.03149820491671562,-0.006472456734627485,-0.9918667674064636,-0.1231522336602211
7.243938207626343,-0.35206717004933186,3.582628026289387,-165.88036474913918,0.029296875,0.044921875,0.98095703125,-4.2724609375,6.7138671875,-0.244140625,0.0,0.0,0.0,0.030644668266177177,-0.006889491342008114,-0.9919168949127197,-0.12294017523527145
7.263873100280762,-0.38640082345969345,3.4457454857936307,-165.86445040837305,-0.005859375,0.01220703125,1.01416015625,2.25830078125,-0.8544921875,-1.89208984375,0.0,0.0,0.0,0.029421931132674217,-0.007044152356684208,-0.9919345378875732,-0.12308763712644577
7.279812812805176,-0.6258447908412735,3.1990951885900114,-165.85742897390628,-0.00732421875,0.03173828125,1.05615234375,4.638671875,-3.90625,-1.52587890625,0.0,0.0,0.0,0.027028942480683327,-0.008854090236127377,-0.9919735789299011,-0.12320559471845627
7.305483818054199,-0.7322959037377139,3.0616779723482903,-165.82991697192946,0.03271484375,0.05322265625,1.10546875,2.50244140625,0.6103515625,-1.953125,0.0,0.0,0.0,0.025722535327076912,-0.009634407237172127,-0.9919687509536743,-0.12346525490283966
7.323524475097656,-0.8785371374177098,2.9230321758296127,-165.78743319529198,-0.02783203125,0.0546875,1.0439453125,1.28173828125,-1.89208984375,-2.62451171875,0.0,0.0,0.0,0.02436070330440998,-0.010760441422462463,-0.9919422268867493,-0.12386050075292587
7.345238208770752,-1.0219766595166782,2.81675656677833,-165.7355647387349,-0.03662109375,0.03173828125,0.9267578125,-1.5869140625,0.9765625,-2.44140625,0.0,0.0,0.0,0.023280255496501923,-0.011898144148290157,-0.991895854473114,-0.12433449923992157
7.363436460494995,-1.1401631579851113,2.953604956328236,-165.7155932656018,-0.0732421875,0.0322265625,0.91015625,-0.244140625,-3.2958984375,-1.3427734375,0.0,0.0,0.0,0.024334317073225975,-0.013073316775262356,-0.9918301105499268,-0.12453939765691757
7.383747816085815,-1.2174217755646526,2.9437515546768465,-165.6817018669402,0.0107421875,0.05419921875,1.09765625,-2.13623046875,5.0048828125,-3.11279296875,0.0,0.0,0.0,0.024160994216799736,-0.013738496229052544,-0.9917864799499512,-0.12484846264123917
7.403520345687866,-1.2883448590804782,2.814498122040583,-165.6187685039277,-0.05810546875,0.0244140625,1.10986328125,1.220703125,-4.2724609375,-3.47900390625,0.0,0.0,0.0,0.02295714057981968,-0.014224737882614136,-0.9917387366294861,-0.12539897859096527
7.423865795135498,-1.2561367818841658,2.667985441701932,-165.55949612231032,-0.02880859375,0.02587890625,0.9150390625,1.220703125,2.5634765625,-1.708984375,0.0,0.0,0.0,0.021717136725783348,-0.013797576539218426,-0.99170982837677,-0.12589552998542786
7.444503307342529,-1.2916867425753187,2.760916782105714,-165.5678562738544,-0.11328125,0.05615234375,0.86376953125,-11.23046875,-3.84521484375,1.0986328125,0.0,0.0,0.0,0.02248341776430607,-0.014205271378159523,-0.991694450378418,-0.12583643198013306
7.464212417602539,-1.234603009700114,2.7197661730168563,-165.5712303873044,-0.08203125,-0.0078125,1.12060546875,2.99072265625,-10.7421875,-0.1220703125,0.0,0.0,0.0,0.02219034917652607,-0.013665604405105114,-0.9917141199111938,-0.12579333782196045
7.483412504196167,-1.201819382344522,2.5718880951744376,-165.55746072593766,-0.0126953125,0.02490234375,1.0595703125,1.64794921875,-1.0986328125,-1.03759765625,0.0,0.0,0.0,0.020944857969880104,-0.013222700916230679,-0.9917341470718384,-0.12589643895626068
7.503411769866943,-1.3241269394817057,2.4190013542362836,-165.5717494816813,-0.02880859375,0.04345703125,1.037109375,0.1220703125,-1.953125,0.67138671875,0.0,0.0,0.0,0.0194889847189188,-0.01411144807934761,-0.9917659163475037,-0.12578341364860535
7.523322343826294,-1.3029674403198293,2.3383293496190283,-165.6186728812793,-0.02880859375,0.0078125,0.93701171875,-8.9111328125,-4.08935546875,2.5634765625,0.0,0.0,0.0,0.018819628283381462,-0.013832397758960724,-0.9918354153633118,-0.1253676414489746
7.545706510543823,-0.8615169996971256,2.173264808277565,-165.7423949279049,0.0810546875,-0.1357421875,1.0146484375,-7.8125,-3.35693359375,9.6435546875,0.0,0.0,0.0,0.01788421720266342,-0.00981201883405447,-0.992045521736145,-0.1242160052061081
7.5635154247283936,-0.6131656118642027,1.9690579469066394,-165.93609909276648,0.09033203125,-0.19189453125,0.9716796875,-7.4462890625,-8.9111328125,15.56396484375,0.0,0.0,0.0,0.01639796607196331,-0.007413311395794153,-0.992306113243103,-0.12249425798654556
7.5854668617248535,-0.36577946849922005,1.6004839705415321,-166.5006688691814,0.14111328125,-0.22119140625,1.06591796875,1.15966796875,-5.43212890625,28.076171875,0.0,0.0,0.0,0.013494406826794147,-0.004811074119061232,-0.9929620027542114,-0.11756375432014465
7.603443384170532,-0.24650392838414026,1.4279601155744743,-167.00057041453462,0.11474609375,-0.21484375,1.052734375,-2.8076171875,-6.34765625,36.4990234375,0.0,0.0,0.0,0.012137370184063911,-0.0035477171186357737,-0.9934899210929871,-0.11321589350700378
7.620650768280029,0.03426965707247909,1.0865500149819192,-168.1409251379816,0.04443359375,-0.2197265625,0.953125,-6.7138671875,-11.23046875,53.52783203125,0.0,0.0,0.0,0.009461957961320877,-0.0006820742273703218,-0.9946052432060242,-0.10329785943031311
7.639466047286987,0.22709517212518213,0.9771565312962314,-169.0550366753611,0.125,-0.24853515625,1.00634765625,-3.96728515625,2.5634765625,64.697265625,0.0,0.0,0.0,0.008677303791046143,0.0011594564421102405,-0.9954056143760681,-0.09534718096256256
7.663491249084473,0.3337258176111733,0.9332333990128777,-170.50075549622102,0.10498046875,-0.2421875,1.033203125,2.13623046875,-5.06591796875,77.81982421875,0.0,0.0,0.0,0.008357042446732521,0.0022278805263340473,-0.9965307712554932,-0.08277485519647598
7.687559604644775,0.5897982540531197,0.6567962199520094,-172.2070733546736,0.01513671875,-0.1982421875,0.8486328125,-8.544921875,-13.18359375,89.66064453125,0.0,0.0,0.0,0.006068019196391106,0.004745477810502052,-0.9976609349250793,-0.06792221963405609
7.703740358352661,1.0647592569303457,0.37195470656085206,-174.63184515154148,0.13818359375,-0.2890625,1.04541015625,-7.32421875,-8.36181640625,101.6845703125,0.0,0.0,0.0,0.0036773246247321367,0.009129405952990055,-0.9988560080528259,-0.04679640755057335
7.72465443611145,1.1726881986475945,0.18264238001603506,-176.70763526295676,0.2236328125,-0.29833984375,1.0703125,3.41796875,2.685546875,107.2998046875,0.0,0.0,0.0,0.0018870927160605788,0.010183434933423996,-0.9995341300964355,-0.028709452599287033
7.7437074184417725,1.3130760135697424,0.21640927446763106,-178.37153764666354,0.162109375,-0.2236328125,0.958984375,-5.2490234375,-1.0986328125,114.19677734375,0.0,0.0,0.0,0.002051042392849922,0.011430485174059868,-0.9998319745063782,-0.014187945052981377
7.759244441986084,1.47585425580825,0.017007207718918112,179.2643389938326,0.18896484375,-0.32861328125,1.13525390625,3.2958984375,-4.21142578125,120.60546875,0.0,0.0,0.0,6.572013080585748e-05,0.012879588641226292,-0.9998964667320251,0.006421211641281843
7.783626556396484,1.4841256148931354,-0.2531378296567945,176.79418742011916,0.158203125,-0.30224609375,1.00390625,9.27734375,-14.22119140625,127.44140625,0.0,0.0,0.0,-0.0025702635757625103,0.012884191237390041,-0.9995232224464417,0.027941299602389336
7.803833723068237,1.5190111262440928,-0.38917588129470204,174.15001628673213,0.20654296875,-0.234375,0.9140625,3.23486328125,-5.4931640625,136.962890625,0.0,0.0,0.0,-0.004067875444889069,0.013064849190413952,-0.9986060857772827,0.05097885802388191
7.823828458786011,1.7544305647398015,-0.8032388908516678,171.29570755334046,0.1181640625,-0.2060546875,0.81005859375,-3.84521484375,-21.78955078125,146.240234375,0.0,0.0,0.0,-0.008150259964168072,0.014733311720192432,-0.9969832897186279,0.07576848566532135
7.839679002761841,2.1655940789528176,-1.034813146288071,167.43872704979094,0.314453125,-0.2646484375,0.98388671875,-6.53076171875,6.34765625,158.203125,0.0,0.0,0.0,-0.011041766032576561,0.01779533363878727,-0.9937986731529236,0.1092047467827797
7.863487482070923,2.319875672585535,-1.1539693181752342,165.0501415951458,0.28955078125,-0.34375,1.1171875,2.5634765625,-18.12744140625,159.3017578125,0.0,0.0,0.0,-0.012615861371159554,0.018760528415441513,-0.9912749528884888,0.12985698878765106
7.889095067977905,2.3096720102957704,-1.4375481003435855,161.80362973923366,0.3369140625,-0.37451171875,1.16845703125,18.4326171875,-15.9912109375,163.02490234375,0.0,0.0,0.0,-0.015570991672575474,0.01791595295071602,-0.9871805310249329,0.15783260762691498
7.899693250656128,2.3280117085474896,-1.6721786519901576,157.4831252778504,0.3359375,-0.1982421875,0.8955078125,0.8544921875,-0.8544921875,178.5888671875,0.0,0.0,0.0,-0.018273882567882538,0.017073018476366997,-0.9805076718330383,0.1948830634355545
7.918664455413818,2.524988174351722,-1.891649492052181,154.78918938617065,0.25244140625,-0.23388671875,0.86669921875,-3.11279296875,-21.1181640625,181.15234375,0.0,0.0,0.0,-0.020912911742925644,0.0178973488509655,-0.9756057858467102,0.2177976667881012
7.940937280654907,2.9312209323142233,-2.2291598747937758,150.03554164838187,0.2529296875,-0.27294921875,0.80859375,-7.080078125,-8.9111328125,190.91796875,0.0,0.0,0.0,-0.025395354256033897,0.019675761461257935,-0.9656359553337097,0.2579054534435272
7.9635889530181885,3.0731497019461496,-2.4434205611795488,147.14128996872398,0.36474609375,-0.3935546875,1.1123046875,9.27734375,-20.751953125,193.359375,0.0,0.0,0.0,-0.02802579291164875,0.01968616247177124,-0.9587680697441101,0.28211861848831177
7.986823797225952,3.143493393321288,-2.5382421564361315,143.1841925523204,0.48779296875,-0.3642578125,1.17724609375,8.72802734375,-2.197265625,197.1435546875,0.0,0.0,0.0,-0.02966664917767048,0.01902743987739086,-0.9484346508979797,0.31500720977783203
7.998607158660889,3.2397296915097096,-2.7622217751240097,139.15119807385966,0.35107421875,-0.31689453125,0.982421875,8.72802734375,-22.5830078125,202.880859375,0.0,0.0,0.0,-0.032440248876810074,0.01807563193142414,-0.9367246031761169,0.3480919897556305
8.018648862838745,3.501872992185034,-2.8657943368112595,134.94657460193483,0.2783203125,-0.23828125,0.73486328125,-7.26318359375,-11.53564453125,212.646484375,0.0,0.0,0.0,-0.03478977084159851,0.018638979643583298,-0.9232737421989441,0.38210973143577576
8.038684368133545,3.873654275973991,-3.2431972931739605,130.61156281875446,0.353515625,-0.375,0.94384765625,0.91552734375,-15.44189453125,216.9189453125,0.0,0.0,0.0,-0.039810024201869965,0.01887885108590126,-0.9080671668052673,0.4165005385875702
8.064026832580566,4.117832685028301,-3.1928583721041432,126.19275827483636,0.5244140625,-0.435546875,1.1630859375,9.58251953125,-8.48388671875,220.703125,0.0,0.0,0.0,-0.04107845574617386,0.019428309053182602,-0.8913002014160156,0.45113083720207214
8.084776878356934,4.218255675734529,-3.251043472983013,120.63802497005345,0.458984375,-0.3759765625,1.0224609375,14.22119140625,11.3525390625,226.9287109375,0.0,0.0,0.0,-0.042844727635383606,0.017924413084983826,-0.8683748841285706,0.493728905916214
8.104052543640137,4.264504594151978,-3.1647660174912926,117.20006291170587,0.3486328125,-0.2578125,0.796875,13.916015625,-20.69091796875,227.5390625,0.0,0.0,0.0,-0.04293127730488777,0.017367975786328316,-0.8531700968742371,0.519572913646698
8.125170707702637,4.604360719986649,-3.6179345547696524,111.31516509263372,0.5458984375,-0.2470703125,0.873046875,-2.197265625,-5.37109375,236.572265625,0.0,0.0,0.0,-0.04869338870048523,0.015357053838670254,-0.8253186941146851,0.5623542666435242
8.143816947937012,4.839042604773702,-3.4796104174722005,107.8481474095569,0.720703125,-0.32763671875,1.12890625,6.28662109375,-9.70458984375,228.69873046875,0.0,0.0,0.0,-0.04936450347304344,0.016242720186710358,-0.8078992962837219,0.5870248079299927
8.163641452789307,4.918317622262278,-3.2900126904056974,103.27927677938447,0.61669921875,-0.30810546875,1.037109375,10.7421875,7.87353515625,228.21044921875,0.0,0.0,0.0,-0.049106448888778687,0.01583147421479225,-0.7838424444198608,0.6188126802444458
8.190354585647583,5.195947736550371,-3.290715559559974,97.58707225717671,0.6025390625,-0.3583984375,0.98583984375,1.8310546875,-7.50732421875,222.65625,0.0,0.0,0.0,-0.05142810940742493,0.015191849321126938,-0.7521148324012756,0.6568468809127808
8.203927516937256,5.346533770955289,-3.149084116600355,94.28129484983639,0.5771484375,-0.29541015625,0.86865234375,5.7373046875,-5.55419921875,221.3134765625,0.0,0.0,0.0,-0.051832638680934906,0.015505821444094181,-0.7328231930732727,0.6782647371292114
8.22432017326355,5.6517920004360835,-3.1285425361149533,89.93538208474068,0.53759765625,-0.32861328125,0.87548828125,-1.15966796875,-14.892578125,211.9140625,0.0,0.0,0.0,-0.05413632467389107,0.015538358129560947,-0.706537663936615,0.7054306268692017
8.243601083755493,5.771114978349384,-3.0034954327903596,85.88492964276138,0.72412109375,-0.3837890625,1.11962890625,9.70458984375,0.06103515625,198.54736328125,0.0,0.0,0.0,-0.0546705536544323,0.015123315155506134,-0.681131899356842,0.7299602031707764
8.264800310134888,5.878964092230707,-2.511496629750243,82.05641736767247,0.599609375,-0.28759765625,0.9326171875,5.37109375,1.40380859375,187.5,0.0,0.0,0.0,-0.05304337292909622,0.017143642529845238,-0.656257152557373,0.752475380897522
8.285106897354126,6.00260033460487,-2.6281752572376895,78.50501269740015,0.60205078125,-0.30908203125,1.021484375,5.2490234375,-13.3056640625,169.49462890625,0.0,0.0,0.0,-0.055024806410074234,0.015386364422738552,-0.6326349377632141,0.7723398208618164
8.303592443466187,6.060498567538599,-2.4637186027323574,75.49214112242666,0.75244140625,-0.2421875,1.07861328125,7.2021484375,-0.91552734375,141.66259765625,0.0,0.0,0.0,-0.054933011531829834,0.015377755276858807,-0.6120644807815552,0.7887477278709412
8.323927879333496,6.1081609082274175,-2.263254471583187,72.93438554241862,0.5009765625,-0.1708984375,0.8310546875,3.96728515625,-1.0986328125,121.9482421875,0.0,0.0,0.0,-0.054559677839279175,0.01580076664686203,-0.5942486524581909,0.8022730946540833
8.344025611877441,6.105588488231262,-2.5287405095269975,70.8014608985962,0.5439453125,-0.2001953125,0.9189453125,3.173828125,-12.451171875,98.876953125,0.0,0.0,0.0,-0.056163858622312546,0.012882672250270844,-0.579286515712738,0.8130848407745361
8.363623857498169,6.077018660706744,-2.398136833869187,69.09443953065912,0.71875,-0.169921875,1.07861328125,5.859375,13.916015625,79.04052734375,0.0,0.0,0.0,-0.05550048500299454,0.012841188348829746,-0.56707763671875,0.8216920495033264
8.383806705474854,6.072352787729979,-2.11945188224115,67.39749269174779,0.505859375,-0.18212890625,0.9580078125,4.0283203125,-13.85498046875,60.48583984375,0.0,0.0,0.0,-0.05430569872260094,0.0140168322250247,-0.5547676086425781,0.830112874507904
8.403487205505371,6.019328748542701,-2.5307716370314304,66.57427731184282,0.54541015625,-0.20458984375,1.06591796875,7.87353515625,-25.32958984375,48.2177734375,0.0,0.0,0.0,-0.05598273128271103,0.01037454605102539,-0.5489137768745422,0.8339377045631409
8.423604011535645,5.840960919688757,-2.5155223859357303,65.80367487911448,0.765625,-0.1435546875,1.11328125,13.427734375,16.845703125,33.3251953125,0.0,0.0,0.0,-0.054675329476594925,0.009263803251087666,-0.5433041453361511,0.8377025127410889
8.443510293960571,5.625213599941448,-2.5801539047306226,65.30618439053826,0.458984375,-0.08935546875,0.8291015625,7.080078125,-7.26318359375,20.08056640625,0.0,0.0,0.0,-0.05343668535351753,0.007535766344517469,-0.5396947860717773,0.8401293754577637
8.466104507446289,5.6133986533377955,-2.780754426219781,65.03634410699857,0.515625,-0.0546875,0.806640625,-2.685546875,0.732421875,7.38525390625,0.0,0.0,0.0,-0.05430550128221512,0.005879450123757124,-0.5377659797668457,0.8413228392601013
8.478660345077515,5.567043440101388,-3.1234945994314907,65.14107139754238,0.607421875,-0.06103515625,1.00439453125,4.33349609375,-8.11767578125,-14.7705078125,0.0,0.0,0.0,-0.055564526468515396,0.003192444099113345,-0.5386179685592651,0.840709924697876
8.503548622131348,5.434748652293766,-3.406820237713728,65.71742325027556,0.68212890625,-0.0361328125,1.17041015625,10.498046875,-2.74658203125,-38.9404296875,0.0,0.0,0.0,-0.055916912853717804,0.0007696191896684468,-0.542903482913971,0.8379311561584473
8.523499488830566,5.131718345142864,-3.221905459096915,66.78525502511535,0.611328125,0.0224609375,0.96923828125,7.4462890625,24.5361328125,-55.5419921875,0.0,0.0,0.0,-0.05281961336731911,0.001180909457616508,-0.550654947757721,0.8330594301223755
8.543558835983276,5.115979027974216,-3.2415238968273075,68.1796518045518,0.38720703125,0.10791015625,0.7578125,-7.568359375,3.173828125,-78.18603515625,0.0,0.0,0.0,-0.05278348922729492,0.0016048133838921785,-0.5607548356056213,0.8262962102890015
8.563931226730347,4.910541878779042,-3.4633893585236546,70.0794552618125,0.47998046875,0.046875,1.14453125,7.568359375,7.9345703125,-104.248046875,0.0,0.0,0.0,-0.05239319056272507,-0.00013456953456625342,-0.5744151473045349,0.8168857097625732
8.58873176574707,4.502920031094089,-3.5791591439646666,72.34272040556627,0.18701171875,0.07470703125,1.056640625,13.3056640625,10.19287109375,-116.27197265625,0.0,0.0,0.0,-0.050114963203668594,-0.0020153545774519444,-0.590449333190918,0.8055148720741272
8.604337453842163,3.891351723000317,-3.007914565183358,75.4241192684825,-0.0927734375,0.111328125,1.0205078125,11.23046875,34.7900390625,-121.39892578125,0.0,0.0,0.0,-0.04289518669247627,9.920217053149827e-06,-0.611835241317749,0.7898213267326355
8.623539447784424,3.5491201854383623,-2.6523411068514293,77.28306453412819,-0.24169921875,0.15380859375,1.06689453125,13.36669921875,24.23095703125,-123.9013671875,0.0,0.0,0.0,-0.0386260561645031,0.0012636656174436212,-0.6245390772819519,0.7800368070602417
8.643730401992798,3.107006309331668,-2.3366538188382595,79.80066543200572,-0.318359375,0.283203125,0.9580078125,8.30078125,17.39501953125,-125.0,0.0,0.0,0.0,-0.03386801853775978,0.0017500001704320312,-0.6415090560913086,0.7663655877113342
8.663402557373047,2.7218566377897035,-2.1640617687012074,82.31424334846211,-0.34130859375,0.3203125,0.93701171875,5.615234375,8.36181640625,-124.69482421875,0.0,0.0,0.0,-0.030303172767162323,0.0014141974970698357,-0.658160924911499,0.7522658705711365
8.684916734695435,2.2749498898763645,-1.8859725376348424,85.4283588175027,-0.23876953125,0.31103515625,0.96484375,4.82177734375,10.31494140625,-124.0234375,0.0,0.0,0.0,-0.025745347142219543,0.0013745013857260346,-0.6783560514450073,0.7342808246612549
8.704833507537842,2.1919754711785804,-1.7253103733785695,87.26378091164688,-0.2861328125,0.3564453125,0.88623046875,-6.8359375,8.30078125,-124.45068359375,0.0,0.0,0.0,-0.024229437112808228,0.0023017895873636007,-0.6900265216827393,0.7233747839927673
8.718770742416382,1.959531113674941,-1.5986385388051594,89.76434048754521,-0.25732421875,0.287109375,1.0185546875,3.41796875,8.30078125,-124.6337890625,0.0,0.0,0.0,-0.02195729874074459,0.002181795658543706,-0.7056483030319214,0.7082185745239258
8.743496179580688,1.7409583367670687,-1.3858759050034406,92.20734888949704,-0.27685546875,0.33935546875,1.00341796875,-3.662109375,8.85009765625,-119.20166015625,0.0,0.0,0.0,-0.019246486946940422,0.0025622863322496414,-0.7205871343612671,0.6930924654006958
8.758732080459595,1.5814069320245692,-1.284335431315975,94.57493151244441,-0.29296875,0.3330078125,1.07421875,-0.18310546875,2.8076171875,-116.27197265625,0.0,0.0,0.0,-0.01759445294737816,0.002537401393055916,-0.7347550392150879,0.6780996322631836
8.783854722976685,1.3593078565142662,-1.1640837611189652,96.86195888432064,-0.2587890625,0.3125,1.04345703125,4.150390625,-1.03759765625,-114.44091796875,0.0,0.0,0.0,-0.015469757840037346,0.0021342914551496506,-0.7481456995010376,0.6633508205413818
8.803454875946045,1.1877137610479764,-1.1320392882976158,99.10323081894697,-0.2470703125,0.328125,1.00048828125,0.54931640625,-0.30517578125,-112.60986328125,0.0,0.0,0.0,-0.0142410509288311,0.001478339545428753,-0.7609791159629822,0.6486184000968933
8.825657606124878,0.9661265228386012,-1.1027657378451758,101.31858901586227,-0.26025390625,0.3134765625,0.98291015625,4.08935546875,-1.220703125,-108.7646484375,0.0,0.0,0.0,-0.012786682695150375,0.0004198205715510994,-0.7733781933784485,0.6338158845901489
8.843645334243774,0.7065952359122781,-1.0726581572620537,103.44717648956173,-0.26171875,0.31005859375,1.01806640625,2.44140625,-1.40380859375,-104.79736328125,0.0,0.0,0.0,-0.011167704127728939,-0.0009579280158504844,-0.7850179076194763,0.6193717122077942
8.86397123336792,0.511696481637052,-0.9813736395001854,105.44801210502526,-0.2548828125,0.326171875,1.0068359375,1.5869140625,2.38037109375,-98.32763671875,0.0,0.0,0.0,-0.00951891764998436,-0.001633681240491569,-0.7957133650779724,0.6055963635444641
8.883637189865112,0.3260398004020727,-0.8745173576477457,107.31376023908427,-0.26904296875,0.30078125,1.02978515625,3.5400390625,-1.0986328125,-89.7216796875,0.0,0.0,0.0,-0.007833128795027733,-0.0022308588959276676,-0.8054686784744263,0.5925824046134949
8.904464721679688,0.08063479209247063,-0.7620749415495877,108.96482186715146,-0.2451171875,0.27197265625,1.0,5.4931640625,-1.40380859375,-77.08740234375,0.0,0.0,0.0,-0.0058217234909534454,-0.003290783613920212,-0.8139217495918274,0.580936074256897
8.919143438339233,-0.08941526707478646,-0.7834340636621283,110.33051819169552,-0.2392578125,0.3125,0.96923828125,-2.44140625,-3.41796875,-62.92724609375,0.0,0.0,0.0,-0.005165878217667341,-0.004545652773231268,-0.8207805156707764,0.5712022185325623
8.938843250274658,-0.17845478036372966,-0.7772771817338907,111.39787868348257,-0.20703125,0.294921875,1.03515625,-0.48828125,-8.72802734375,-48.2177734375,0.0,0.0,0.0,-0.0047257342375814915,-0.0051089259795844555,-0.8260619044303894,0.5635364055633545
8.96640682220459,-0.31476614629014354,-0.7694347371845409,112.17150689001323,-0.13671875,0.27490234375,1.03125,0.6103515625,-2.3193359375,-32.3486328125,0.0,0.0,0.0,-0.004039619583636522,-0.006025856360793114,-0.8298414945602417,0.5579521059989929
8.993313312530518,-0.7301352160824627,-0.6542356460651951,112.85011350481068,-0.11328125,0.29638671875,0.97705078125,4.8828125,-1.03759765625,-10.25390625,0.0,0.0,0.0,-0.0012330374447628856,-0.00846579484641552,-0.8331125378608704,0.5530372858047485
9.004348993301392,-0.7837365663371658,-0.641985808510483,112.89765845162314,-0.1103515625,0.306640625,0.98095703125,2.685546875,-0.9765625,-9.521484375,0.0,0.0,0.0,-0.0008889344171620905,-0.008796009235084057,-0.8333387970924377,0.5526917576789856
9.024195671081543,-0.9377435650209075,-0.5780559315702513,113.0237642342691,-0.1025390625,0.349609375,1.0146484375,-1.3427734375,0.18310546875,-5.126953125,0.0,0.0,0.0,0.0003082282782997936,-0.009608021937310696,-0.8339389562606812,0.5517730712890625
9.044525623321533,-1.1724909769353105,-0.5391515475838289,113.14816246962253,-0.0947265625,0.33447265625,1.072265625,1.77001953125,-1.708984375,-4.45556640625,0.0,0.0,0.0,0.0017096195369958878,-0.011130934581160545,-0.8345193266868591,0.5508635640144348
9.064622402191162,-1.3012756878397818,-0.5027643551108206,113.23182545676602,-0.060546875,0.33154296875,1.0048828125,0.18310546875,1.03759765625,-4.7607421875,0.0,0.0,0.0,0.00258503295481205,-0.011895806528627872,-0.8349114656448364,0.5502496957778931
9.084391117095947,-1.4410100457574297,-0.49254399087410144,113.30905440571135,-0.05712890625,0.3193359375,0.953125,-1.5869140625,-0.18310546875,-2.9296875,0.0,0.0,0.0,0.0033218106254935265,-0.012867073528468609,-0.8352679014205933,0.5496825575828552
9.108941555023193,-1.6027068769512538,-0.46911756259886844,113.35799271111449,-0.0400390625,0.29052734375,1.0146484375,2.0751953125,-2.0751953125,-2.13623046875,0.0,0.0,0.0,0.004262264352291822,-0.013935152441263199,-0.8354858756065369,0.5493186712265015
9.124387979507446,-1.904048206386458,-0.47948984518376747,113.42197109307,-0.02001953125,0.2841796875,0.99365234375,1.220703125,-2.86865234375,-3.35693359375,0.0,0.0,0.0,0.005622129421681166,-0.016185026615858078,-0.8357517719268799,0.5488402247428894
9.143925905227661,-2.0783793934409247,-0.4389958413897304,113.47280819106241,-0.04296875,0.2626953125,0.99755859375,-1.03759765625,1.89208984375,-2.197265625,0.0,0.0,0.0,0.006744782906025648,-0.017265554517507553,-0.8359742760658264,0.548455536365509
9.161089897155762,-2.21010087224509,-0.41369393921794706,113.50649468404892,-0.05615234375,0.236328125,1.0244140625,0.9765625,-2.5634765625,-2.0751953125,0.0,0.0,0.0,0.007554494775831699,-0.018107634037733078,-0.8361181020736694,0.5481985807418823
9.178648471832275,-2.411344071846465,-0.3901889637672589,113.53375396902644,-0.04931640625,0.20458984375,0.9931640625,1.15966796875,-1.8310546875,-0.8544921875,0.0,0.0,0.0,0.008684099651873112,-0.019465627148747444,-0.8362183570861816,0.5479822754859924
9.203582286834717,-2.487160665737487,-0.30721441166734237,113.55415574407726,-0.02001953125,0.09033203125,0.92138671875,-7.8125,1.77001953125,-0.9765625,0.0,0.0,0.0,0.009648705832660198,-0.019623903557658195,-0.8363133072853088,0.5478155612945557
9.225271940231323,-2.220717334092817,-0.21093204972266263,113.57747400990368,-0.0517578125,-0.09033203125,1.00732421875,-10.8642578125,1.77001953125,1.40380859375,0.0,0.0,0.0,0.009074192494153976,-0.01722090132534504,-0.836478590965271,0.54765385389328
9.24418020248413,-1.7993189948519484,-0.160929835634586,113.5734851794284,-0.0302734375,-0.1474609375,1.1025390625,-2.50244140625,1.89208984375,2.0751953125,0.0,0.0,0.0,0.007425717078149319,-0.013905510306358337,-0.836521565914154,0.547707200050354
9.263842105865479,-1.6299917751381623,-0.16432550686914016,113.53960744114514,-0.064453125,-0.13525390625,1.03466796875,-2.0751953125,-2.38037109375,4.39453125,0.0,0.0,0.0,0.006595344748347998,-0.012683681212365627,-0.8363789916038513,0.5479652285575867
9.283975839614868,-1.3038171585412612,-0.15860224857170582,113.45009098188295,-0.01806640625,-0.11865234375,0.93505859375,-6.53076171875,-0.06103515625,5.126953125,0.0,0.0,0.0,0.005085388198494911,-0.010271617211401463,-0.8359837532043457,0.5486347079277039
9.30389142036438,-1.0211804088698428,-0.11304073800140851,113.37657082565693,-0.04052734375,-0.166015625,0.93408203125,-6.4697265625,-3.173828125,4.39453125,0.0,0.0,0.0,0.004069709684699774,-0.007988916710019112,-0.8356567025184631,0.5491790771484375
9.31882095336914,-0.7694080033972426,-0.11636966814920958,113.30056448057303,-0.04052734375,-0.1123046875,1.07763671875,-3.7841796875,2.5634765625,6.77490234375,0.0,0.0,0.0,0.002842898014932871,-0.006166923325508833,-0.8353076577186584,0.5497410297393799
9.339008808135986,-0.6347355093456616,-0.15327115252237863,113.25420115648699,-0.00439453125,-0.11572265625,1.0927734375,8.36181640625,-5.4931640625,0.67138671875,0.0,0.0,0.0,0.0019299930427223444,-0.005361481569707394,-0.8350905179977417,0.5500831007957458
9.36336898803711,-0.4729410277910475,-0.07112104560994366,113.16469835760313,-0.02783203125,-0.111328125,0.93017578125,-1.5869140625,3.11279296875,4.21142578125,0.0,0.0,0.0,0.0017549553886055946,-0.0037866756319999695,-0.8346695899963379,0.5507352948188782
9.38360333442688,-0.20430970107465926,-0.04963972380923002,113.11036420275568,-0.02001953125,-0.12646484375,0.96337890625,-4.5166015625,3.173828125,4.638671875,0.0,0.0,0.0,0.0006211776053532958,-0.0017264573834836483,-0.8344151973724365,0.551133394241333
9.403854370117188,0.020298816952702088,-0.014289032553091045,113.02983627244123,-0.04541015625,-0.13232421875,1.0341796875,0.0,0.54931640625,5.615234375,0.0,0.0,0.0,-0.0002017315709963441,7.894359441706911e-05,-0.834029495716095,0.5517198443412781
9.423597812652588,0.16588479103188647,0.04480964614790708,112.9147749056832,-0.05224609375,-0.10205078125,1.01708984375,1.40380859375,-0.244140625,6.9580078125,0.0,0.0,0.0,-0.00047397110029123724,0.0014226234052330256,-0.8334738612174988,0.5525569319725037
9.443709135055542,0.44265146001914174,0.09382017213038273,112.76380040426923,-0.03955078125,-0.0966796875,0.94775390625,-2.3193359375,-1.46484375,5.9814453125,0.0,0.0,0.0,-0.0014568920014426112,0.0036700693890452385,-0.8327381610870361,0.5536529421806335
9.46404242515564,0.6464319948558969,0.1369447325698003,112.66490609527662,-0.02294921875,-0.1005859375,0.9501953125,-2.9296875,-1.03759765625,6.2255859375,0.0,0.0,0.0,-0.0021327000577002764,0.005357452668249607,-0.832250714302063,0.5543694496154785
9.483901739120483,0.8797521106771787,0.12828433284670182,112.54673699244623,-0.0380859375,-0.1025390625,0.9833984375,-3.11279296875,-0.79345703125,6.77490234375,0.0,0.0,0.0,-0.0033315729815512896,0.0070066605694592,-0.8316663503646851,0.555221438407898
9.504723310470581,1.088924252770439,0.13182475873493527,112.43482434289557,-0.029296875,-0.06884765625,0.984375,-1.03759765625,-5.4931640625,5.126953125,0.0,0.0,0.0,-0.004327697679400444,0.008537678979337215,-0.831109344959259,0.5560266375541687
9.523741245269775,1.3120671732849905,0.12274152761353069,112.32204425932032,0.0068359375,-0.05615234375,1.0380859375,-0.30517578125,-2.685546875,3.72314453125,0.0,0.0,0.0,-0.00548626109957695,0.010106606408953667,-0.830544114112854,0.5568341016769409
9.544018507003784,1.55164662387206,0.07801049200709156,112.2207798746857,-0.0068359375,-0.03515625,1.0029296875,-2.685546875,-4.2724609375,4.150390625,0.0,0.0,0.0,-0.006984907668083906,0.011619504541158676,-0.8300319910049438,0.5575510263442993
9.563941478729248,1.6581692936722268,0.29023098621354704,112.06886963735546,-0.03369140625,-0.0244140625,1.01904296875,-1.89208984375,-3.35693359375,5.7373046875,0.0,0.0,0.0,-0.005983777344226837,0.013415668159723282,-0.8292635679244995,0.5586647391319275
9.583904504776001,1.6717481366290352,0.43707415699457675,111.95925193136593,-0.0234375,-0.0380859375,1.08544921875,3.84521484375,-0.54931640625,7.2021484375,0.0,0.0,0.0,-0.005000874400138855,0.014224967919290066,-0.8287132978439331,0.5594701766967773
9.599332094192505,1.4619477772146923,0.583248796330165,111.80670648644286,-0.0322265625,-0.00537109375,0.9931640625,3.173828125,-1.953125,7.32421875,0.0,0.0,0.0,-0.002937199780717492,0.013417359441518784,-0.8279786109924316,0.5605913996696472
9.624280214309692,1.311707414414801,0.6261579656868892,111.65034979596292,-0.06982421875,0.03857421875,0.9521484375,-2.5634765625,-7.6904296875,7.38525390625,0.0,0.0,0.0,-0.001909250277094543,0.012539075687527657,-0.8272258043289185,0.5617265105247498
9.64359712600708,1.17088556231524,0.6707144912940558,111.49464880364332,-0.00537109375,0.02294921875,1.068359375,-0.79345703125,1.46484375,7.26318359375,0.0,0.0,0.0,-0.0009132150444202125,0.011739635840058327,-0.8264725208282471,0.5628540515899658
9.663499355316162,0.9593204527740952,0.5999712872133247,111.36683547370487,-0.01025390625,0.017578125,1.07373046875,1.953125,-1.708984375,6.103515625,0.0,0.0,0.0,-0.00039531695074401796,0.009865873493254185,-0.8258702158927917,0.5637739300727844
9.684494256973267,0.7627505433080372,0.5045620822447091,111.1871195362635,-0.0166015625,0.01171875,0.912109375,-5.31005859375,-7.01904296875,8.9111328125,0.0,0.0,0.0,-0.00012840252020396292,0.007979619316756725,-0.8250071406364441,0.5650659203529358
9.706022024154663,0.970890686506391,0.3968741448195411,110.99707635279705,0.0107421875,-0.056640625,0.95849609375,-2.38037109375,-4.39453125,14.95361328125,0.0,0.0,0.0,-0.0019449330866336823,0.00894393865019083,-0.8240606188774109,0.5664277672767639
