time,imu.ypr.x,imu.ypr.y,imu.ypr.z,imu.linear_acceleration.x,imu.linear_acceleration.y,imu.linear_acceleration.z,imu.angular_velocity.x,imu.angular_velocity.y,imu.angular_velocity.z,imu.compass.x,imu.compass.y,imu.compass.z,imu.orientation.x,imu.orientation.y,imu.orientation.z,imu.orientation.w
0.20287156105041504,-1.1941677562051094,2.4939315176390857,89.60773791025517,-0.0439453125,0.02099609375,1.001953125,-0.244140625,-0.244140625,0.06103515625,0.0,0.0,0.0,-0.022726530209183693,-0.008098085410892963,0.704637885093689,-0.7091568112373352
0.22278189659118652,-1.3075774978444705,2.4865369840889007,89.60725979701327,-0.04345703125,0.0234375,1.00390625,0.244140625,-0.1220703125,0.0,0.0,0.0,0.0,-0.02338288351893425,-0.007355026435106993,0.7046430706977844,-0.7091384530067444
0.2426164150238037,-1.3075555131730796,2.472717803850672,89.60992357078958,-0.04345703125,0.02294921875,1.00439453125,-0.18310546875,-0.91552734375,-0.18310546875,0.0,0.0,0.0,-0.023297980427742004,-0.007269059773534536,0.7046604156494141,-0.7091249227523804
0.26250195503234863,-1.1855608640772473,2.4089110303980594,89.61760753360583,-0.0419921875,0.02001953125,1.0029296875,-0.18310546875,-1.3427734375,-0.244140625,0.0,0.0,0.0,-0.02215135097503662,-0.0076227085664868355,0.7047041058540344,-0.7091145515441895
0.2835981845855713,-1.2671870674658945,2.4403320350142335,89.61637809955523,-0.04296875,0.02294921875,1.00390625,0.06103515625,-0.6103515625,-0.244140625,0.0,0.0,0.0,-0.02284952811896801,-0.0073155006393790245,0.7046998143196106,-0.7090997695922852
0.3105745315551758,-1.175319529025342,2.3898584311517204,89.62651410028353,-0.0419921875,0.02099609375,1.00341796875,0.0,-1.28173828125,-0.30517578125,0.0,0.0,0.0,-0.0219714492559433,-0.007566030137240887,0.7047597765922546,-0.709065318107605
0.3224375247955322,-1.242576615225869,2.359682228511781,89.62505926999032,-0.04150390625,0.02197265625,1.00341796875,-0.30517578125,-0.48828125,0.0,0.0,0.0,0.0,-0.02220202051103115,-0.006965863052755594,0.7047569155693054,-0.709067165851593
0.34258317947387695,-1.249176712398217,2.4045473932920673,89.62861096835873,-0.04248046875,0.0224609375,1.00341796875,0.06103515625,-0.91552734375,-0.18310546875,0.0,0.0,0.0,-0.022518882527947426,-0.00720231281593442,0.7047765851020813,-0.709035336971283
0.36246204376220703,-1.2514480704623636,2.411580780589888,89.63028436470537,-0.04248046875,0.021484375,1.00390625,0.244140625,-0.9765625,-0.244140625,0.0,0.0,0.0,-0.022576279938220978,-0.007231550756841898,0.7047866582870483,-0.7090231776237488
0.3823566436767578,-1.1619217928032446,2.5605209528482438,89.6367935349844,-0.044921875,0.0205078125,1.00390625,-0.30517578125,-1.46484375,-0.30517578125,0.0,0.0,0.0,-0.022938460111618042,-0.008702829480171204,0.7048105001449585,-0.7089712619781494
0.4025442600250244,-1.2458697269011674,2.5254073772120313,89.63432783669403,-0.0439453125,0.021484375,1.00146484375,-0.42724609375,-0.8544921875,-0.244140625,0.0,0.0,0.0,-0.023241795599460602,-0.007969648577272892,0.7048038840293884,-0.7089765071868896
0.42251110076904297,-1.272718453476547,2.4564440243794707,89.63651349722844,-0.04345703125,0.02197265625,1.0029296875,0.06103515625,0.06103515625,-0.06103515625,0.0,0.0,0.0,-0.022984087467193604,-0.007377194706350565,0.7048237323760986,-0.7089716792106628
0.4404144287109375,-1.3061229877163751,2.4701784675833083,89.63880161060038,-0.04296875,0.0224609375,1.00439453125,-0.1220703125,-0.06103515625,-0.06103515625,0.0,0.0,0.0,-0.023275338113307953,-0.00725628063082695,0.7048391699790955,-0.7089480757713318
0.46257996559143066,-1.1794828494895822,2.4861049746238972,89.64679976211846,-0.0439453125,0.0205078125,1.00390625,-0.18310546875,-1.220703125,-0.18310546875,0.0,0.0,0.0,-0.02259032055735588,-0.008132227696478367,0.704879105091095,-0.708920955657959
0.4776039123535156,-1.145371177227246,2.509321854829828,89.65048806427028,-0.0439453125,0.02001953125,1.00341796875,-0.1220703125,-1.0986328125,-0.30517578125,0.0,0.0,0.0,-0.02252230793237686,-0.008485025726258755,0.7048977613449097,-0.708900511264801
0.5009481906890869,-1.1765941063574898,2.3852772952093457,89.65010557367675,-0.04150390625,0.0205078125,1.0029296875,0.18310546875,-0.18310546875,-0.1220703125,0.0,0.0,0.0,-0.021952718496322632,-0.0075253150425851345,0.7049061059951782,-0.7089210152626038
0.5229651927947998,-1.2500173592746575,2.4451562830023783,89.65034463029771,-0.04296875,0.02197265625,1.00390625,-0.244140625,-0.18310546875,0.0,0.0,0.0,0.0,-0.022775137796998024,-0.007444204296916723,0.704908549785614,-0.7088934779167175
0.542360782623291,-1.1502018285177373,2.4860876857075604,89.65844523465334,-0.04345703125,0.0205078125,1.001953125,-0.244140625,-0.8544921875,-0.06103515625,0.0,0.0,0.0,-0.02240990847349167,-0.008309957571327686,0.7049490213394165,-0.7088552117347717
0.5623946189880371,-1.2095451800694528,2.431777436522204,89.65876625354433,-0.04296875,0.02099609375,1.00390625,0.1220703125,-0.9765625,-0.18310546875,0.0,0.0,0.0,-0.02244306169450283,-0.007608715910464525,0.7049588561058044,-0.7088522911071777
0.5821871757507324,-1.3089168552520278,2.4451389940860415,89.65683331000922,-0.04296875,0.02294921875,1.00439453125,0.06103515625,-0.732421875,-0.18310546875,0.0,0.0,0.0,-0.023139795288443565,-0.007080467417836189,0.7049524188041687,-0.7088418006896973
0.6030428409576416,-1.2518006789782656,2.499061416592588,89.66337663123409,-0.04345703125,0.02197265625,1.00244140625,-0.48828125,-0.3662109375,-0.1220703125,0.0,0.0,0.0,-0.02311849407851696,-0.007764228619635105,0.7049857974052429,-0.7088020443916321
0.6224198341369629,-1.2642394139522108,2.468906558293805,89.66780259381626,-0.04345703125,0.02197265625,1.00341796875,-0.244140625,-0.3662109375,0.0,0.0,0.0,0.0,-0.023010293021798134,-0.007500206120312214,0.7050159573554993,-0.708778440952301
0.6433618068695068,-1.1942072432362487,2.514732004982713,89.67480353771552,-0.0439453125,0.02099609375,1.00439453125,0.1220703125,-0.6103515625,-0.1220703125,0.0,0.0,0.0,-0.02285942994058132,-0.00821324810385704,0.7050513625144958,-0.7087401747703552
0.6624631881713867,-1.1518958221536064,2.549306849448141,89.67936610408108,-0.044921875,0.02001953125,1.00439453125,0.06103515625,-0.9765625,-0.244140625,0.0,0.0,0.0,-0.022810714319348335,-0.008686610497534275,0.7050739526748657,-0.7087136507034302
0.6817419528961182,-1.2511527715024664,2.413055034233553,89.67578025476683,-0.0419921875,0.0224609375,1.001953125,-0.30517578125,-0.9765625,-0.06103515625,0.0,0.0,0.0,-0.022586390376091003,-0.00723352562636137,0.7050679922103882,-0.7087430357933044
0.7027344703674316,-1.237727287636866,2.4072203451350696,89.67893580216338,-0.04296875,0.021484375,1.0029296875,-0.244140625,-0.244140625,0.0,0.0,0.0,0.0,-0.02246767096221447,-0.007279410492628813,0.7050870060920715,-0.7087274193763733
0.7186079025268555,-1.186200660703407,2.546053544969099,89.68541082149655,-0.04443359375,0.0205078125,1.00244140625,0.30517578125,-0.18310546875,-0.06103515625,0.0,0.0,0.0,-0.023003315553069115,-0.00845419242978096,0.7051141262054443,-0.7086702585220337
0.7423124313354492,-1.212389953858763,2.5913744114330726,89.68777406694937,-0.044921875,0.0205078125,1.00244140625,-0.18310546875,-0.91552734375,-0.244140625,0.0,0.0,0.0,-0.023444192484021187,-0.008572963997721672,0.7051273584365845,-0.7086412310600281
0.7623350620269775,-1.2744692230598915,2.385813678502603,89.68852538775808,-0.04248046875,0.02197265625,1.00439453125,-0.30517578125,-1.28173828125,-0.3662109375,0.0,0.0,0.0,-0.022563835605978966,-0.006918990984559059,0.7051498889923096,-0.7086654305458069
0.7989840507507324,-1.2648163514936652,2.345665826561268,89.69569708638659,-0.04150390625,0.0224609375,1.00341796875,0.42724609375,-0.8544921875,-0.244140625,0.0,0.0,0.0,-0.022257620468735695,-0.006728596519678831,0.7051960229873657,-0.7086310386657715
0.8016643524169922,-1.2611640145567067,2.3639547252810353,89.69682406759964,-0.04150390625,0.0224609375,1.0048828125,-0.1220703125,0.1220703125,-0.1220703125,0.0,0.0,0.0,-0.022347599267959595,-0.006864003371447325,0.7052016854286194,-0.7086213231086731
0.8223516941070557,-1.126839593348532,2.4752255504931244,89.7066732003828,-0.0439453125,0.01953125,1.00341796875,-0.18310546875,-0.6103515625,-0.06103515625,0.0,0.0,0.0,-0.022202124819159508,-0.008377114310860634,0.7052463889122009,-0.7085651755332947
0.8509378433227539,-1.2237211309701084,2.3894185242804893,89.70549840784555,-0.0419921875,0.021484375,1.0048828125,0.18310546875,-0.54931640625,0.0,0.0,0.0,0.0,-0.022273242473602295,-0.0072502754628658295,0.7052515149116516,-0.708570122718811
0.8636772632598877,-1.1695221925238821,2.511716049577329,89.71178901207114,-0.0439453125,0.0205078125,1.00341796875,0.18310546875,-0.9765625,-0.18310546875,0.0,0.0,0.0,-0.022690899670124054,-0.008339143358170986,0.7052785158157349,-0.7085180282592773
0.8773689270019531,-1.1153247481815367,2.555999154174284,89.71406346506475,-0.044921875,0.02001953125,1.00390625,-0.1220703125,-1.15966796875,-0.18310546875,0.0,0.0,0.0,-0.022628402337431908,-0.008946184068918228,0.7052851915359497,-0.7085059881210327
0.903090238571167,-1.2238007453626214,2.481888400028472,89.71108550258663,-0.04345703125,0.021484375,1.00244140625,-0.3662109375,-0.6103515625,-0.1220703125,0.0,0.0,0.0,-0.022842954844236374,-0.007820707745850086,0.705280065536499,-0.7085176110267639
0.9229679107666016,-1.1559985246889626,2.343610579951329,89.71850308802526,-0.04150390625,0.0205078125,1.00341796875,0.0,-0.06103515625,0.0,0.0,0.0,0.0,-0.021573510020971298,-0.007381248287856579,0.705330491065979,-0.7085118293762207
0.9377362728118896,-1.1942940079830489,2.4385271575260576,89.72060678628962,-0.04296875,0.02099609375,1.00341796875,0.1220703125,-0.3662109375,-0.06103515625,0.0,0.0,0.0,-0.02239440195262432,-0.0077322255820035934,0.7053398489952087,-0.7084733247756958
0.962261438369751,-1.2708555193804258,2.398052950608443,89.71932954091483,-0.04248046875,0.02197265625,1.0029296875,-0.1220703125,-1.15966796875,-0.18310546875,0.0,0.0,0.0,-0.022618655115365982,-0.007010872941464186,0.7053394317626953,-0.7084740996360779
0.9821872711181641,-1.2166383315225109,2.4453221285331628,89.72322957893091,-0.04296875,0.021484375,1.0029296875,-0.1220703125,-1.03759765625,-0.1220703125,0.0,0.0,0.0,-0.02257452718913555,-0.007636203430593014,0.7053570747375488,-0.708451509475708
1.0025455951690674,-1.3016184779587519,2.371961201092171,89.7232773902551,-0.04150390625,0.02294921875,1.00341796875,0.0,-0.18310546875,-0.1220703125,0.0,0.0,0.0,-0.02264855057001114,-0.006659350357949734,0.7053672075271606,-0.7084490060806274
1.0222995281219482,-1.2561794705664784,2.4515390947817552,89.72856395667269,-0.04345703125,0.02197265625,1.00341796875,-0.244140625,-0.3662109375,-0.06103515625,0.0,0.0,0.0,-0.022857582196593285,-0.007430203724652529,0.7053922414779663,-0.7084096074104309
1.0498626232147217,-1.217302887584412,2.373888168211761,89.73495701373582,-0.0419921875,0.02099609375,1.00390625,-0.3662109375,-0.9765625,-0.30517578125,0.0,0.0,0.0,-0.022139864042401314,-0.007188012823462486,0.7054342031478882,-0.7083930969238281
1.0621395111083984,-1.2533579621090285,2.5038722176458044,89.736691881785,-0.0439453125,0.02197265625,1.00439453125,0.18310546875,-1.15966796875,-0.30517578125,0.0,0.0,0.0,-0.023162687197327614,-0.007769601885229349,0.7054389119148254,-0.7083494663238525
1.08247971534729,-1.186361810479137,2.5208644476403266,89.74330350490158,-0.0439453125,0.0205078125,1.001953125,0.1220703125,-0.48828125,-0.18310546875,0.0,0.0,0.0,-0.022853577509522438,-0.008285805583000183,0.7054738998413086,-0.7083189487457275
1.1029043197631836,-1.1843419954755172,2.519158181008293,89.74500422200491,-0.04443359375,0.021484375,1.001953125,-0.48828125,-0.244140625,-0.06103515625,0.0,0.0,0.0,-0.022830719128251076,-0.008287349715828896,0.7054843902587891,-0.7083091139793396
1.1222920417785645,-1.231559306651227,2.506176766160449,89.7476270146462,-0.0439453125,0.021484375,1.00390625,-0.244140625,-0.54931640625,-0.18310546875,0.0,0.0,0.0,-0.023042870685458183,-0.007915851660072803,0.705504834651947,-0.7082862257957458
1.1425116062164307,-1.1758028716308262,2.5399983688264713,89.75345999619739,-0.04443359375,0.0205078125,1.00341796875,0.244140625,-0.79345703125,-0.18310546875,0.0,0.0,0.0,-0.022906802594661713,-0.008467108011245728,0.7055345177650452,-0.7082547545433044
1.1625697612762451,-1.2191366866548548,2.560412096708347,89.7538902981151,-0.044921875,0.02099609375,1.00244140625,0.0,-0.9765625,-0.244140625,0.0,0.0,0.0,-0.02330029383301735,-0.008326442912220955,0.7055388689041138,-0.7082391381263733
1.183408260345459,-1.2702687634420395,2.4630298208432437,89.7542318075736,-0.04345703125,0.0224609375,1.00341796875,-0.3662109375,-0.732421875,-0.1220703125,0.0,0.0,0.0,-0.023017041385173798,-0.007409385405480862,0.7055510878562927,-0.7082464694976807
1.2032201290130615,-1.3456864315968509,2.3836702797636886,89.75390395849344,-0.0419921875,0.0234375,1.00439453125,-0.18310546875,-0.1220703125,-0.06103515625,0.0,0.0,0.0,-0.022994760423898697,-0.006454369518905878,0.7055583596229553,-0.7082493305206299
1.2223923206329346,-1.173485409789782,2.407532185959363,89.76509180835392,-0.04248046875,0.0205078125,1.005859375,0.18310546875,-0.3662109375,0.0,0.0,0.0,0.0,-0.022078024223446846,-0.007660025265067816,0.7056154608726501,-0.7082096338272095
1.2377283573150635,-1.1463727604360048,2.415668862251552,89.76828150669631,-0.0419921875,0.0205078125,1.0029296875,0.0,-1.0986328125,-0.18310546875,0.0,0.0,0.0,-0.02196076326072216,-0.00787667091935873,0.7056328058242798,-0.7081935405731201
1.2625465393066406,-1.2859568541919126,2.429917490633845,89.76417656300514,-0.04296875,0.02197265625,1.00390625,-0.244140625,-1.28173828125,-0.30517578125,0.0,0.0,0.0,-0.022910842671990395,-0.007106052245944738,0.7056156396865845,-0.7081887125968933
1.2823574542999268,-1.305916481215688,2.4753147698391578,89.76650565751211,-0.04345703125,0.02294921875,0.99951171875,0.06103515625,-0.30517578125,-0.18310546875,0.0,0.0,0.0,-0.023313743993639946,-0.007263369858264923,0.7056284546852112,-0.7081612944602966
1.302245855331421,-1.3938712817571752,2.4950708785700084,89.76389652524917,-0.04345703125,0.02392578125,1.00390625,-0.06103515625,-0.30517578125,-0.06103515625,0.0,0.0,0.0,-0.02397872507572174,-0.006844456773251295,0.7056165337562561,-0.7081549763679504
1.3226490020751953,-1.233363116922345,2.5087440635147273,89.77251622398173,-0.0439453125,0.02197265625,1.00244140625,-0.42724609375,-0.244140625,0.1220703125,0.0,0.0,0.0,-0.023071538656949997,-0.007915611378848553,0.7056586146354675,-0.7081320881843567
1.3428096771240234,-1.1695865457124683,2.4613045577475807,89.77942154523261,-0.04296875,0.0205078125,1.0029296875,0.0,-0.54931640625,0.0,0.0,0.0,0.0,-0.02238589897751808,-0.008013704791665077,0.7057000994682312,-0.7081116437911987
1.3622007369995117,-1.2035942710333734,2.386189552350366,89.78129984725436,-0.0419921875,0.02099609375,1.0029296875,0.30517578125,-0.9765625,-0.244140625,0.0,0.0,0.0,-0.022133784368634224,-0.00733953295275569,0.705718994140625,-0.7081080079078674
1.3824822902679443,-1.2669853634419674,2.4628654694163403,89.780562186824,-0.04345703125,0.0224609375,1.00341796875,-0.244140625,-0.9765625,-0.18310546875,0.0,0.0,0.0,-0.022997446358203888,-0.007423300761729479,0.7057136297225952,-0.7080848813056946
1.3977625370025635,-1.2666136517407307,2.4618159681616856,89.78307569643856,-0.04345703125,0.0224609375,1.00390625,-0.3662109375,-0.48828125,-0.18310546875,0.0,0.0,0.0,-0.02298884652554989,-0.007418598514050245,0.7057291865348816,-0.708069920539856
1.4229497909545898,-1.167987427673039,2.436323354301671,89.7916339234686,-0.04296875,0.02001953125,1.005859375,0.06103515625,0.06103515625,-0.06103515625,0.0,0.0,0.0,-0.022223079577088356,-0.007866746746003628,0.7057771682739258,-0.7080416083335876
1.4424190521240234,-1.3112310087201928,2.476312190901391,89.79098505549744,-0.04345703125,0.02294921875,1.00390625,0.18310546875,-0.48828125,-0.18310546875,0.0,0.0,0.0,-0.02335427515208721,-0.007231817580759525,0.705780029296875,-0.7080090641975403
1.463989496231079,-1.2746386971286725,2.4727073451235055,89.79447528216332,-0.04345703125,0.0224609375,1.00390625,-0.244140625,-1.3427734375,-0.18310546875,0.0,0.0,0.0,-0.023106219246983528,-0.007434207014739513,0.7057994604110718,-0.7079958319664001
1.4838557243347168,-1.2356970139060794,2.481096951858397,89.79845728244943,-0.04345703125,0.021484375,1.00341796875,-0.1220703125,-0.91552734375,-0.18310546875,0.0,0.0,0.0,-0.02291753515601158,-0.007725121453404427,0.7058209180831909,-0.7079774737358093
1.5036125183105469,-1.1707393535783195,2.4946072794800935,89.80429709418979,-0.0439453125,0.0205078125,1.005859375,0.06103515625,-0.1220703125,0.06103515625,0.0,0.0,0.0,-0.022599807009100914,-0.00820758007466793,0.7058515548706055,-0.7079516053199768
1.522392988204956,-1.2523958659314087,2.589689916029018,89.80260320727562,-0.04541015625,0.02197265625,1.001953125,0.06103515625,-0.48828125,0.0,0.0,0.0,0.0,-0.023689555004239082,-0.008292634971439838,0.7058401703834534,-0.7079262733459473
1.5433788299560547,-1.210318485549545,2.4083157367232104,89.80763022650476,-0.041015625,0.0205078125,1.00341796875,-0.18310546875,-1.15966796875,-0.244140625,0.0,0.0,0.0,-0.022313246503472328,-0.007429782301187515,0.7058807015419006,-0.7079403400421143
1.562328815460205,-1.150829031982615,2.396353727608991,89.81414622697295,-0.04296875,0.01953125,1.0029296875,0.0,-1.0986328125,-0.3662109375,0.0,0.0,0.0,-0.0218725074082613,-0.00772105623036623,0.7059177756309509,-0.707913875579834
1.5842316150665283,-1.2245815213621185,2.468593650252454,89.81461751002568,-0.04296875,0.021484375,1.00390625,0.18310546875,-0.42724609375,-0.18310546875,0.0,0.0,0.0,-0.022772973403334618,-0.007713090628385544,0.7059208750724792,-0.7078825831413269
1.6037418842315674,-1.3026598683637671,2.3975287335896445,89.81403011375706,-0.0419921875,0.02294921875,1.0029296875,-0.30517578125,-0.244140625,-0.06103515625,0.0,0.0,0.0,-0.02281768061220646,-0.00679301330819726,0.7059265971183777,-0.7078849077224731
1.6240477561950684,-1.3215578278584288,2.513116665244005,89.81832630274499,-0.0439453125,0.0234375,1.00244140625,-0.18310546875,-0.30517578125,-0.1220703125,0.0,0.0,0.0,-0.023646408692002296,-0.007390085142105818,0.70594722032547,-0.7078311443328857
1.6423542499542236,-1.3191525340535266,2.493240174429033,89.82241758605784,-0.04345703125,0.02294921875,1.0009765625,0.244140625,-1.03759765625,-0.244140625,0.0,0.0,0.0,-0.023509426042437553,-0.007281222380697727,0.7059736251831055,-0.7078104019165039
1.6589775085449219,-1.2903248668878415,2.494625208726665,89.82612637877715,-0.0439453125,0.02197265625,1.00244140625,0.06103515625,-0.9765625,-0.18310546875,0.0,0.0,0.0,-0.0233401320874691,-0.00746662775054574,0.7059946060180664,-0.707793116569519
1.6825025081634521,-1.2215325889496482,2.5336403164828356,89.83099630365537,-0.04443359375,0.021484375,1.00390625,-0.54931640625,-0.54931640625,-0.18310546875,0.0,0.0,0.0,-0.0231558196246624,-0.008130568079650402,0.7060173749923706,-0.7077692747116089
1.7019805908203125,-1.2791311473335427,2.393177262758112,89.83249894527277,-0.0419921875,0.0224609375,1.00390625,-0.06103515625,-0.244140625,-0.1220703125,0.0,0.0,0.0,-0.022646654397249222,-0.006907414644956589,0.706039547920227,-0.7077765464782715
1.7225463390350342,-1.2593051358854055,2.457308897083123,89.83831143625646,-0.04296875,0.02197265625,1.00390625,0.244140625,-0.42724609375,-0.1220703125,0.0,0.0,0.0,-0.02291952818632126,-0.007424699142575264,0.7060702443122864,-0.7077318429946899
1.7423579692840576,-1.1462081955656898,2.445350729950312,89.84557875753335,-0.04296875,0.02001953125,1.00439453125,0.0,-1.15966796875,-0.18310546875,0.0,0.0,0.0,-0.022147875279188156,-0.008046263828873634,0.7061082720756531,-0.7077117562294006
1.7625012397766113,-1.2254266505502018,2.459429884263824,89.84516894618315,-0.04296875,0.021484375,1.00244140625,0.0,-1.3427734375,-0.244140625,0.0,0.0,0.0,-0.022723807021975517,-0.007645191624760628,0.7061102390289307,-0.7076960206031799
1.7825965881347656,-1.1827079794382975,2.561699373923483,89.84978615406207,-0.044921875,0.02099609375,1.0029296875,0.30517578125,-0.732421875,-0.18310546875,0.0,0.0,0.0,-0.023090217262506485,-0.008539373986423016,0.7061285376548767,-0.707655668258667
1.8023724555969238,-1.3466394564294792,2.474810403057635,89.84497087069722,-0.04296875,0.02392578125,1.001953125,-0.06103515625,-0.1220703125,-0.1220703125,0.0,0.0,0.0,-0.02356709912419319,-0.006993347313255072,0.7061157822608948,-0.7076695561408997
1.8245038986206055,-1.2791704209212702,2.5125681156762885,89.8510565692477,-0.04345703125,0.0224609375,1.00390625,-0.54931640625,-0.42724609375,0.0,0.0,0.0,0.0,-0.02338339015841484,-0.0076411422342062,0.7061466574668884,-0.7076380848884583
1.8428316116333008,-1.2398203137306516,2.5058179677856116,89.85883615471235,-0.04345703125,0.02099609375,1.00341796875,0.1220703125,-0.79345703125,-0.18310546875,0.0,0.0,0.0,-0.023099344223737717,-0.007840357720851898,0.7061924934387207,-0.7075995802879333
1.8630990982055664,-1.2787516449477838,2.468629081858773,89.8610764567601,-0.04345703125,0.0224609375,1.005859375,0.18310546875,-0.79345703125,-0.42724609375,0.0,0.0,0.0,-0.02311081252992153,-0.007370234001427889,0.7062113285064697,-0.7075854539871216
1.8829362392425537,-1.2901482424647732,2.4654987207847916,89.86102181524674,-0.04248046875,0.0224609375,1.00439453125,-0.18310546875,-0.8544921875,-0.1220703125,0.0,0.0,0.0,-0.02316189929842949,-0.0072806705720722675,0.7062119245529175,-0.7075840830802917
1.9024417400360107,-1.3149258208960524,2.501631702154629,89.86393147583317,-0.04345703125,0.0224609375,1.00341796875,-0.3662109375,-0.3662109375,-0.244140625,0.0,0.0,0.0,-0.023537656292319298,-0.007350594736635685,0.7062292098999023,-0.7075536847114563
1.9189226627349854,-1.2751337791217927,2.5426467746771437,89.86968249511432,-0.044921875,0.0224609375,1.00341796875,0.18310546875,-0.18310546875,-0.1220703125,0.0,0.0,0.0,-0.023544996976852417,-0.007848028093576431,0.7062593698501587,-0.7075181007385254
1.9423201084136963,-1.223840445837172,2.4790177995863627,89.87689517487786,-0.0439453125,0.021484375,1.00341796875,0.18310546875,-0.79345703125,-0.244140625,0.0,0.0,0.0,-0.022836806252598763,-0.007769671268761158,0.7063047289848328,-0.7074969410896301
1.9623382091522217,-1.267192616994595,2.3265780091520214,89.87659464655438,-0.041015625,0.0224609375,1.00146484375,-0.18310546875,-1.220703125,-0.18310546875,0.0,0.0,0.0,-0.022165285423398018,-0.006560900714248419,0.7063150405883789,-0.7075201869010925
1.98221755027771,-1.2904684075821176,2.3994448150952445,89.87839781649527,-0.0419921875,0.02197265625,1.00244140625,-0.18310546875,-0.79345703125,-0.3662109375,0.0,0.0,0.0,-0.02275802753865719,-0.006867177784442902,0.7063232660293579,-0.7074903249740601
2.0023539066314697,-1.2560141586442228,2.469759691609822,89.88399857161467,-0.0439453125,0.0224609375,1.00439453125,-0.06103515625,0.18310546875,-0.1220703125,0.0,0.0,0.0,-0.022978875786066055,-0.00751275010406971,0.7063513398170471,-0.7074486017227173
2.0229218006134033,-1.2742382772885805,2.4937131650290567,89.88545340190788,-0.0439453125,0.02294921875,1.00390625,-0.06103515625,-0.42724609375,0.06103515625,0.0,0.0,0.0,-0.02323906309902668,-0.007548070512712002,0.7063599228858948,-0.7074310779571533
2.0423412322998047,-1.2732324252115903,2.4288936025885777,89.8888411757362,-0.04248046875,0.02197265625,1.00244140625,-0.244140625,-0.9765625,-0.30517578125,0.0,0.0,0.0,-0.022833697497844696,-0.007153238635510206,0.7063848972320557,-0.7074234485626221
2.0643181800842285,-1.2164480467211027,2.4603769326809286,89.89474928936828,-0.04296875,0.021484375,1.001953125,0.1220703125,-0.9765625,-0.30517578125,0.0,0.0,0.0,-0.022677525877952576,-0.007696554996073246,0.7064157128334045,-0.7073918581008911
2.0857458114624023,-1.2843636058463013,2.498213405918449,89.89639536495824,-0.0439453125,0.02197265625,1.0048828125,0.06103515625,-1.03759765625,-0.30517578125,0.0,0.0,0.0,-0.023330017924308777,-0.007511224132031202,0.7064278721809387,-0.707360565662384
2.1022191047668457,-1.2670908044872795,2.418360597114772,89.89885423305945,-0.04248046875,0.02197265625,1.0048828125,-0.3662109375,-0.1220703125,-0.06103515625,0.0,0.0,0.0,-0.02273150533437729,-0.007124055176973343,0.7064470052719116,-0.7073650360107422
2.123491048812866,-1.1741763261130111,2.4795599458517326,89.90780178087216,-0.04345703125,0.0205078125,1.00439453125,-0.06103515625,-0.67138671875,-0.30517578125,0.0,0.0,0.0,-0.022535691037774086,-0.008073053322732449,0.7064920663833618,-0.7073161602020264
2.1422533988952637,-1.2244388344414887,2.4582766495111494,89.91138079999725,-0.04345703125,0.021484375,1.00390625,0.18310546875,-0.9765625,-0.3662109375,0.0,0.0,0.0,-0.022715015336871147,-0.007631030865013599,0.7065190076828003,-0.707288384437561
2.1622629165649414,-1.2444241813963575,2.4031356785679905,89.91379185677427,-0.0419921875,0.021484375,1.0029296875,-0.06103515625,-0.732421875,-0.30517578125,0.0,0.0,0.0,-0.022498704493045807,-0.007166832219809294,0.706538736820221,-0.7072803378105164
2.190316915512085,-1.2544190960296133,2.450550424899396,89.91585457390362,-0.04296875,0.021484375,1.00244140625,-0.42724609375,-0.42724609375,-0.06103515625,0.0,0.0,0.0,-0.022852737456560135,-0.00739758275449276,0.7065491080284119,-0.7072562575340271
2.2041664123535156,-1.3131564817359016,2.3587750940126386,89.91633268714551,-0.041015625,0.0234375,1.00439453125,-0.18310546875,-0.06103515625,-0.18310546875,0.0,0.0,0.0,-0.02264968492090702,-0.0064686196856200695,0.7065611481666565,-0.7072599530220032
2.2222959995269775,-1.260132549270329,2.4507034638254863,89.92003464967566,-0.04345703125,0.02197265625,1.0048828125,0.06103515625,0.0,-0.06103515625,0.0,0.0,0.0,-0.022889209911227226,-0.0073624649085104465,0.7065752744674683,-0.7072294354438782
2.242439031600952,-1.25066163821246,2.444063025848353,89.92553978214669,-0.04296875,0.02197265625,1.00341796875,-0.18310546875,-0.8544921875,-0.18310546875,0.0,0.0,0.0,-0.02279018983244896,-0.007378763984888792,0.7066090703010559,-0.7071985602378845
2.2632639408111572,-1.1965334562571668,2.496656122787686,89.93136593350872,-0.0439453125,0.02099609375,1.0048828125,-0.18310546875,-1.3427734375,-0.244140625,0.0,0.0,0.0,-0.022780701518058777,-0.008036104030907154,0.7066378593444824,-0.7071630358695984
2.2826168537139893,-1.2545788584231683,2.498231975495255,89.93227434866832,-0.0439453125,0.02197265625,1.001953125,0.06103515625,-0.6103515625,-0.244140625,0.0,0.0,0.0,-0.023148680105805397,-0.007687707897275686,0.7066473364830017,-0.7071454524993896
2.3029861450195312,-1.2565720997220484,2.4901552768017146,89.93467857525617,-0.04345703125,0.021484375,1.0029296875,-0.06103515625,-0.18310546875,-0.06103515625,0.0,0.0,0.0,-0.023111360147595406,-0.007625064346939325,0.7066628336906433,-0.7071317434310913
2.3236563205718994,-1.2528777144330119,2.528911264256248,89.93904306613581,-0.04443359375,0.02197265625,1.005859375,-0.3662109375,-0.48828125,-0.06103515625,0.0,0.0,0.0,-0.023327743634581566,-0.007886230945587158,0.7066869139671326,-0.7070978879928589
2.3431894779205322,-1.284501917176994,2.4701261739474756,89.94242400977495,-0.0439453125,0.0224609375,1.00390625,0.1220703125,-0.8544921875,-0.244140625,0.0,0.0,0.0,-0.023160748183727264,-0.007327604573220015,0.7067137360572815,-0.7070824503898621
2.36234450340271,-1.299861518516472,2.572521808663368,89.94335974569125,-0.044921875,0.0224609375,1.00439453125,0.244140625,-0.8544921875,-0.30517578125,0.0,0.0,0.0,-0.023886768147349358,-0.0078648142516613,0.7067137956619263,-0.7070525288581848
2.382296562194824,-1.3177272656728154,2.4434401979734126,89.94498533071372,-0.04248046875,0.02294921875,1.00244140625,-0.1220703125,-0.67138671875,-0.18310546875,0.0,0.0,0.0,-0.023201419040560722,-0.006957432720810175,0.7067332863807678,-0.7070654034614563
2.407900333404541,-1.271754969916752,2.4406060963546805,89.95005333107787,-0.04248046875,0.0224609375,1.00341796875,-0.6103515625,-0.18310546875,0.06103515625,0.0,0.0,0.0,-0.022900601848959923,-0.007222453132271767,0.70676189661026,-0.7070439457893372
2.422231674194336,-1.1699740522261608,2.5775044316628923,89.95879597321549,-0.04541015625,0.0205078125,1.00244140625,0.1220703125,-0.244140625,-0.1220703125,0.0,0.0,0.0,-0.02311720699071884,-0.008693501353263855,0.7067992687225342,-0.7069829702377319
2.4425289630889893,-1.1093390478693725,2.5095641131019524,89.96553053973712,-0.0439453125,0.01953125,1.0029296875,0.30517578125,-0.79345703125,-0.1220703125,0.0,0.0,0.0,-0.02232474461197853,-0.00864682998508215,0.7068413496017456,-0.7069669961929321
2.4624295234680176,-1.2875984474702429,2.4368473578770575,89.96068793561557,-0.04296875,0.02197265625,1.0029296875,-0.244140625,-1.28173828125,-0.30517578125,0.0,0.0,0.0,-0.022975850850343704,-0.007099398877471685,0.7068287134170532,-0.7069757580757141
2.483405828475952,-1.2771307556803753,2.3998262384717077,89.96309899239259,-0.04248046875,0.02197265625,1.0048828125,-0.18310546875,-0.79345703125,-0.1220703125,0.0,0.0,0.0,-0.022683165967464447,-0.006934977602213621,0.706845223903656,-0.7069703936576843
2.5027377605438232,-1.194369673672448,2.406172124540884,89.96964231361746,-0.04248046875,0.02099609375,1.00439453125,0.0,0.06103515625,0.0,0.0,0.0,0.0,-0.02221211977303028,-0.007483380846679211,0.7068799734115601,-0.7069451212882996
2.5228793621063232,-1.208121619236034,2.4808521322653343,89.97326231387757,-0.04345703125,0.02099609375,1.0029296875,0.06103515625,-0.3662109375,-0.1220703125,0.0,0.0,0.0,-0.022757679224014282,-0.00785874854773283,0.7068982720375061,-0.7069053053855896
2.5451600551605225,-1.2843279607965703,2.50556503734291,89.97227193644791,-0.0439453125,0.0224609375,1.001953125,0.0,-1.15966796875,-0.18310546875,0.0,0.0,0.0,-0.023380091413855553,-0.007541367784142494,0.7068955898284912,-0.7068912982940674
2.5639500617980957,-1.2282332179688422,2.5892237556181645,89.979266050158,-0.04541015625,0.02197265625,1.00244140625,0.0,-0.9765625,-0.3662109375,0.0,0.0,0.0,-0.02355038933455944,-0.008402291685342789,0.7069290280342102,-0.7068426012992859
2.5826969146728516,-1.3408574878536519,2.413704542534939,89.97592608765387,-0.04296875,0.02294921875,1.00390625,0.1220703125,-0.18310546875,0.0,0.0,0.0,0.0,-0.02316262759268284,-0.0066249556839466095,0.7069272994995117,-0.7068758606910706
2.597663402557373,-1.206556545420749,2.4161491099275687,89.98521514492509,-0.04296875,0.02099609375,1.001953125,-0.30517578125,-0.06103515625,0.06103515625,0.0,0.0,0.0,-0.022349834442138672,-0.007466744631528854,0.7069761753082275,-0.7068448066711426
2.6229922771453857,-1.1865447314828463,2.5353549074079202,89.98986650374987,-0.04443359375,0.02099609375,1.0009765625,-0.18310546875,-0.8544921875,-0.244140625,0.0,0.0,0.0,-0.022961845621466637,-0.008324900642037392,0.7069953083992004,-0.7067962884902954
2.6421964168548584,-1.3190454921826278,2.4659808894515125,89.98790623945807,-0.04296875,0.02294921875,1.00390625,0.30517578125,-1.03759765625,-0.244140625,0.0,0.0,0.0,-0.023351158946752548,-0.007079704664647579,0.7069967985153198,-0.7067956328392029
2.6625802516937256,-1.2357868735823474,2.3972933055066905,89.99381435309013,-0.0419921875,0.021484375,1.0029296875,0.1220703125,-0.732421875,-0.1220703125,0.0,0.0,0.0,-0.022414399310946465,-0.0071683600544929504,0.707032322883606,-0.7067895531654358
2.683290481567383,-1.2366949685768418,2.5178446502535348,89.99631420232636,-0.04443359375,0.02197265625,1.001953125,-0.3662109375,-0.91552734375,-0.18310546875,0.0,0.0,0.0,-0.023163627833127975,-0.00790613517165184,0.7070398330688477,-0.7067500948905945
2.702873706817627,-1.3436970322793789,2.3920983063126613,89.99526918338334,-0.04248046875,0.0234375,1.00390625,-0.06103515625,-0.30517578125,-0.1220703125,0.0,0.0,0.0,-0.02304801158607006,-0.006470200140029192,0.7070479989051819,-0.7067602872848511
2.7222867012023926,-1.3049132971813424,2.496170112139557,89.99914190064274,-0.0439453125,0.02294921875,1.005859375,0.18310546875,-0.1220703125,0.06103515625,0.0,0.0,0.0,-0.023450877517461777,-0.00735089834779501,0.7070632576942444,-0.7067232131958008
2.7377429008483887,-1.1639680747898982,2.4853944215068045,90.00826703337388,-0.04345703125,0.0205078125,1.00390625,0.0,-0.8544921875,-0.1220703125,0.0,0.0,0.0,-0.02251579612493515,-0.008152281865477562,0.7071107625961304,-0.7066972255706787
2.76223087310791,-1.2474725802002988,2.419423545304355,90.00720152386336,-0.04248046875,0.021484375,1.00341796875,-0.244140625,-1.28173828125,-0.30517578125,0.0,0.0,0.0,-0.022623803466558456,-0.007230174727737904,0.7071142196655273,-0.7067002654075623
2.788012742996216,-1.255058892655773,2.4778235836986684,90.01016582596314,-0.04345703125,0.02197265625,1.00341796875,0.18310546875,-0.54931640625,-0.18310546875,0.0,0.0,0.0,-0.02303098514676094,-0.0075430916622281075,0.7071292400360107,-0.7066688537597656
2.8027873039245605,-1.1652133036529562,2.5113988726677468,90.0168047698364,-0.0439453125,0.02099609375,1.0029296875,-0.06103515625,0.1220703125,-0.06103515625,0.0,0.0,0.0,-0.022684486582875252,-0.008303351700305939,0.7071616053581238,-0.7066392302513123
2.82245135307312,-1.2524588317378198,2.4755043075886256,90.01657937359379,-0.04345703125,0.02197265625,1.00390625,-0.30517578125,-0.54931640625,-0.1220703125,0.0,0.0,0.0,-0.023001065477728844,-0.007543540559709072,0.7071687579154968,-0.7066304087638855
2.8424770832061768,-1.1380958518224187,2.482820507406767,90.02554058178484,-0.04345703125,0.0205078125,1.0029296875,-0.06103515625,-0.9765625,-0.18310546875,0.0,0.0,0.0,-0.022341614589095116,-0.008292682468891144,0.7072156071662903,-0.7065961360931396
2.8643758296966553,-1.340033169398196,2.447173963571882,90.01924997755927,-0.04296875,0.02294921875,1.00439453125,0.18310546875,-1.0986328125,-0.3662109375,0.0,0.0,0.0,-0.023366499692201614,-0.0068277702666819096,0.7071924805641174,-0.7066019177436829
2.882500648498535,-1.2701663106044894,2.5116515896670375,90.02401061941076,-0.0439453125,0.0224609375,1.0029296875,-0.3662109375,-0.54931640625,-0.1220703125,0.0,0.0,0.0,-0.023333722725510597,-0.00765575934201479,0.7072133421897888,-0.7065735459327698
2.9033617973327637,-1.3714187424080508,2.3954254622121036,90.02084824182505,-0.0419921875,0.02392578125,1.0048828125,-0.3662109375,-0.42724609375,0.0,0.0,0.0,0.0,-0.023240918293595314,-0.006314496509730816,0.7072071433067322,-0.7065961360931396
2.9229907989501953,-1.2796091538537377,2.4887506057102193,90.0303558651497,-0.04296875,0.02197265625,1.00439453125,0.06103515625,-0.42724609375,-0.1220703125,0.0,0.0,0.0,-0.023251092061400414,-0.0074549182318151,0.7072545886039734,-0.7065371870994568
2.9432175159454346,-1.2308039304177059,2.4135762630445896,90.03578586553986,-0.04248046875,0.02197265625,1.0048828125,0.1220703125,-0.79345703125,-0.18310546875,0.0,0.0,0.0,-0.02248675748705864,-0.007291347254067659,0.7072898149490356,-0.70652836561203
2.959179162979126,-1.2168027896711202,2.3615097310015822,90.0395356393942,-0.04150390625,0.021484375,1.00341796875,-0.244140625,-1.15966796875,-0.18310546875,0.0,0.0,0.0,-0.022079436108469963,-0.00705587537959218,0.7073153257369995,-0.7065180540084839
2.9824726581573486,-1.3091088476007287,2.46368210390898,90.03806714872265,-0.04345703125,0.0224609375,1.0029296875,-0.244140625,-0.54931640625,-0.06103515625,0.0,0.0,0.0,-0.02327880822122097,-0.00711663905531168,0.7073056101799011,-0.7064887285232544
3.002746820449829,-1.2944973654187788,2.43710306308411,90.04178960182031,-0.04296875,0.0224609375,1.00341796875,0.1220703125,0.1220703125,-0.06103515625,0.0,0.0,0.0,-0.02302497625350952,-0.007042130921036005,0.7073293328285217,-0.7064740061759949
3.022353410720825,-1.18170863738536,2.414582008399874,90.04940526274487,-0.04248046875,0.0205078125,1.00341796875,0.1220703125,-0.67138671875,0.0,0.0,0.0,0.0,-0.022191157564520836,-0.007597944233566523,0.7073705196380615,-0.706453800201416
3.0392167568206787,-1.1467842793334981,2.4945648042411928,90.05426152724475,-0.0439453125,0.02001953125,1.00244140625,-0.42724609375,-1.3427734375,-0.30517578125,0.0,0.0,0.0,-0.022469721734523773,-0.008305879309773445,0.7073924541473389,-0.7064148783683777
3.0645201206207275,-1.2278755935327688,2.4609092605493665,90.05441862159566,-0.04296875,0.021484375,1.00390625,0.0,-0.8544921875,-0.18310546875,0.0,0.0,0.0,-0.022761952131986618,-0.00759769044816494,0.7074013948440552,-0.7064047455787659
3.0826406478881836,-1.3089930545499557,2.4309055201859695,90.05306624414,-0.04248046875,0.02294921875,1.00341796875,0.0,-0.30517578125,-0.18310546875,0.0,0.0,0.0,-0.02307678945362568,-0.006912154611200094,0.7074001431465149,-0.7064026594161987
3.097975730895996,-1.2912273056319294,2.5123410118863854,90.05902899928542,-0.04345703125,0.0224609375,1.0029296875,-0.18310546875,-0.3662109375,-0.1220703125,0.0,0.0,0.0,-0.023470133543014526,-0.007522858679294586,0.7074306011199951,-0.7063530683517456
3.1177871227264404,-1.2264826618289093,2.4507011159479593,90.06316809392244,-0.04345703125,0.02099609375,1.00439453125,-0.30517578125,-0.9765625,-0.1220703125,0.0,0.0,0.0,-0.02269095741212368,-0.007541596423834562,0.7074559330940247,-0.7063528299331665
3.137570858001709,-1.1847255532860959,2.5356663213453907,90.06736183007283,-0.0439453125,0.02099609375,1.00439453125,0.30517578125,-0.54931640625,-0.1220703125,0.0,0.0,0.0,-0.02295817621052265,-0.008322522975504398,0.7074729800224304,-0.7063183784484863
3.162226915359497,-1.2190269767413113,2.5313925439156666,90.06796971690896,-0.04443359375,0.021484375,1.00439453125,0.0,-1.0986328125,-0.1220703125,0.0,0.0,0.0,-0.02314326912164688,-0.008084273897111416,0.7074794769287109,-0.7063087224960327
3.1830310821533203,-1.350563720272769,2.479980429372511,90.06551084880776,-0.04296875,0.0234375,1.00341796875,-0.48828125,-0.91552734375,-0.30517578125,0.0,0.0,0.0,-0.023636601865291595,-0.006955633871257305,0.7074763774871826,-0.7063074707984924
3.203024387359619,-1.1987079110124639,2.36603942708177,90.07528484951004,-0.0419921875,0.02099609375,1.00341796875,-0.1220703125,-0.244140625,-0.18310546875,0.0,0.0,0.0,-0.02199806272983551,-0.007188643794506788,0.7075342535972595,-0.7063000202178955
3.2223496437072754,-1.2603290239306728,2.4321022973946027,90.07824232142066,-0.04248046875,0.02197265625,1.00439453125,0.06103515625,-0.06103515625,-0.1220703125,0.0,0.0,0.0,-0.022785766050219536,-0.007214945740997791,0.7075521945953369,-0.7062568068504333
3.242403507232666,-1.1810339427614096,2.4807932218837427,90.0852705860766,-0.0439453125,0.0205078125,1.00244140625,-0.1220703125,-1.0986328125,-0.18310546875,0.0,0.0,0.0,-0.02259804494678974,-0.00800340250134468,0.7075870037078857,-0.7062195539474487
3.2631571292877197,-1.2442670870454473,2.47859816983923,90.08471051056466,-0.04345703125,0.02197265625,1.00439453125,-0.18310546875,-1.3427734375,-0.244140625,0.0,0.0,0.0,-0.022974155843257904,-0.0075995237566530704,0.7075880169868469,-0.7062109112739563
3.279043197631836,-1.2261076417547931,2.503218653919599,90.08717620885504,-0.0439453125,0.021484375,1.00146484375,0.0,-0.42724609375,-0.1220703125,0.0,0.0,0.0,-0.02301436848938465,-0.007862962782382965,0.7076002955436707,-0.7061943411827087
3.302337884902954,-1.2813266262648786,2.5171528801566594,90.08780458625868,-0.04443359375,0.0224609375,1.00390625,0.0,0.06103515625,0.06103515625,0.0,0.0,0.0,-0.023440709337592125,-0.0076077706180512905,0.7076069712638855,-0.7061764001846313
3.3202459812164307,-1.15906549306971,2.3481296038609387,90.09710730390825,-0.04150390625,0.0205078125,1.0048828125,-0.244140625,-0.48828125,-0.06103515625,0.0,0.0,0.0,-0.021644575521349907,-0.007318852003663778,0.7076674103736877,-0.7061762809753418
3.344224691390991,-1.2281931973291742,2.475991598897224,90.09858945495813,-0.04345703125,0.021484375,1.00244140625,0.1220703125,-1.0986328125,-0.244140625,0.0,0.0,0.0,-0.02285994030535221,-0.00767993601039052,0.707672655582428,-0.7061287760734558
3.362717628479004,-1.3129700389159014,2.526756339573109,90.09786545490611,-0.04443359375,0.0234375,1.00390625,0.18310546875,-1.03759765625,-0.244140625,0.0,0.0,0.0,-0.02369564212858677,-0.007469500415027142,0.7076704502105713,-0.7061057090759277
3.3822765350341797,-1.2676345515782361,2.352869328258105,90.10270122883848,-0.04150390625,0.0224609375,1.00341796875,-0.18310546875,-0.42724609375,-0.06103515625,0.0,0.0,0.0,-0.022343212738633156,-0.006676504388451576,0.7077082395553589,-0.7061198949813843
3.4023327827453613,-1.2900850632149505,2.4130430814025052,90.10369160626813,-0.04248046875,0.02294921875,1.0029296875,-0.30517578125,-0.30517578125,0.06103515625,0.0,0.0,0.0,-0.02285306714475155,-0.006908617913722992,0.7077120542526245,-0.7060975432395935
3.4223556518554688,-1.1389770529470562,2.4312790461562046,90.1144969655351,-0.04248046875,0.02001953125,1.0029296875,0.06103515625,-0.3662109375,-0.06103515625,0.0,0.0,0.0,-0.0220352653414011,-0.007952188141644001,0.7077676653862,-0.7060568928718567
3.4423136711120605,-1.1356768976391765,2.479771041385768,90.11800085257931,-0.04345703125,0.02001953125,1.00341796875,0.3662109375,-0.91552734375,-0.18310546875,0.0,0.0,0.0,-0.022314565256237984,-0.008270797319710255,0.7077855467796326,-0.7060264348983765
3.462660789489746,-1.288946556057674,2.346738379704372,90.1144491542109,-0.041015625,0.02294921875,1.00244140625,-0.244140625,-1.03759765625,-0.18310546875,0.0,0.0,0.0,-0.022437358275055885,-0.006504785735160112,0.7077822089195251,-0.7060443758964539
3.482755661010742,-1.2660835650281141,2.4546773532619643,90.11978353195268,-0.04248046875,0.0224609375,1.001953125,-0.3662109375,-0.54931640625,-0.244140625,0.0,0.0,0.0,-0.022963209077715874,-0.007310289423912764,0.7078071236610413,-0.7059946060180664
3.5026350021362305,-1.1982106945852282,2.519745150390091,90.12660689093353,-0.0439453125,0.0205078125,1.0029296875,0.1220703125,0.0,0.0,0.0,0.0,0.0,-0.022947251796722412,-0.008129224181175232,0.7078402042388916,-0.7059530019760132
3.519587755203247,-1.287718509389247,2.5011288294769862,90.1257462870981,-0.0439453125,0.0224609375,1.0029296875,0.0,-0.67138671875,-0.06103515625,0.0,0.0,0.0,-0.023383669555187225,-0.007461762521415949,0.707842230796814,-0.7059441208839417
3.54264235496521,-1.295934479908832,2.45818380162712,90.12728307966135,-0.04248046875,0.02197265625,1.00439453125,-0.3662109375,-1.15966796875,-0.1220703125,0.0,0.0,0.0,-0.02316923439502716,-0.007146003656089306,0.7078549861907959,-0.7059415578842163
3.5625665187835693,-1.170081841149,2.390773676500502,90.13638772182499,-0.0419921875,0.0205078125,1.00439453125,0.0,-0.79345703125,-0.30517578125,0.0,0.0,0.0,-0.02197827771306038,-0.007506192661821842,0.7079073786735535,-0.7059234976768494
3.582540273666382,-1.243296880018188,2.4965327524958028,90.1362442878524,-0.0439453125,0.02197265625,1.0029296875,0.1220703125,-0.06103515625,-0.06103515625,0.0,0.0,0.0,-0.02308233454823494,-0.007705714553594589,0.7079042792320251,-0.7058892250061035
3.598973035812378,-1.2713811237813997,2.5415959927620193,90.13550662742205,-0.044921875,0.0224609375,1.001953125,-0.42724609375,-0.30517578125,0.06103515625,0.0,0.0,0.0,-0.023533537983894348,-0.007810092996805906,0.7078985571861267,-0.705878734588623
3.6248362064361572,-1.253735650225789,2.5005834815604433,90.14077270327213,-0.04345703125,0.02197265625,1.00439453125,-0.06103515625,-0.30517578125,0.0,0.0,0.0,0.0,-0.023171955719590187,-0.007665276061743498,0.7079325914382935,-0.7058582305908203
3.6426210403442383,-1.2270558641106613,2.491531346476061,90.14559481682616,-0.0439453125,0.021484375,1.00390625,0.244140625,-0.732421875,-0.18310546875,0.0,0.0,0.0,-0.022952044382691383,-0.0077733490616083145,0.7079610824584961,-0.7058355808258057
3.662339687347412,-1.2477051267971966,2.464629792656319,90.14775998679305,-0.04345703125,0.02197265625,1.00244140625,0.06103515625,-0.9765625,-0.30517578125,0.0,0.0,0.0,-0.02291325107216835,-0.007479560561478138,0.7079776525497437,-0.7058234810829163
3.682529926300049,-1.2341296989349733,2.472513751949218,90.15024617565093,-0.0439453125,0.021484375,1.0048828125,-0.3662109375,-0.8544921875,-0.244140625,0.0,0.0,0.0,-0.022878486663103104,-0.00761152058839798,0.7079915404319763,-0.7058092355728149
3.702442169189453,-1.3375088808913473,2.416434270325417,90.14872304346602,-0.04248046875,0.0234375,1.005859375,-0.1220703125,-0.06103515625,0.06103515625,0.0,0.0,0.0,-0.02316882461309433,-0.006627531256526709,0.7079920768737793,-0.7058091163635254
3.723396062850952,-1.2546450258807527,2.504617562038982,90.15718564784767,-0.0439453125,0.02197265625,1.00341796875,0.18310546875,-0.30517578125,-0.06103515625,0.0,0.0,0.0,-0.023203568533062935,-0.007681193295866251,0.7080335021018982,-0.7057557106018066
3.742530584335327,-1.1908738974778708,2.4424782085174983,90.16388606342345,-0.04345703125,0.02099609375,1.00537109375,-0.06103515625,-1.28173828125,-0.244140625,0.0,0.0,0.0,-0.022427484393119812,-0.0076910159550607204,0.708074688911438,-0.705739438533783
3.7622640132904053,-1.169483665988095,2.470883257728289,90.16718504479257,-0.04345703125,0.02099609375,1.0048828125,-0.3662109375,-1.220703125,-0.30517578125,0.0,0.0,0.0,-0.022471420466899872,-0.007997559383511543,0.7080915570259094,-0.7057176232337952
3.7868270874023438,-1.3259407815931672,2.508948542303005,90.1614135349439,-0.0439453125,0.0224609375,1.00341796875,-0.06103515625,-0.42724609375,0.0,0.0,0.0,0.0,-0.023669680580496788,-0.007266488391906023,0.7080639004707336,-0.705714225769043
3.8025054931640625,-1.247682501795571,2.437885333187488,90.16820957316807,-0.04296875,0.021484375,1.00244140625,-0.06103515625,0.1220703125,0.1220703125,0.0,0.0,0.0,-0.02274926006793976,-0.007310832384973764,0.7081053256988525,-0.7057024240493774
3.8253300189971924,-1.1539214001293383,2.454884179927769,90.17643312092876,-0.04296875,0.0205078125,1.00390625,-0.1220703125,-0.732421875,-0.1220703125,0.0,0.0,0.0,-0.022277403622865677,-0.007993348874151707,0.7081485390663147,-0.7056666612625122
3.8425230979919434,-1.226186829260483,2.389452248339516,90.1777035361144,-0.0419921875,0.021484375,1.0029296875,-0.1220703125,-1.220703125,-0.30517578125,0.0,0.0,0.0,-0.022318318486213684,-0.007143404334783554,0.7081655263900757,-0.7056576013565063
3.858464002609253,-1.2241230449140814,2.455380649303064,90.18082493256509,-0.04345703125,0.021484375,1.001953125,0.18310546875,-0.8544921875,-0.18310546875,0.0,0.0,0.0,-0.022713065147399902,-0.007561706937849522,0.70818030834198,-0.7056256532669067
3.8851256370544434,-1.2663063999497859,2.4483602820533488,90.18113229107773,-0.04296875,0.0224609375,1.00341796875,-0.1220703125,-0.30517578125,0.0,0.0,0.0,0.0,-0.022929469123482704,-0.007257701829075813,0.7081853747367859,-0.70561683177948
3.903696298599243,-1.3170386972271133,2.5115420931969057,90.18304474404533,-0.0439453125,0.02294921875,1.00390625,-0.42724609375,-0.3662109375,-0.1220703125,0.0,0.0,0.0,-0.023632260039448738,-0.007333014160394669,0.7081963419914246,-0.7055818438529968
3.917651653289795,-1.15521358654294,2.5759877027803264,90.19442383920259,-0.044921875,0.0205078125,1.00341796875,0.0,-0.6103515625,0.0,0.0,0.0,0.0,-0.02303478680551052,-0.00872783549129963,0.7082505226135254,-0.7055313587188721
3.9469354152679443,-1.1981030123840946,2.5320268977348315,90.19516832982211,-0.0439453125,0.02099609375,1.00244140625,0.1220703125,-0.91552734375,-0.1220703125,0.0,0.0,0.0,-0.0230273250490427,-0.008191809058189392,0.7082615494728088,-0.7055268883705139
3.96292781829834,-1.2926082845047413,2.4539300878780828,90.19332417874621,-0.04345703125,0.02294921875,1.001953125,-0.244140625,-0.91552734375,-0.244140625,0.0,0.0,0.0,-0.023126590996980667,-0.007127005141228437,0.7082617878913879,-0.7055350542068481
3.982639789581299,-1.343309739209098,2.612905302131068,90.1941233108791,-0.04541015625,0.0234375,1.00146484375,-0.54931640625,-0.48828125,-0.06103515625,0.0,0.0,0.0,-0.024420887231826782,-0.007792736869305372,0.7082595229148865,-0.7054865956306458
4.002851724624634,-1.2633347340523013,2.4384558674265957,90.20226489636975,-0.04296875,0.02197265625,1.0029296875,0.0,0.0,-0.244140625,0.0,0.0,0.0,-0.02285132184624672,-0.007210835814476013,0.7083159685134888,-0.7054887413978577
4.022719383239746,-1.1748553963268984,2.316322053226424,90.21022206675282,-0.041015625,0.02099609375,1.00439453125,0.18310546875,-0.79345703125,-0.18310546875,0.0,0.0,0.0,-0.02155245654284954,-0.007003972306847572,0.708367109298706,-0.7054803967475891
4.042573928833008,-1.2044898795882912,2.4961551711007477,90.21085044415646,-0.04345703125,0.02099609375,1.00537109375,-0.30517578125,-1.220703125,-0.18310546875,0.0,0.0,0.0,-0.022846119478344917,-0.00792824849486351,0.7083610892295837,-0.7054358720779419
4.062505006790161,-1.306032274266461,2.4484330662566918,90.20904727421558,-0.04345703125,0.0224609375,1.00341796875,-0.06103515625,-0.9765625,-0.30517578125,0.0,0.0,0.0,-0.023176245391368866,-0.0070069944486021996,0.7083597779273987,-0.7054362297058105
4.082966566085815,-1.3288717865207489,2.426759595359772,90.21078214226476,-0.04248046875,0.02294921875,1.00341796875,0.1220703125,-0.42724609375,-0.1220703125,0.0,0.0,0.0,-0.02318304032087326,-0.0067319669760763645,0.7083731293678284,-0.7054251432418823
4.102403163909912,-1.2495487442645712,2.4538310501351175,90.2189032371879,-0.04296875,0.02197265625,1.00341796875,-0.48828125,-0.30517578125,-0.06103515625,0.0,0.0,0.0,-0.022862514480948448,-0.007387431804090738,0.7084165215492249,-0.7053855061531067
4.122555255889893,-1.1417641970152446,2.4898150480036834,90.22671014340924,-0.04345703125,0.01953125,1.0029296875,-0.06103515625,-0.54931640625,-0.1220703125,0.0,0.0,0.0,-0.02242193929851055,-0.008273842744529247,0.7084547281265259,-0.7053515911102295
4.143056154251099,-1.2375541850300884,2.441470115284687,90.22566512446622,-0.04296875,0.02197265625,1.00341796875,0.30517578125,-0.91552734375,-0.1220703125,0.0,0.0,0.0,-0.02271273359656334,-0.007384118624031544,0.7084581851959229,-0.7053486108779907
4.159093856811523,-1.2762481671735626,2.37101735432624,90.22642327546409,-0.0419921875,0.0224609375,1.00439453125,0.1220703125,-0.91552734375,-0.30517578125,0.0,0.0,0.0,-0.02251557633280754,-0.006710882298648357,0.7084696292877197,-0.7053502202033997
4.185973167419434,-1.201591318059267,2.477838738180889,90.23124538901811,-0.04345703125,0.02099609375,1.00341796875,-0.3662109375,-0.732421875,-0.1220703125,0.0,0.0,0.0,-0.022716496139764786,-0.007829314097762108,0.7084876894950867,-0.705314040184021
4.197693586349487,-1.1426995060447132,2.4669853541463276,90.23636803089563,-0.04345703125,0.02099609375,1.00439453125,0.0,-0.18310546875,0.1220703125,0.0,0.0,0.0,-0.02228729985654354,-0.008125596679747105,0.7085158824920654,-0.7052960991859436
4.2225730419158936,-1.3483252324940032,2.4178242138215142,90.23198987963765,-0.04248046875,0.0234375,1.0029296875,0.30517578125,-0.42724609375,-0.06103515625,0.0,0.0,0.0,-0.02324879728257656,-0.006552377250045538,0.7085052728652954,-0.7052920460700989
4.242434978485107,-1.287201762889853,2.4641275603089117,90.23881323861849,-0.04345703125,0.0224609375,1.00341796875,-0.06103515625,-1.03759765625,-0.244140625,0.0,0.0,0.0,-0.023159168660640717,-0.0072140442207455635,0.7085407972335815,-0.7052528262138367
4.257720708847046,-1.238947010012242,2.5273559021161893,90.2436626729292,-0.04443359375,0.02197265625,1.00537109375,-0.30517578125,-1.220703125,-0.30517578125,0.0,0.0,0.0,-0.02325328253209591,-0.007900752127170563,0.7085632681846619,-0.7052198648452759
4.2823405265808105,-1.2548707422884804,2.499187134761999,90.2453497296542,-0.0439453125,0.02197265625,1.0029296875,0.0,-0.30517578125,-0.1220703125,0.0,0.0,0.0,-0.023177295923233032,-0.007628509774804115,0.7085766196250916,-0.7052119374275208
4.3022685050964355,-1.2530523111436704,2.5288803149615715,90.24756954113445,-0.04443359375,0.02197265625,1.0048828125,-0.06103515625,0.0,0.06103515625,0.0,0.0,0.0,-0.02334977686405182,-0.007822126150131226,0.7085881233215332,-0.7051925659179688
4.322346925735474,-1.208091416993298,2.4052856940526635,90.25335471136145,-0.04248046875,0.02099609375,1.0009765625,-0.244140625,-0.732421875,-0.1220703125,0.0,0.0,0.0,-0.022309543564915657,-0.0073380484245717525,0.7086290717124939,-0.7051902413368225
4.342254638671875,-1.243371158325412,2.4198071031149335,90.25433825860193,-0.04296875,0.021484375,1.0029296875,-0.1220703125,-1.220703125,-0.244140625,0.0,0.0,0.0,-0.022616473957896233,-0.007209090981632471,0.7086364030838013,-0.7051743865013123
4.362483024597168,-1.115193160318308,2.4475820673747903,90.26249350447092,-0.04345703125,0.01953125,1.00439453125,0.0,-0.6103515625,-0.244140625,0.0,0.0,0.0,-0.021999942138791084,-0.00817117653787136,0.7086760997772217,-0.7051437497138977
4.382361888885498,-1.2220329003063517,2.456996202485184,90.25995950428886,-0.04296875,0.02197265625,1.0,-0.18310546875,-0.244140625,0.0,0.0,0.0,0.0,-0.022715404629707336,-0.007568893022835255,0.7086672186851501,-0.7051365971565247
4.4026336669921875,-1.2212277917579364,2.445929375039059,90.26377758003488,-0.04345703125,0.021484375,1.00341796875,-0.48828125,-0.3662109375,0.0,0.0,0.0,0.0,-0.022642292082309723,-0.00750498753041029,0.7086913585662842,-0.7051153182983398
4.422469854354858,-1.3035720187830813,2.4016966430872335,90.26574467451586,-0.0419921875,0.02294921875,1.0009765625,0.0,-0.1220703125,0.0,0.0,0.0,0.0,-0.02287566103041172,-0.006723030470311642,0.7087113857269287,-0.7050955295562744
4.442353010177612,-1.2115166501403534,2.446551776027176,90.27236995801077,-0.04296875,0.02099609375,1.00341796875,0.30517578125,-0.9765625,-0.244140625,0.0,0.0,0.0,-0.022586951032280922,-0.007567183580249548,0.7087435722351074,-0.7050639986991882
4.4601075649261475,-1.2114370357478406,2.457661078712202,90.27340814676461,-0.04296875,0.02099609375,1.00341796875,-0.18310546875,-0.79345703125,-0.06103515625,0.0,0.0,0.0,-0.02265520952641964,-0.007635853718966246,0.7087492346763611,-0.7050553560256958
4.483452081680298,-1.2761017449932304,2.4583573311207205,90.27374282603394,-0.04296875,0.02197265625,1.00390625,-0.30517578125,-0.42724609375,-0.1220703125,0.0,0.0,0.0,-0.023057399317622185,-0.007240119390189648,0.7087554335594177,-0.7050402164459229
4.503360748291016,-1.2494244134773358,2.437372642112914,90.27849663769626,-0.04296875,0.0224609375,1.00439453125,0.18310546875,-0.1220703125,-0.06103515625,0.0,0.0,0.0,-0.02276383526623249,-0.007275003008544445,0.7087843418121338,-0.7050202488899231
4.522356748580933,-1.341174878206646,2.4395866906210557,90.27670712813372,-0.04248046875,0.02294921875,1.00244140625,-0.06103515625,-0.30517578125,0.06103515625,0.0,0.0,0.0,-0.02334189973771572,-0.006721488665789366,0.7087787985801697,-0.7050125598907471
4.537786960601807,-1.2514753912190437,2.4490870568697205,90.28216444928056,-0.04296875,0.021484375,1.00146484375,-0.244140625,-0.9765625,-0.244140625,0.0,0.0,0.0,-0.022849107161164284,-0.007333693094551563,0.7088062763214111,-0.7049950361251831
4.562198877334595,-1.1158053160226706,2.4122684952619435,90.29049728006798,-0.04248046875,0.01953125,1.0029296875,0.1220703125,-0.91552734375,-0.244140625,0.0,0.0,0.0,-0.02178734913468361,-0.007944670505821705,0.7088509798049927,-0.7049770951271057
4.582935333251953,-1.2271790209591331,2.4494616500570134,90.28879656296465,-0.04296875,0.021484375,1.0029296875,0.1220703125,-0.30517578125,-0.18310546875,0.0,0.0,0.0,-0.022702382877469063,-0.00748496875166893,0.7088454961776733,-0.7049586176872253
4.597620964050293,-1.2587191269989595,2.529346261929013,90.28883754409966,-0.04443359375,0.021484375,1.00537109375,-0.3662109375,-0.30517578125,0.0,0.0,0.0,0.0,-0.023390332236886024,-0.007781531196087599,0.708842396736145,-0.704936146736145
4.622699499130249,-1.2419627519742142,2.4665618824177864,90.29398067654469,-0.04345703125,0.021484375,1.0029296875,-0.3662109375,-0.6103515625,-0.244140625,0.0,0.0,0.0,-0.02289939858019352,-0.007497731130570173,0.7088772058486938,-0.7049202919006348
4.642347574234009,-1.1804500683090793,2.4417546353523,90.30139143179414,-0.04248046875,0.02099609375,1.00439453125,0.244140625,-1.03759765625,-0.30517578125,0.0,0.0,0.0,-0.02236810326576233,-0.007724135648459196,0.7089203596115112,-0.7048915028572083
4.66260290145874,-1.2231408850557748,2.3610642746016506,90.30248426206136,-0.041015625,0.02099609375,1.00390625,-0.06103515625,-0.8544921875,-0.244140625,0.0,0.0,0.0,-0.022131798788905144,-0.006963240914046764,0.7089350819587708,-0.7048921585083008
4.682602882385254,-1.2146149947026006,2.3559356563086173,90.30532562075608,-0.04150390625,0.021484375,1.00390625,-0.3662109375,-0.54931640625,-0.06103515625,0.0,0.0,0.0,-0.02204781211912632,-0.006983877159655094,0.7089523673057556,-0.7048771381378174
4.702598571777344,-1.172134739881412,2.5063257496617197,90.3119235834943,-0.04345703125,0.02099609375,1.0029296875,-0.1220703125,-0.244140625,-0.06103515625,0.0,0.0,0.0,-0.02271699719130993,-0.00817086175084114,0.7089800238609314,-0.7048152089118958
4.7228381633758545,-1.171736241032024,2.519260847289255,90.31599437623964,-0.0439453125,0.0205078125,1.00341796875,0.30517578125,-0.3662109375,-0.1220703125,0.0,0.0,0.0,-0.022794831544160843,-0.008252110332250595,0.7090041041374207,-0.70478755235672
4.742690801620483,-1.160246688909299,2.484091136035801,90.3178931688289,-0.04345703125,0.0205078125,1.00244140625,-0.1220703125,-1.03759765625,-0.244140625,0.0,0.0,0.0,-0.022506792098283768,-0.008106419816613197,0.7090175151824951,-0.7047849893569946
4.762370824813843,-1.2378431874093445,2.5241053724014977,90.31567335734864,-0.04443359375,0.02197265625,1.00439453125,-0.3662109375,-1.0986328125,-0.244140625,0.0,0.0,0.0,-0.023231351748108864,-0.007872967049479485,0.7090064287185669,-0.704775333404541
4.782360076904297,-1.3325200680328877,2.53472524934381,90.31533184789015,-0.04443359375,0.02294921875,1.00439453125,-0.244140625,-0.244140625,-0.06103515625,0.0,0.0,0.0,-0.023879291489720345,-0.007352593820542097,0.7090098857879639,-0.7047557830810547
4.802642345428467,-1.3304747465415863,2.5353386857086417,90.31918407458204,-0.04443359375,0.02294921875,1.00341796875,0.06103515625,-0.06103515625,0.06103515625,0.0,0.0,0.0,-0.02387074939906597,-0.007368221879005432,0.7090334296226501,-0.704732358455658
4.822965621948242,-1.2369980582212612,2.4871854251732284,90.32634894302137,-0.0439453125,0.021484375,1.00537109375,-0.18310546875,-0.9765625,0.0,0.0,0.0,0.0,-0.022998539730906487,-0.007648875471204519,0.7090745568275452,-0.7047169208526611
4.842848777770996,-1.3138733314336357,2.4233252908677247,90.32624649018382,-0.04296875,0.02294921875,1.0048828125,-0.18310546875,-1.220703125,-0.30517578125,0.0,0.0,0.0,-0.02307632938027382,-0.006780283525586128,0.7090829014778137,-0.7047148942947388
4.862664222717285,-1.2854113995536636,2.4555511905889027,90.3298733206331,-0.04296875,0.0224609375,1.0029296875,-0.06103515625,-0.6103515625,-0.244140625,0.0,0.0,0.0,-0.0231008343398571,-0.007153952494263649,0.7091014385223389,-0.7046917676925659
4.88244104385376,-1.182702429909597,2.4352851655478287,90.33634833996628,-0.04248046875,0.02001953125,1.00341796875,-0.18310546875,0.0,0.0,0.0,0.0,0.0,-0.02234428934752941,-0.007663572207093239,0.7091359496116638,-0.70467609167099
4.904329776763916,-1.1762666841641523,2.4183311419239764,90.3389369816617,-0.04248046875,0.02099609375,1.00537109375,-0.3662109375,-0.54931640625,0.06103515625,0.0,0.0,0.0,-0.02220001257956028,-0.007598591968417168,0.7091525793075562,-0.7046645879745483
4.922210216522217,-1.224930394618318,2.3566918863157844,90.34069234027841,-0.04150390625,0.021484375,1.0048828125,0.0,-0.8544921875,-0.1220703125,0.0,0.0,0.0,-0.02211807854473591,-0.006917885970324278,0.7091704607009888,-0.7046561241149902
4.9429614543914795,-1.1980941544825148,2.5068207249331342,90.34457188772697,-0.0439453125,0.021484375,1.00244140625,0.06103515625,-0.8544921875,-0.244140625,0.0,0.0,0.0,-0.02288200706243515,-0.008006774820387363,0.709182620048523,-0.7046079039573669
4.962339401245117,-1.2656067324466826,2.3901467932007416,90.34430551034934,-0.0419921875,0.02197265625,1.001953125,-0.244140625,-0.732421875,-0.30517578125,0.0,0.0,0.0,-0.022575369104743004,-0.006871256977319717,0.7091930508613586,-0.7046194076538086
4.982372522354126,-1.1932932785479362,2.4686640865782694,90.35256320905589,-0.04345703125,0.02099609375,1.0029296875,-0.1220703125,-0.67138671875,-0.244140625,0.0,0.0,0.0,-0.02261698991060257,-0.007800186052918434,0.7092340588569641,-0.7045671939849854
5.002687454223633,-1.2115182509659401,2.3729537129559386,90.35508354885962,-0.04150390625,0.021484375,1.00537109375,0.0,0.06103515625,-0.06103515625,0.0,0.0,0.0,-0.02213709056377411,-0.007098150905221701,0.7092571258544922,-0.704566478729248
5.017675161361694,-1.156891465201236,2.5297221357767756,90.36095068135666,-0.04541015625,0.01953125,1.00341796875,0.06103515625,-0.42724609375,-0.06103515625,0.0,0.0,0.0,-0.022771526128053665,-0.008399398066103458,0.7092787027359009,-0.7045101523399353
5.042381286621094,-1.1471350735804018,2.4741406176321505,90.36488487031859,-0.04345703125,0.02001953125,1.0029296875,-0.244140625,-1.28173828125,-0.1220703125,0.0,0.0,0.0,-0.022367941215634346,-0.008117149583995342,0.7093062400817871,-0.7044987082481384
5.061314344406128,-1.1444899761026084,2.391337167107028,90.36837509698447,-0.0419921875,0.02001953125,1.00341796875,0.0,-0.9765625,-0.18310546875,0.0,0.0,0.0,-0.021839583292603493,-0.007623564451932907,0.7093333005905151,-0.7044935822486877
5.08245325088501,-1.2533415269663382,2.5205827023370637,90.36567034207314,-0.0439453125,0.021484375,1.00439453125,0.1220703125,-0.18310546875,-0.06103515625,0.0,0.0,0.0,-0.023308265954256058,-0.007745230570435524,0.7093151211738586,-0.704463541507721
5.102532148361206,-1.1864724808880323,2.422941519613735,90.37257566332403,-0.04248046875,0.0205078125,1.0029296875,-0.30517578125,-0.244140625,-0.1220703125,0.0,0.0,0.0,-0.022293509915471077,-0.007557252887636423,0.7093597650527954,-0.7044534683227539
5.117934226989746,-1.1527000769283753,2.3857758990187565,90.37765732406652,-0.04150390625,0.02001953125,1.00341796875,-0.30517578125,-0.79345703125,-0.1220703125,0.0,0.0,0.0,-0.021856257691979408,-0.007536767981946468,0.7093912959098816,-0.7044355869293213
5.143153429031372,-1.1926509206008378,2.4208237340842076,90.37985664497926,-0.04296875,0.02099609375,1.0029296875,0.30517578125,-0.9765625,-0.244140625,0.0,0.0,0.0,-0.022318866103887558,-0.007504560984671116,0.7094051241874695,-0.7044075131416321
5.1623923778533936,-1.3584063782655302,2.4538728850437836,90.37446762572412,-0.04345703125,0.0234375,1.00341796875,0.06103515625,-0.732421875,-0.1220703125,0.0,0.0,0.0,-0.023541942238807678,-0.006682765670120716,0.7093801498413086,-0.7044012546539307
5.182988882064819,-1.3048184215849028,2.4699370630848305,90.38002739970851,-0.04345703125,0.02294921875,1.001953125,-0.3662109375,-0.42724609375,-0.06103515625,0.0,0.0,0.0,-0.023312276229262352,-0.007112165447324514,0.7094101309776306,-0.7043743133544922
5.203299283981323,-1.2512684578315334,2.552414372077085,90.38514321139685,-0.044921875,0.02197265625,1.005859375,-0.06103515625,0.18310546875,0.0,0.0,0.0,0.0,-0.02349381521344185,-0.007949852384626865,0.7094324827194214,-0.7043368816375732
5.222324848175049,-1.188837007001326,2.4449121037395503,90.39611249520388,-0.0380859375,0.0205078125,1.00537109375,0.18310546875,0.8544921875,-1.0986328125,0.0,0.0,0.0,-0.022445568814873695,-0.007673129439353943,0.7095031142234802,-0.7043030261993408
5.2424232959747314,-1.2607250681808277,2.2878499827844028,90.44809706497685,-0.03759765625,0.02490234375,1.00439453125,-0.1220703125,1.220703125,-4.21142578125,0.0,0.0,0.0,-0.021918203681707382,-0.006252305116504431,0.7098367214202881,-0.7039974927902222
5.2623450756073,-1.3063766652110178,2.507516550454829,90.53047597655637,-0.07275390625,0.02392578125,1.00341796875,-0.42724609375,0.244140625,-4.08935546875,0.0,0.0,0.0,-0.023563992232084274,-0.007302697282284498,0.710331916809082,-0.7034344673156738
5.282679080963135,-1.2409369429382429,2.6470203894879893,90.63658296531253,-0.0361328125,0.02197265625,1.0078125,0.48828125,0.54931640625,-4.45556640625,0.0,0.0,0.0,-0.0240345299243927,-0.008542876690626144,0.7109684944152832,-0.7027611136436462
5.310432195663452,-1.2616816148297467,2.505381262565554,90.70592987595566,-0.02294921875,0.0244140625,1.00439453125,0.79345703125,1.52587890625,-4.5166015625,0.0,0.0,0.0,-0.023287951946258545,-0.007530993781983852,0.7114053964614868,-0.7023556232452393
5.318017959594727,-1.3344047733569881,2.467608608908091,90.79127308963497,-0.0498046875,0.02294921875,0.99853515625,0.06103515625,0.244140625,-4.33349609375,0.0,0.0,0.0,-0.023504391312599182,-0.006830376572906971,0.7119353413581848,-0.7018184065818787
5.34242844581604,-1.3281914356463922,2.6823196608922615,90.87316022759425,-0.05908203125,0.0224609375,0.99951171875,0.3662109375,-0.732421875,-3.90625,0.0,0.0,0.0,-0.02480544149875641,-0.008166911080479622,0.7124215364456177,-0.7012656927108765
5.362265348434448,-1.4056309465172332,2.7314526266867483,90.94240468539985,-0.044921875,0.02490234375,1.001953125,0.79345703125,-0.732421875,-3.2958984375,0.0,0.0,0.0,-0.02558945119380951,-0.007970848120748997,0.7128469944000244,-0.7008072733879089
5.383219957351685,-1.357720477862473,2.5156216371221074,90.99145227382971,-0.0361328125,0.0166015625,1.00927734375,0.0,-0.48828125,-1.52587890625,0.0,0.0,0.0,-0.02395748905837536,-0.006937886588275433,0.7131586074829102,-0.7005589604377747
5.402515888214111,-0.9692659552575742,2.493838029424821,91.02790499343007,-0.0146484375,-0.251953125,0.93359375,-11.90185546875,4.7607421875,-1.8310546875,0.0,0.0,0.0,-0.021449942141771317,-0.009215319529175758,0.7133556604385376,-0.7004134058952332
5.4189276695251465,-0.6965488280559827,2.489921769709465,91.14861492663171,-0.0556640625,-0.28564453125,1.10400390625,4.08935546875,2.38037109375,-3.72314453125,0.0,0.0,0.0,-0.019770056009292603,-0.010868246667087078,0.7140695452690125,-0.699711263179779
5.442380905151367,-0.5142674608901799,2.5105066792074138,91.33808437420785,-0.0771484375,-0.2763671875,1.0185546875,1.40380859375,-4.2724609375,-13.61083984375,0.0,0.0,0.0,-0.01880527287721634,-0.01209875289350748,0.7152051329612732,-0.6985569000244141
5.45797324180603,-0.3124379589176683,2.580569692496347,91.57691559891569,-0.0986328125,-0.22802734375,0.9453125,-1.40380859375,-0.244140625,-13.916015625,0.0,0.0,0.0,-0.018040791153907776,-0.013748027384281158,0.7166285514831543,-0.6970861554145813
5.483158588409424,-0.04957800197770198,2.628557961274622,91.86032063814703,-0.11376953125,-0.27490234375,0.99365234375,-1.52587890625,3.84521484375,-12.6953125,0.0,0.0,0.0,-0.016780536621809006,-0.01564234495162964,0.7183103561401367,-0.6953444480895996
5.497930288314819,0.190440441675993,2.5961303575295167,92.18559473699055,-0.07470703125,-0.27001953125,1.001953125,-2.13623046875,-0.244140625,-14.6484375,0.0,0.0,0.0,-0.01516883634030819,-0.016907094046473503,0.7202519774436951,-0.6933405995368958
5.526386976242065,0.4516604528539621,2.4825073859220046,92.55886457513175,-0.02783203125,-0.24267578125,0.95654296875,-2.38037109375,-4.57763671875,-17.578125,0.0,0.0,0.0,-0.012932135723531246,-0.017819492146372795,0.7224848866462708,-0.6910361051559448
5.542184114456177,0.8296423211096744,2.390354687083604,92.937359507988,-0.01416015625,-0.2666015625,0.9189453125,-9.09423828125,-0.8544921875,-16.845703125,0.0,0.0,0.0,-0.010136378929018974,-0.019613569602370262,0.7247172594070435,-0.6886926293373108
5.562555551528931,1.2346715250352256,2.4073607908998778,93.26128122937585,-0.01611328125,-0.33447265625,1.01416015625,-7.32421875,1.0986328125,-14.95361328125,0.0,0.0,0.0,-0.007872632704675198,-0.022254984825849533,0.7265840172767639,-0.6866720914840698
5.583390712738037,1.5415566201989528,2.3998012655925547,93.49709351047055,-0.01416015625,-0.3291015625,1.021484375,-4.45556640625,-2.99072265625,-10.55908203125,0.0,0.0,0.0,-0.006035388447344303,-0.02414310909807682,0.7279349565505981,-0.6851944327354431
5.604205131530762,1.7454833370922023,2.289314418031136,93.63073982196019,-0.02294921875,-0.27734375,1.05029296875,-0.67138671875,-5.43212890625,-4.82177734375,0.0,0.0,0.0,-0.0041426606476306915,-0.024773461744189262,0.7287139296531677,-0.6843575835227966
5.622422456741333,1.8484741587612377,2.2666904836225266,93.675607334618,-0.00390625,-0.2255859375,1.06494140625,3.72314453125,0.0,-2.62451171875,0.0,0.0,0.0,-0.003393537364900112,-0.0252920463681221,0.7289643287658691,-0.6840758919715881
5.6395814418792725,1.9496717356080275,2.2324328160666815,93.7092255257128,-0.03759765625,-0.1787109375,0.97216796875,3.41796875,-1.5869140625,-0.48828125,0.0,0.0,0.0,-0.002578908810392022,-0.0257306769490242,0.729150116443634,-0.6838651299476624
5.66264796257019,2.1414500005670574,2.2107294630921426,93.71433450721197,-0.07568359375,-0.16455078125,0.9296875,-3.47900390625,-2.38037109375,-0.244140625,0.0,0.0,0.0,-0.0012974112760275602,-0.026821454986929893,0.7291415929794312,-0.6838358044624329
5.685962200164795,2.417626565222407,2.198708543596332,93.79581866401023,0.00537109375,-0.1630859375,1.02783203125,0.06103515625,4.0283203125,-4.7607421875,0.0,0.0,0.0,0.0004069718124810606,-0.0285072959959507,0.7295638918876648,-0.6833181977272034
5.702861547470093,2.5097989008546713,2.2177801393063,93.88118236825704,-0.0166015625,-0.162109375,1.0390625,5.126953125,5.18798828125,-4.7607421875,0.0,0.0,0.0,0.0008133248775266111,-0.029208354651927948,0.7300447821617126,-0.6827743053436279
5.72377872467041,2.599153356567482,2.2850306087610686,93.9924803007824,-0.0654296875,-0.12939453125,0.96240234375,6.103515625,-0.67138671875,-4.8828125,0.0,0.0,0.0,0.0008876420906744897,-0.030178798362612724,0.7306670546531677,-0.6820662021636963
5.742546558380127,2.7430334258679165,2.3514170592858306,94.09210544001621,-0.06689453125,-0.0771484375,0.96337890625,-1.40380859375,-2.50244140625,-5.79833984375,0.0,0.0,0.0,0.0012929985532537103,-0.03149206563830376,0.7312032580375671,-0.6814310550689697
5.758183240890503,3.0040384328293754,2.35397624579047,94.21942016614524,-0.05810546875,-0.07958984375,1.0537109375,-3.11279296875,-2.9296875,-5.92041015625,0.0,0.0,0.0,0.0027918911073356867,-0.0331757627427578,0.731885552406311,-0.6806138753890991
5.782537937164307,3.174920801239809,2.3919106895538977,94.32613504173753,-0.07958984375,-0.09130859375,0.99169921875,-3.47900390625,-2.38037109375,-4.94384765625,0.0,0.0,0.0,0.0035321887116879225,-0.03449547290802002,0.7324575185775757,-0.6799290776252747
5.802185773849487,3.361712601217906,2.4021975947741714,94.4545562585121,0.03515625,-0.146484375,0.97265625,-0.6103515625,8.97216796875,-6.34765625,0.0,0.0,0.0,0.004534625913947821,-0.03575543686747551,0.7331586480140686,-0.6791019439697266
5.822402238845825,3.5382979641418886,2.5098080789213686,94.56463158717602,-0.0830078125,-0.22998046875,1.01806640625,2.50244140625,-0.54931640625,-5.06591796875,0.0,0.0,0.0,0.004855803679674864,-0.037526685744524,0.7337202429771423,-0.6783973574638367
5.842851161956787,3.5756921826306507,2.5386412956157542,94.60890487337605,-0.13818359375,-0.109375,1.03173828125,4.57763671875,-6.77490234375,-2.3193359375,0.0,0.0,0.0,0.004877671133726835,-0.037938449531793594,0.7339606285095215,-0.6781140565872192
5.862300872802734,3.7637356147741525,2.6465471854445544,94.6503026499355,-0.06689453125,-0.07763671875,0.8525390625,-10.19287109375,0.18310546875,-1.77001953125,0.0,0.0,0.0,0.005284062121063471,-0.03978225216269493,0.7341057062149048,-0.677848219871521
5.884788990020752,4.003435127280226,2.7252155967574687,94.70316148392223,-0.07421875,-0.1396484375,1.07568359375,3.60107421875,-2.74658203125,-4.39453125,0.0,0.0,0.0,0.006178013980388641,-0.0417851097881794,0.7343053817749023,-0.6775038838386536
5.897494077682495,3.92364656494343,2.798186349642123,94.92704825472607,-0.0361328125,-0.11181640625,1.09716796875,16.845703125,10.43701171875,-14.09912109375,0.0,0.0,0.0,0.0051564620807766914,-0.0417146272957325,0.7356305718421936,-0.676077663898468
5.926769256591797,3.818171795572331,3.1380776936397026,95.52863082625329,-0.13916015625,0.017578125,0.86279296875,-4.94384765625,9.6435546875,-28.076171875,0.0,0.0,0.0,0.002122840378433466,-0.04305084049701691,0.7390845417976379,-0.6722322702407837
5.953216075897217,3.8069369881613064,3.511757983461335,96.39409092617477,-0.16357421875,-0.0263671875,1.12109375,0.8544921875,5.7373046875,-38.87939453125,0.0,0.0,0.0,-0.0006983156781643629,-0.045161906629800797,0.7440020442008972,-0.6666489839553833
5.958680868148804,3.743160950559959,3.6660583601142696,96.82605941004306,-0.1689453125,-0.02685546875,1.1552734375,5.4931640625,10.43701171875,-44.3115234375,0.0,0.0,0.0,-0.0022450333926826715,-0.04563528671860695,0.7464741468429565,-0.6638439297676086
5.9777374267578125,3.52044448998171,3.934774650648673,97.83918819982023,-0.2021484375,0.0126953125,1.072265625,11.474609375,7.87353515625,-52.67333984375,0.0,0.0,0.0,-0.005693141371011734,-0.04568896070122719,0.7522953748703003,-0.6572151780128479
5.99860143661499,3.359176893488539,4.088716869257006,98.98209058382763,-0.21923828125,0.01416015625,0.93701171875,6.04248046875,2.01416015625,-60.11962890625,0.0,0.0,0.0,-0.008084062486886978,-0.04543263465166092,0.7588149309158325,-0.6496695876121521
6.024062156677246,3.387693146716754,4.484326975512845,100.5545503949263,-0.18310546875,-0.126953125,1.00537109375,9.033203125,11.5966796875,-63.41552734375,0.0,0.0,0.0,-0.011202442459762096,-0.04770932346582413,0.7674823999404907,-0.639194130897522
6.056195020675659,3.2788555763964813,4.602361182107128,102.49329276064525,-0.20556640625,0.01025390625,0.99609375,4.2724609375,-4.5166015625,-66.58935546875,0.0,0.0,0.0,-0.01340570580214262,-0.04741692915558815,0.7781809568405151,-0.6261041760444641
6.061913728713989,3.263271219144628,4.598041514343918,102.82655818081768,-0.1904296875,0.0107421875,1.0048828125,3.35693359375,-5.2490234375,-67.2607421875,0.0,0.0,0.0,-0.013598931021988392,-0.04724821075797081,0.7800068259239197,-0.6238366365432739
6.082401990890503,3.3282320811235615,4.664492851665795,104.13573468997987,-0.1767578125,-0.0439453125,0.93017578125,-0.67138671875,-1.3427734375,-63.720703125,0.0,0.0,0.0,-0.014246494509279728,-0.04789145290851593,0.7870272994041443,-0.614891529083252
6.103724718093872,3.463017113213889,4.7941149010738275,105.3596499477328,-0.1123046875,-0.08544921875,0.990234375,4.2724609375,2.9296875,-59.26513671875,0.0,0.0,0.0,-0.014943107962608337,-0.049353692680597305,0.7934352159500122,-0.6064664125442505
6.12303900718689,3.5105646213472865,4.899042828424502,106.46009587585941,-0.125,-0.05908203125,1.09912109375,4.150390625,-3.23486328125,-51.94091796875,0.0,0.0,0.0,-0.015901092439889908,-0.05008595809340477,0.7991542816162109,-0.5988247394561768
6.1422951221466064,3.5505957197424967,4.88609449730545,107.36962435630582,-0.13427734375,-0.0595703125,0.912109375,-0.8544921875,-9.94873046875,-40.34423828125,0.0,0.0,0.0,-0.016000153496861458,-0.050172291696071625,0.8038704991340637,-0.5924685597419739
6.162642002105713,3.700666928638724,4.7830384686741825,108.02420236560316,-0.06005859375,-0.06103515625,0.8623046875,-2.5634765625,-3.2958984375,-28.9306640625,0.0,0.0,0.0,-0.014789204113185406,-0.050610486418008804,0.8072231411933899,-0.5878867506980896
6.182713747024536,3.807016389110408,4.556572447685008,108.41336605394297,-0.052734375,-0.0390625,0.943359375,-8.30078125,-7.2021484375,-15.68603515625,0.0,0.0,0.0,-0.012815559282898903,-0.050158869475126266,0.8092713356018066,-0.585149347782135
6.197983980178833,3.8335896669631655,4.263340900672136,108.63496471137486,0.0,-0.06494140625,1.04638671875,0.9765625,-4.69970703125,-9.46044921875,0.0,0.0,0.0,-0.010699465870857239,-0.048833929002285004,0.8105195760726929,-0.5835741758346558
6.222801923751831,3.710662910489038,4.04296826219626,108.7632834753119,-0.00146484375,-0.01171875,1.1044921875,0.3662109375,1.8310546875,-6.103515625,0.0,0.0,0.0,-0.009816388599574566,-0.046834882348775864,0.8113172650337219,-0.5826442837715149
6.243186950683594,3.5593084798024943,3.980622722339207,108.8348911785703,-0.0654296875,0.02099609375,1.07666015625,-2.0751953125,-1.46484375,-3.23486328125,0.0,0.0,0.0,-0.010172206908464432,-0.04544086009263992,0.8117676973342896,-0.582120954990387
6.263396501541138,3.4274166731559017,3.9581744518583135,108.93584820469226,-0.00830078125,0.0146484375,1.08447265625,0.67138671875,3.90625,-6.591796875,0.0,0.0,0.0,-0.010722043924033642,-0.04438337683677673,0.8123409152030945,-0.5813925862312317
6.282840013504028,3.2405698047776212,3.832164718747572,109.09490281989436,-0.02197265625,-0.01123046875,0.9912109375,4.21142578125,2.50244140625,-9.1552734375,0.0,0.0,0.0,-0.010834263637661934,-0.04240617901086807,0.8132668137550354,-0.5802425742149353
6.302772045135498,2.897649912213376,3.7039552378372624,109.2730546440158,-0.06689453125,0.00146484375,0.94140625,9.33837890625,-7.9345703125,-9.58251953125,0.0,0.0,0.0,-0.011720574460923672,-0.03930643945932388,0.8143374919891357,-0.5789406299591064
6.323574542999268,2.6499272753100644,3.6287582701700067,109.45721703460686,-0.0361328125,0.04443359375,0.970703125,1.28173828125,-0.6103515625,-10.80322265625,0.0,0.0,0.0,-0.01249680295586586,-0.037146784365177155,0.815375804901123,-0.5776039958000183
6.342432737350464,2.517259601862441,3.5862753473061737,109.6870938813128,-0.00439453125,0.02294921875,1.0234375,-0.8544921875,5.92041015625,-11.65771484375,0.0,0.0,0.0,-0.012935084290802479,-0.03596317768096924,0.8165895342826843,-0.5759522318840027
6.362692832946777,2.3259005397637207,3.59316060487637,109.88549721632333,-0.1259765625,0.0107421875,0.94970703125,1.953125,-6.40869140625,-10.19287109375,0.0,0.0,0.0,-0.014005916193127632,-0.0346098318696022,0.817642092704773,-0.5745149254798889
6.382441520690918,2.145461242600559,3.668571015955188,110.10544296797607,0.0078125,0.03955078125,1.09814453125,0.67138671875,11.04736328125,-12.39013671875,0.0,0.0,0.0,-0.015513748861849308,-0.03367001190781593,0.8187726140022278,-0.5729197859764099
6.40250301361084,2.0126409571136676,3.67240744783462,110.30637347297952,-0.15380859375,0.00830078125,1.01123046875,2.62451171875,-10.8642578125,-10.55908203125,0.0,0.0,0.0,-0.016262616962194443,-0.03271165490150452,0.8198131918907166,-0.5714646577835083
6.422463655471802,1.8946613920327449,3.7641893954671355,110.48281091961928,-0.07861328125,0.015625,0.84912109375,0.732421875,3.23486328125,-8.23974609375,0.0,0.0,0.0,-0.01755785197019577,-0.032297585159540176,0.8206964135169983,-0.5701806545257568
6.442545413970947,1.874638905924264,3.843689809198322,110.65323779978944,-0.0634765625,0.052734375,0.896484375,-10.43701171875,2.8076171875,-8.9111328125,0.0,0.0,0.0,-0.0182756669819355,-0.032521989196538925,0.8215237855911255,-0.5689526796340942
6.4625043869018555,1.8709030058916787,3.8217627675284653,110.82345294409534,-0.16064453125,-0.00830078125,1.08740234375,-0.30517578125,-15.9912109375,-8.97216796875,0.0,0.0,0.0,-0.01818498596549034,-0.0323595367372036,0.8223760724067688,-0.5677321553230286
6.482515335083008,1.6667343508914227,3.7610752560924325,110.98947435225084,-0.0595703125,0.00732421875,1.16845703125,5.31005859375,-2.5634765625,-8.544921875,0.0,0.0,0.0,-0.018804941326379776,-0.030566805973649025,0.8232728242874146,-0.5665102601051331
6.499755859375,1.459149427367397,3.633974400261781,111.12217126744584,-0.07666015625,0.06689453125,0.998046875,-2.01416015625,-5.126953125,-6.77490234375,0.0,0.0,0.0,-0.018950337544083595,-0.02842588536441326,0.8240197896957397,-0.5655302405357361
6.522407531738281,1.347593761922577,3.594528350257665,111.24480048380426,-0.03466796875,0.03271484375,1.025390625,-0.6103515625,-1.03759765625,-6.34765625,0.0,0.0,0.0,-0.0192464180290699,-0.027408648282289505,0.8246630430221558,-0.5646319389343262
6.542209148406982,1.1342161976521457,3.5097415835523,111.3581269825131,-0.06005859375,0.0,0.95703125,4.21142578125,-0.54931640625,-5.79833984375,0.0,0.0,0.0,-0.019712457433342934,-0.02543616108596325,0.8252936601638794,-0.5637861490249634
6.562853574752808,0.8207917299666602,3.4802586451131168,111.47260095300251,-0.09521484375,0.02001953125,0.95849609375,7.6904296875,-13.427734375,-7.01904296875,0.0,0.0,0.0,-0.02106500044465065,-0.023012792691588402,0.8259304165840149,-0.5629081726074219
6.582988977432251,0.6292563636099892,3.387493790570354,111.61245590644769,-0.00537109375,0.064453125,0.9892578125,-2.86865234375,0.67138671875,-8.48388671875,0.0,0.0,0.0,-0.021362872794270515,-0.021150752902030945,0.826676607131958,-0.5618738532066345
6.602406978607178,0.5396635983281682,3.3089886634672854,111.77117584238044,-0.0341796875,0.01953125,1.0302734375,-0.8544921875,1.89208984375,-7.38525390625,0.0,0.0,0.0,-0.021263545379042625,-0.020090211182832718,0.8274887204170227,-0.5607197880744934
6.6229941844940186,0.4122175511401665,3.3590471198943086,111.8572840372468,-0.1630859375,0.0048828125,1.02880859375,7.26318359375,-11.90185546875,-3.96728515625,0.0,0.0,0.0,-0.02226327173411846,-0.019398020580410957,0.8279202580451965,-0.5600680708885193
6.642780303955078,0.20682445132905364,3.407463983043002,111.96036525220063,0.021484375,0.05322265625,1.0859375,3.2958984375,9.70458984375,-6.103515625,0.0,0.0,0.0,-0.023633264005184174,-0.018129363656044006,0.8284463286399841,-0.5592759251594543
6.6627819538116455,0.04668198842940335,3.367627758482549,112.05491556088113,-0.1328125,0.037109375,0.98046875,1.0986328125,-8.97216796875,-4.8828125,0.0,0.0,0.0,-0.024140657857060432,-0.016757264733314514,0.8289406299591064,-0.5585640668869019
6.6824562549591064,0.0021544461029896593,3.459371713187806,112.11623016906033,-0.07568359375,0.02099609375,0.81494140625,-2.0751953125,-0.8544921875,-2.38037109375,0.0,0.0,0.0,-0.025030391290783882,-0.01686895079910755,0.829226016998291,-0.558097779750824
6.70236611366272,-0.020455702862780777,3.419625775190444,112.19550817475667,-0.00390625,0.0498046875,0.908203125,-9.521484375,6.9580078125,-4.5166015625,0.0,0.0,0.0,-0.024864306673407555,-0.01649455912411213,0.8296238780021667,-0.5575249791145325
6.718014240264893,-0.008974454189023526,3.4031848695279887,112.24446014053814,-0.1572265625,-0.00439453125,1.1015625,1.46484375,-18.12744140625,-2.9296875,0.0,0.0,0.0,-0.024696463719010353,-0.01648714207112789,0.8298638463020325,-0.5571753978729248
6.738415002822876,-0.09502740806618248,3.332369254769885,112.30243478621321,-0.0341796875,0.00830078125,1.1708984375,8.544921875,-1.8310546875,-2.3193359375,0.0,0.0,0.0,-0.0246098842471838,-0.01550715696066618,0.8301725387573242,-0.5567471981048584
6.7625579833984375,-0.3083295734514792,3.137508440061064,112.33950222283887,-0.03173828125,0.0751953125,0.99462890625,-0.54931640625,-3.72314453125,-1.77001953125,0.0,0.0,0.0,-0.02423875778913498,-0.013007096946239471,0.8304173350334167,-0.5564623475074768
6.782401084899902,-0.40661903717657744,3.0771395996384947,112.37590030092586,0.0048828125,0.056640625,1.01708984375,-1.46484375,2.197265625,-2.5634765625,0.0,0.0,0.0,-0.02428242936730385,-0.011993871070444584,0.8306156992912292,-0.5561870336532593
6.802354574203491,-0.4754978130573066,2.9364840199565414,112.42020773807174,-0.04150390625,0.00927734375,0.97509765625,0.67138671875,2.99072265625,-1.64794921875,0.0,0.0,0.0,-0.02360149845480919,-0.010802567936480045,0.8308616876602173,-0.5558733940124512
6.822408199310303,-0.5122568239532574,2.985149758123117,112.46992468504027,-0.08837890625,0.0068359375,0.97900390625,10.19287109375,-10.6201171875,-2.50244140625,0.0,0.0,0.0,-0.024137286469340324,-0.01076172012835741,0.8310981392860413,-0.5554975867271423
6.842785358428955,-0.6890119811111381,2.905305700499314,112.54877921900807,0.02685546875,0.0693359375,0.9775390625,-1.77001953125,1.28173828125,-5.9814453125,0.0,0.0,0.0,-0.024421371519565582,-0.009075741283595562,0.8315083384513855,-0.5549010634422302
6.862574100494385,-0.7061551689584884,2.8407858126086696,112.63875330094464,-0.02587890625,0.029296875,0.9951171875,-3.7841796875,3.7841796875,-3.84521484375,0.0,0.0,0.0,-0.02404307946562767,-0.008619890548288822,0.8319549560546875,-0.5542550683021545
6.8828654289245605,-0.7305840342161265,2.9872799233705147,112.67658571875734,-0.1005859375,-0.00244140625,1.07421875,6.89697265625,-3.7841796875,-1.953125,0.0,0.0,0.0,-0.025227587670087814,-0.009143088012933731,0.8321171402931213,-0.5539504289627075
6.897558689117432,-0.8205498452205064,2.990092467204679,112.74318006316497,0.00390625,0.0595703125,1.06494140625,2.8076171875,8.85009765625,-2.99072265625,0.0,0.0,0.0,-0.025687841698527336,-0.00848846510052681,0.8324454426765442,-0.5534462332725525
6.9223833084106445,-0.9267643560952293,3.0254325063005596,112.7934639158346,-0.1064453125,0.05078125,0.92822265625,-4.21142578125,-5.0048828125,-3.11279296875,0.0,0.0,0.0,-0.026460934430360794,-0.007876044139266014,0.8326903581619263,-0.5530502200126648
6.942876815795898,-0.8525679044196751,3.178088088023991,112.82583901250047,-0.0615234375,0.0166015625,0.8232421875,-5.2490234375,0.732421875,-1.8310546875,0.0,0.0,0.0,-0.027214383706450462,-0.009144717827439308,0.8328167796134949,-0.5528038740158081
6.963586807250977,-0.7603380457879946,3.1169892711338765,112.88293939396176,-0.00341796875,0.0302734375,0.958984375,-7.87353515625,9.3994140625,-2.8076171875,0.0,0.0,0.0,-0.0263302493840456,-0.009506970643997192,0.8330947160720825,-0.5524215698242188
6.982674837112427,-0.7304662668137967,3.1146663664858374,112.89509030049521,-0.1533203125,0.0107421875,1.1103515625,-0.244140625,-15.625,-1.3427734375,0.0,0.0,0.0,-0.026170391589403152,-0.009710161946713924,0.8331511616706848,-0.5523403882980347
6.997786998748779,-0.7470876922415814,3.0259940759163815,112.93227385033677,-0.02685546875,0.017578125,1.17236328125,6.04248046875,-1.46484375,-1.3427734375,0.0,0.0,0.0,-0.02560891956090927,-0.009153367951512337,0.8333462476730347,-0.5520818829536438
7.022782564163208,-0.8786416713285227,2.8768293611890616,112.96040739952805,0.00244140625,0.07275390625,0.9990234375,-1.8310546875,3.0517578125,-1.220703125,0.0,0.0,0.0,-0.02516002394258976,-0.007471426390111446,0.8335141539573669,-0.5518743395805359
7.042636871337891,-0.9060128540145554,2.8523520976378514,112.98201811806197,-0.01123046875,0.0546875,0.99951171875,-4.33349609375,1.953125,-1.64794921875,0.0,0.0,0.0,-0.02511519193649292,-0.007149647455662489,0.8336235284805298,-0.551715612411499
7.062258720397949,-0.9589176850564759,2.7652962140241613,113.006244799048,-0.03369140625,0.0126953125,0.966796875,-1.52587890625,4.2724609375,-1.3427734375,0.0,0.0,0.0,-0.02473810315132141,-0.0063401502557098866,0.833755373954773,-0.5515432953834534
7.082435846328735,-0.9524394640721304,2.727200193598181,113.04493782069613,-0.06640625,-0.00341796875,1.0,10.80322265625,-6.40869140625,-1.77001953125,0.0,0.0,0.0,-0.02443191036581993,-0.006195561029016972,0.8339462876319885,-0.5512697100639343
7.102767467498779,-1.112848804607407,2.725235660438156,113.10079510772849,-0.0263671875,0.072265625,0.94384765625,-1.8310546875,-1.40380859375,-3.96728515625,0.0,0.0,0.0,-0.025191720575094223,-0.0050064316019415855,0.8342230319976807,-0.5508288145065308
7.12264347076416,-1.1308683377417816,2.6085685588949334,113.20348017171047,0.0029296875,0.05029296875,1.0205078125,-5.79833984375,3.0517578125,-5.37109375,0.0,0.0,0.0,-0.024433109909296036,-0.004292154219001532,0.8347313404083252,-0.5500984787940979
7.1425135135650635,-1.0758668520680787,2.700148802503522,113.26126357208878,-0.09033203125,-0.00390625,1.0830078125,5.37109375,-2.44140625,-2.01416015625,0.0,0.0,0.0,-0.02483856864273548,-0.005120210815221071,0.8349950909614563,-0.5496727824211121
7.1633336544036865,-1.1258039659156287,2.643285983559285,113.35626467325449,0.0009765625,0.03369140625,1.07080078125,1.8310546875,6.2255859375,-4.57763671875,0.0,0.0,0.0,-0.024667590856552124,-0.0044629378244280815,0.8354596495628357,-0.5489799380302429
7.182753324508667,-1.2651101563496816,2.593056345516188,113.45269328395672,-0.07177734375,0.0712890625,0.91552734375,-5.126953125,-4.638671875,-6.103515625,0.0,0.0,0.0,-0.024971552193164825,-0.0031854589469730854,0.8359318375587463,-0.5482556819915771
7.2024641036987305,-1.2008721204840058,2.6771434447184497,113.54526966796708,-0.06298828125,0.02685546875,0.8251953125,-8.6669921875,-2.25830078125,-5.06591796875,0.0,0.0,0.0,-0.025280682370066643,-0.004036255180835724,0.8363626599311829,-0.5475783944129944
7.22235107421875,-1.0138110616422222,2.6491582386982033,113.65481224187573,0.00390625,-0.01220703125,0.9921875,-0.6103515625,4.638671875,-6.53076171875,0.0,0.0,0.0,-0.02418760024011135,-0.005244597792625427,0.8368816375732422,-0.5468240976333618
7.242815256118774,-0.974886027005731,2.670317097529845,113.7416922481183,-0.126953125,0.041015625,1.056640625,-3.41796875,-11.04736328125,-3.41796875,0.0,0.0,0.0,-0.02416059747338295,-0.005611589644104242,0.837291419506073,-0.5461940169334412
7.262480020523071,-0.9875850562200773,2.623718985691079,113.8528877278061,-0.07421875,0.001953125,1.1826171875,5.126953125,-7.4462890625,-4.94384765625,0.0,0.0,0.0,-0.023885861039161682,-0.0052733817137777805,0.8378276228904724,-0.5453866720199585
7.282450199127197,-1.1013713120374353,2.376866984463533,113.98493577502997,0.005859375,0.05078125,1.044921875,4.5166015625,-2.62451171875,-6.65283203125,0.0,0.0,0.0,-0.022626763209700584,-0.003239748300984502,0.8384884595870972,-0.5444397330284119
7.302483797073364,-1.1610565999344744,2.3432485799253184,114.09389095267001,-0.01806640625,0.0537109375,0.978515625,-3.90625,-0.1220703125,-5.615234375,0.0,0.0,0.0,-0.02266690880060196,-0.0026216458063572645,0.8390107750892639,-0.5436362624168396
7.322282314300537,-1.1613132656368788,2.38231299310956,114.2033788850653,-0.03076171875,0.01513671875,0.970703125,-1.28173828125,2.13623046875,-6.34765625,0.0,0.0,0.0,-0.022956736385822296,-0.002783277304843068,0.8395258188247681,-0.5428276062011719
7.342399597167969,-1.174028943437327,2.322581494713918,114.32962810168382,-0.04443359375,-0.02197265625,1.056640625,13.3056640625,-3.2958984375,-6.28662109375,0.0,0.0,0.0,-0.022582119330763817,-0.002382103353738785,0.8401297330856323,-0.5419100522994995
7.362834453582764,-1.3361568236008021,2.3692167457062956,114.46968796080411,-0.072265625,0.06298828125,0.9267578125,2.5634765625,-2.685546875,-7.080078125,0.0,0.0,0.0,-0.02369232289493084,-0.001385189825668931,0.8407894968986511,-0.5408417582511902
7.3837690353393555,-1.507326593564905,2.331538434036743,114.62699404757868,-0.033203125,0.05322265625,0.96826171875,-3.7841796875,-1.3427734375,-8.6669921875,0.0,0.0,0.0,-0.024223720654845238,8.194953261408955e-05,0.8415355086326599,-0.5396584868431091
7.402498483657837,-1.4837770618020532,2.4675738176320063,114.75400824538423,-0.07373046875,-0.00439453125,1.0849609375,5.55419921875,0.30517578125,-5.37109375,0.0,0.0,0.0,-0.025112273171544075,-0.0007043324294500053,0.8421205878257751,-0.5387038588523865
7.422382593154907,-1.5281701964776684,2.415746769096773,114.8958029725537,-0.033203125,0.02001953125,1.1044921875,8.1787109375,1.64794921875,-6.7138671875,0.0,0.0,0.0,-0.024940377101302147,-0.00010337847925256938,0.8427915573120117,-0.5376620888710022
7.442618370056152,-1.7478306810108653,2.462608910435642,115.03072652941813,-0.07568359375,0.0712890625,0.91015625,-0.48828125,-4.57763671875,-7.6904296875,0.0,0.0,0.0,-0.02631395123898983,0.0013230768963694572,0.8434186577796936,-0.53661048412323
7.462412595748901,-1.686223441914408,2.573479315807639,115.14604744336462,-0.0771484375,0.05615234375,0.77880859375,-12.63427734375,-0.42724609375,-5.43212890625,0.0,0.0,0.0,-0.026840776205062866,0.0003769323811866343,0.8439485430717468,-0.5357520580291748
7.482767105102539,-1.46363269950557,2.6588445141583392,115.25067228107088,-0.05224609375,-0.02490234375,0.97900390625,-1.46484375,-0.3662109375,-4.7607421875,0.0,0.0,0.0,-0.02643001265823841,-0.0016377950087189674,0.8444272875785828,-0.5350154638290405
7.502406597137451,-1.3495477296337295,2.7069742959184806,115.33796209866364,-0.11376953125,0.0224609375,1.0927734375,-0.9765625,-8.1787109375,-3.35693359375,0.0,0.0,0.0,-0.026253946125507355,-0.0026834041345864534,0.844826877117157,-0.534388542175293
7.522512674331665,-1.389530803261338,2.7197657461300335,115.3970568953626,-0.10498046875,0.03076171875,1.138671875,2.74658203125,-10.009765625,-2.99072265625,0.0,0.0,0.0,-0.02653593197464943,-0.0024346522986888885,0.8451016545295715,-0.5339411497116089
7.542818307876587,-1.4202141474471508,2.6056962509055315,115.46291357933985,-0.03515625,0.0244140625,1.05517578125,4.8828125,-7.38525390625,-2.99072265625,0.0,0.0,0.0,-0.025838905945420265,-0.0016615161439403892,0.8454220294952393,-0.5334709882736206
7.563304901123047,-1.5200536905878719,2.4897896482377075,115.50776060143016,0.02490234375,0.056640625,0.9794921875,0.732421875,3.662109375,-2.3193359375,0.0,0.0,0.0,-0.025449028238654137,-0.00037487992085516453,0.8456437587738037,-0.5331405997276306
7.582374811172485,-1.3132859351650146,2.374471722498974,115.55199290649516,-0.05126953125,-0.03173828125,0.8935546875,-12.451171875,-1.15966796875,-0.732421875,0.0,0.0,0.0,-0.023636773228645325,-0.001354637905023992,0.8458592891693115,-0.5328803658485413
7.602365732192993,-0.9733085734725755,2.376733582331306,115.58444996543106,0.00146484375,-0.19873046875,1.07568359375,-0.67138671875,0.48828125,-1.64794921875,0.0,0.0,0.0,-0.022073475643992424,-0.0038684499450027943,0.8460022807121277,-0.5327082276344299
7.62234902381897,-0.836655164479132,2.2580823108341948,115.62914672335963,-0.0205078125,-0.2021484375,1.0,3.2958984375,-10.19287109375,-2.5634765625,0.0,0.0,0.0,-0.020564066246151924,-0.004317429382354021,0.846218466758728,-0.5324216485023499
7.642401933670044,-0.5786078428717,2.113610149510085,115.63701510128348,-0.052734375,-0.19677734375,0.875,-5.06591796875,-10.43701171875,3.0517578125,0.0,0.0,0.0,-0.018298698589205742,-0.00555022107437253,0.846260130405426,-0.5324267148971558
7.6628570556640625,-0.26002973065317536,1.9246454956022778,115.35063892976318,0.02587890625,-0.27099609375,1.00537109375,-6.40869140625,-0.8544921875,20.1416015625,0.0,0.0,0.0,-0.015405389480292797,-0.007063229102641344,0.8449305891990662,-0.5346075892448425
7.6873016357421875,-0.05648705181818061,1.789041587863489,114.90175889750995,0.0654296875,-0.283203125,1.0703125,-0.732421875,-13.61083984375,22.88818359375,0.0,0.0,0.0,-0.01342475600540638,-0.007983977906405926,0.8428318500518799,-0.5379503965377808
7.702856540679932,0.2744740332830185,1.6029820055087585,114.27002104079713,0.00537109375,-0.18603515625,0.8212890625,-11.90185546875,-3.41796875,37.90283203125,0.0,0.0,0.0,-0.010449704714119434,-0.009602517820894718,0.8398488759994507,-0.5426347255706787
7.722917556762695,0.7291183183089242,1.50631529868092,113.33326742631905,0.02197265625,-0.28125,0.95166015625,-8.4228515625,-15.07568359375,50.72021484375,0.0,0.0,0.0,-0.007485941518098116,-0.012538501061499119,0.8353524804115295,-0.5495207905769348
7.74277925491333,0.9366656757925149,1.0568924798320776,112.1472597184597,0.05615234375,-0.34814453125,1.14501953125,-3.11279296875,-21.484375,65.673828125,0.0,0.0,0.0,-0.003090717364102602,-0.011929446831345558,0.8296504616737366,-0.5581473112106323
7.763177394866943,0.9975753818199845,0.6267728961556019,110.5974693052163,0.21240234375,-0.28515625,1.0888671875,6.53076171875,-15.380859375,81.54296875,0.0,0.0,0.0,0.0004593188932631165,-0.01027056947350502,0.8220609426498413,-0.5693067312240601
7.782698631286621,1.0282539235290373,0.4948277820169716,108.73896800186665,0.2529296875,-0.2392578125,1.04150390625,4.57763671875,3.173828125,97.412109375,0.0,0.0,0.0,0.0017176477704197168,-0.009808649308979511,0.8127277493476868,-0.5825586318969727
7.804680109024048,1.193184102242922,0.3409616826652878,106.59293622502699,0.109375,-0.2080078125,0.89208984375,-4.57763671875,-19.1650390625,111.02294921875,0.0,0.0,0.0,0.003837742144241929,-0.010126165114343166,0.8016732931137085,-0.5976645350456238
7.817818641662598,1.3715919517365343,0.058781275007790866,104.22582488513234,0.2275390625,-0.3046875,1.02783203125,2.74658203125,-3.90625,121.15478515625,0.0,0.0,0.0,0.006945505738258362,-0.009761284105479717,0.7891620993614197,-0.6140680909156799
7.843903541564941,1.4706299081451306,-0.03447392575239809,101.62648711345727,0.14697265625,-0.1884765625,0.7607421875,-4.08935546875,-9.6435546875,135.19287109375,0.0,0.0,0.0,0.008341891691088676,-0.009756908752024174,0.775029182434082,-0.6317951679229736
7.8627331256866455,1.7479159516537845,-0.6567806919438183,98.81535883599844,0.17919921875,-0.26025390625,0.96923828125,-3.23486328125,-26.123046875,146.05712890625,0.0,0.0,0.0,0.014276174828410149,-0.007853321731090546,0.7593145966529846,-0.6505197882652283
7.88259744644165,2.014318195441729,-0.7502074878666906,95.83943175424555,0.4404296875,-0.33251953125,1.20947265625,-1.15966796875,4.08935546875,152.03857421875,0.0,0.0,0.0,0.016637861728668213,-0.008658967912197113,0.7421530485153198,-0.6699680089950562
7.902806282043457,2.052500020119158,-0.8883920865338333,92.76089474059155,0.30126953125,-0.337890625,1.1103515625,1.03759765625,-1.03759765625,157.8369140625,0.0,0.0,0.0,0.017966967076063156,-0.007618255913257599,0.7238944172859192,-0.6896347999572754
7.918497562408447,2.0777544311318685,-1.2367114037195321,89.5352081314588,0.2568359375,-0.30859375,0.97021484375,10.6201171875,-25.69580078125,162.353515625,0.0,0.0,0.0,0.020470505580306053,-0.005106762982904911,0.7042150497436523,-0.709673285484314
7.942795515060425,2.154288835215977,-1.0215950226968038,86.05933169302848,0.341796875,-0.1787109375,0.796875,-2.86865234375,6.77490234375,177.79541015625,0.0,0.0,0.0,0.019823547452688217,-0.006311522796750069,0.6823517680168152,-0.7307279706001282
7.963865518569946,2.5101209869627197,-1.574208232804493,82.47868698291934,0.142578125,-0.28857421875,0.8330078125,-3.662109375,-38.26904296875,178.7109375,0.0,0.0,0.0,0.02552224136888981,-0.004110022448003292,0.6592118740081787,-0.7515128254890442
7.983064413070679,2.7511730903678675,-1.9063463515987558,78.79064437830091,0.4873046875,-0.38818359375,1.1494140625,1.15966796875,-3.96728515625,185.36376953125,0.0,0.0,0.0,0.029103882610797882,-0.0023820793721824884,0.6347053050994873,-0.7722023725509644
8.004455089569092,2.7821616586322153,-1.9886356169454231,75.02184161693626,0.4189453125,-0.3681640625,1.17724609375,11.77978515625,-18.9208984375,188.29345703125,0.0,0.0,0.0,0.029817664995789528,-0.0010188850574195385,0.6089756488800049,-0.7926276922225952
8.023613929748535,2.8390434740400816,-1.9864742889599372,71.11870952516496,0.44140625,-0.24560546875,0.900390625,-2.50244140625,20.56884765625,198.8525390625,0.0,0.0,0.0,0.030227627605199814,-0.00030692110885865986,0.5816295146942139,-0.812891960144043
8.043051958084106,2.926642784579611,-2.1492852947621195,67.11755055842563,0.23095703125,-0.3095703125,0.875,9.33837890625,-37.90283203125,198.79150390625,0.0,0.0,0.0,0.03164093568921089,0.0015095982234925032,0.5529137253761292,-0.8326362371444702
8.062728643417358,3.2368473516799643,-2.780966588970875,62.969583505666066,0.3369140625,-0.30078125,0.8388671875,3.35693359375,-26.91650390625,207.09228515625,0.0,0.0,0.0,0.03674646466970444,0.005939162336289883,0.5224946141242981,-0.8518297672271729
8.08323621749878,3.3960268312778155,-2.5752818454182878,58.721451728728255,0.57373046875,-0.36376953125,1.169921875,14.70947265625,11.3525390625,216.00341796875,0.0,0.0,0.0,0.036832064390182495,0.005051705986261368,0.4905477464199066,-0.8706209063529968
8.102591037750244,3.5072694819595784,-2.559289170920114,54.39497426691581,0.29931640625,-0.353515625,0.95703125,7.568359375,-30.57861328125,216.97998046875,0.0,0.0,0.0,0.037414006888866425,0.005870336666703224,0.45733875036239624,-0.8884857892990112
8.12250542640686,3.5155466040165764,-2.9545404788011163,49.99957336618877,0.490234375,-0.34716796875,0.986328125,15.2587890625,-23.62060546875,219.970703125,0.0,0.0,0.0,0.038681045174598694,0.010394968092441559,0.4229923188686371,-0.9052475690841675
8.142738819122314,3.6208437884692546,-3.1553663965328855,45.47654355063087,0.375,-0.24169921875,0.82568359375,9.6435546875,-34.60693359375,224.18212890625,0.0,0.0,0.0,0.039762672036886215,0.013173209503293037,0.3869849741458893,-0.9211341738700867
8.158218622207642,3.8609240840215566,-3.162497967800025,40.83755761353367,0.57958984375,-0.2255859375,0.94091796875,-2.38037109375,8.36181640625,233.3984375,0.0,0.0,0.0,0.0411796048283577,0.01409793458878994,0.34941959381103516,-0.9359548091888428
8.182454824447632,3.9398703986563257,-3.3090832188986075,36.32760419514176,0.66162109375,-0.34912109375,1.1611328125,13.18359375,-18.00537109375,222.2900390625,0.0,0.0,0.0,0.04164397716522217,0.016706760972738266,0.3123636245727539,-0.9489023685455322
8.202905178070068,3.9828694276893177,-3.511228003470424,31.907413122822156,0.64697265625,-0.30419921875,1.009765625,19.775390625,-19.83642578125,217.7734375,0.0,0.0,0.0,0.04181164503097534,0.01989172026515007,0.275589257478714,-0.9601597189903259
8.217803478240967,4.13068368595168,-3.3946887545307276,27.5395993561528,0.55029296875,-0.22265625,0.806640625,5.18798828125,-0.18310546875,216.85791015625,0.0,0.0,0.0,0.04203367233276367,0.020175602287054062,0.2387993484735489,-0.9699490666389465
8.23767876625061,4.467337306839261,-3.169351422301898,23.166067013600845,0.40283203125,-0.228515625,0.66015625,-7.8125,-11.04736328125,215.4541015625,0.0,0.0,0.0,0.043715085834264755,0.01924780011177063,0.20161442458629608,-0.978299617767334
8.262908697128296,4.7243799503084665,-3.5809275226294655,18.90430900926886,0.6376953125,-0.41357421875,1.109375,6.8359375,-28.25927734375,206.84814453125,0.0,0.0,0.0,0.04576358571648598,0.024028608575463295,0.16527456045150757,-0.9848923087120056
8.28299331665039,4.751748091425885,-3.417531895323012,14.82172223479194,0.83984375,-0.36474609375,1.2119140625,18.37158203125,4.7607421875,200.13427734375,0.0,0.0,0.0,0.044933248311281204,0.024200033396482468,0.1300412118434906,-0.9901943206787109
8.297645092010498,4.7887002686093,-3.301727532049327,10.815375739377997,0.58740234375,-0.28125,0.90966796875,4.45556640625,-4.69970703125,198.73046875,0.0,0.0,0.0,0.0442865751683712,0.024720238521695137,0.09531872719526291,-0.9941539764404297
8.31768012046814,4.9542047168219945,-3.264533523480611,6.929169710143637,0.59423828125,-0.27099609375,0.923828125,5.7373046875,-15.7470703125,189.697265625,0.0,0.0,0.0,0.044843390583992004,0.02579514868557453,0.06157946214079857,-0.9967605471611023
8.342596769332886,5.251370879683616,-2.836713525759461,3.2722789579994056,0.56396484375,-0.19580078125,0.7666015625,-6.591796875,19.10400390625,180.72509765625,0.0,0.0,0.0,0.04648410528898239,0.0234088022261858,0.029646892100572586,-0.9982045888900757
8.362832307815552,5.412688848821917,-2.8563940755226183,-0.1372524646084211,0.50927734375,-0.31201171875,0.94970703125,5.37109375,-21.484375,161.2548828125,0.0,0.0,0.0,0.047172535210847855,0.024952877312898636,-1.9201368559151888e-05,-0.9985750913619995
8.377631664276123,5.452517389419554,-2.838388416209995,-3.146279470172418,0.80908203125,-0.2744140625,1.18505859375,10.498046875,-2.3193359375,141.2353515625,0.0,0.0,0.0,0.046852562576532364,0.02603510208427906,-0.026235951110720634,-0.998217761516571
8.403020143508911,5.3720846548666605,-2.7750322217991914,-5.618749252778854,0.75341796875,-0.19482421875,1.12744140625,10.986328125,-6.34765625,114.07470703125,0.0,0.0,0.0,0.0456075482070446,0.026454919949173927,-0.047811590135097504,-0.9974638819694519
8.423033714294434,5.325263708106223,-2.9096808635495304,-7.684618514424666,0.54296875,-0.14990234375,0.85498046875,5.06591796875,-8.11767578125,98.2666015625,0.0,0.0,0.0,0.04463610798120499,0.02841658517718315,-0.06573997437953949,-0.9964328408241272
8.442548036575317,5.277428905140861,-2.8463605276318695,-9.417357252134153,0.6220703125,-0.1650390625,0.962890625,9.765625,4.69970703125,81.84814453125,0.0,0.0,0.0,0.043831776827573776,0.0285046249628067,-0.08083757013082504,-0.9953550100326538
8.462683916091919,5.219387665121386,-2.914424003041281,-10.90590392041099,0.490234375,-0.12158203125,0.8212890625,3.60107421875,-3.84521484375,70.73974609375,0.0,0.0,0.0,0.04289718344807625,0.02961449697613716,-0.09374643862247467,-0.9942306280136108
8.477757215499878,5.450371002472877,-3.0231036252369967,-12.20696616483921,0.50634765625,-0.06201171875,0.7861328125,-11.3525390625,-11.53564453125,58.9599609375,0.0,0.0,0.0,0.0444580540060997,0.03125280141830444,-0.10492024570703506,-0.9929947257041931
8.498535633087158,5.505856471082299,-3.329509326498354,-13.1114309137897,0.79736328125,-0.1650390625,1.23681640625,6.65283203125,-2.5634765625,35.2783203125,0.0,0.0,0.0,0.044382043182849884,0.03430924192070961,-0.11260324716567993,-0.9920552372932434
8.522823810577393,5.286297905778123,-3.4467290330341127,-13.574399064979735,0.72802734375,-0.12109375,1.17041015625,15.5029296875,-10.55908203125,16.4794921875,0.0,0.0,0.0,0.042220987379550934,0.03527885675430298,-0.1166258454322815,-0.9916508197784424
8.542784929275513,5.145268586682523,-3.553249888565281,-13.752329761726799,0.6494140625,-0.02978515625,0.95849609375,1.0986328125,7.50732421875,3.41796875,0.0,0.0,0.0,0.040833521634340286,0.03612028807401657,-0.11816409230232239,-0.9914964437484741
8.563292980194092,5.049887983131057,-3.4934863736579045,-13.60034780741026,0.57275390625,-0.0224609375,0.94482421875,5.2490234375,6.40869140625,-13.48876953125,0.0,0.0,0.0,0.04011834040284157,0.03545179218053818,-0.1169036403298378,-0.99169921875
8.582758903503418,5.00447789732105,-3.766871098490012,-13.117965697278109,0.44921875,0.02783203125,0.78369140625,-2.8076171875,-9.033203125,-30.70068359375,0.0,0.0,0.0,0.03959864377975464,0.03760421648621559,-0.11262992024421692,-0.9921352863311768
8.602862119674683,4.828888247912008,-4.019501012868566,-12.193181989320477,0.642578125,0.02294921875,1.03857421875,6.34765625,10.3759765625,-55.72509765625,0.0,0.0,0.0,0.03814224153757095,0.039311669766902924,-0.10457631945610046,-0.9930073022842407
8.618971824645996,4.55718588404984,-4.094551131468666,-10.789980242270243,0.5419921875,0.087890625,0.98681640625,4.69970703125,1.953125,-76.66015625,0.0,0.0,0.0,0.036200907081365585,0.039273474365472794,-0.09247290343046188,-0.9942816495895386
8.637762308120728,4.4169189848203425,-4.202969285485217,-8.990180999742277,0.41943359375,0.1083984375,0.81396484375,-5.18798828125,17.9443359375,-93.994140625,0.0,0.0,0.0,0.035519178956747055,0.03954778239130974,-0.07685406506061554,-0.995624303817749
8.666532278060913,4.240609177340688,-4.055175944677188,-6.30664791305528,0.09765625,0.1083984375,1.01220703125,-6.2255859375,15.9912109375,-109.43603515625,0.0,0.0,0.0,0.034973811358213425,0.03733684867620468,-0.05362899601459503,-0.9972496032714844
8.683116674423218,3.911552434357453,-3.8527961589092414,-4.597041745404157,-0.13427734375,0.1494140625,1.25341796875,13.7939453125,20.01953125,-112.6708984375,0.0,0.0,0.0,0.0327339693903923,0.03493700921535492,-0.03891365975141525,-0.9980950951576233
8.702686548233032,3.3688983871115825,-3.4410877236665054,-2.310521088186968,-0.1943359375,0.2958984375,1.08447265625,9.521484375,21.54541015625,-112.60986328125,0.0,0.0,0.0,0.028770634904503822,0.030597951263189316,-0.019261542707681656,-0.9989320039749146
8.718747615814209,2.898115005407172,-3.1994019067724273,-0.0545206443581979,-0.2509765625,0.3271484375,0.98583984375,13.427734375,12.14599609375,-111.9384765625,0.0,0.0,0.0,0.02526499144732952,0.02791951410472393,0.0002305089874425903,-0.9992908835411072
8.742453813552856,2.353564086562742,-2.969128695651206,2.1944125680518054,-0.2275390625,0.3173828125,1.044921875,13.427734375,8.48388671875,-109.375,0.0,0.0,0.0,0.0210226122289896,0.02550429478287697,0.01967020146548748,-0.9992600679397583
8.765628814697266,1.9794571233613953,-2.644939956555486,4.911581348193353,-0.2177734375,0.35205078125,0.9423828125,-0.91552734375,11.1083984375,-107.421875,0.0,0.0,0.0,0.01824147067964077,0.022314835339784622,0.04322899505496025,-0.9986494183540344
8.777844190597534,1.8116425771053555,-2.5375557224245453,6.51403465437167,-0.25439453125,0.3330078125,0.97509765625,1.3427734375,2.9296875,-106.8115234375,0.0,0.0,0.0,0.017037373036146164,0.021206047385931015,0.057143520563840866,-0.9979953765869141
8.802846193313599,1.5042451110321715,-2.512730332669076,8.672708684478208,-0.23046875,0.31640625,0.99462890625,4.0283203125,-2.62451171875,-106.8115234375,0.0,0.0,0.0,0.014743622392416,0.02086901292204857,0.0758737251162529,-0.9967901110649109
8.822641611099243,1.1907607724697424,-2.4589707674855523,10.796409157826517,-0.1640625,0.3076171875,0.96435546875,3.96728515625,5.0048828125,-105.3466796875,0.0,0.0,0.0,0.012361188419163227,0.020383257418870926,0.09427234530448914,-0.9952611327171326
8.842484712600708,0.8600404515367863,-2.291256326189535,12.832071054094301,-0.20849609375,0.31591796875,0.96728515625,4.21142578125,-2.50244140625,-101.01318359375,0.0,0.0,0.0,0.009690867736935616,0.019029347226023674,0.111870676279068,-0.993493378162384
8.858253479003906,0.6832628828206915,-2.193111417014918,14.806774365793368,-0.22509765625,0.37353515625,1.0048828125,-3.90625,1.89208984375,-97.16796875,0.0,0.0,0.0,0.008377650752663612,0.01820930279791355,0.12894147634506226,-0.9914497137069702
8.88278865814209,0.4703397929343305,-2.0584928707856096,16.702710228436555,-0.22998046875,0.3203125,1.12353515625,3.662109375,4.08935546875,-91.12548828125,0.0,0.0,0.0,0.006669243797659874,0.01717609353363514,0.14529134333133698,-0.9892174005508423
8.90279507637024,0.15136150099955184,-1.9625447212027975,18.460512345305403,-0.23095703125,0.30615234375,0.99169921875,4.57763671875,-0.42724609375,-84.8388671875,0.0,0.0,0.0,0.004050568211823702,0.016691992059350014,0.1604011058807373,-0.9869025349617004
8.926151752471924,-0.026702734616923938,-1.7588115974838359,20.47815193367446,-0.18798828125,0.3505859375,0.93408203125,-4.7607421875,3.11279296875,-78.91845703125,0.0,0.0,0.0,0.002498897025361657,0.015144918113946915,0.1777314692735672,-0.9839593172073364
8.937837839126587,-0.10069158255925356,-1.6290996883995352,21.61176696795794,-0.21533203125,0.333984375,1.017578125,-3.11279296875,3.662109375,-74.40185546875,0.0,0.0,0.0,0.0018022317672148347,0.014128735288977623,0.18745087087154388,-0.982170820236206
8.958597421646118,-0.3101563022089138,-1.4527835843392394,23.01514544615295,-0.20654296875,0.30126953125,1.0361328125,3.90625,4.2724609375,-66.650390625,0.0,0.0,0.0,-0.00012286312994547188,0.012962623499333858,0.19944705069065094,-0.9798228740692139
8.982799768447876,-0.5603607256997465,-1.2873435960368367,24.268746413586044,-0.20556640625,0.310546875,0.978515625,4.2724609375,-1.3427734375,-60.4248046875,0.0,0.0,0.0,-0.0024190847761929035,0.01201067678630352,0.21013563871383667,-0.9775955080986023
9.003068447113037,-0.6832672050497757,-1.1912242648379514,25.38666396560954,-0.1748046875,0.35107421875,0.9853515625,-3.90625,0.732421875,-54.931640625,0.0,0.0,0.0,-0.0035324308555573225,0.011451073922216892,0.21965640783309937,-0.9755037426948547
9.02643609046936,-0.8034882994780791,-1.0682508709783973,26.42050188895018,-0.12841796875,0.32861328125,1.04443359375,-2.0751953125,2.8076171875,-49.49951171875,0.0,0.0,0.0,-0.004695577081292868,0.010677486658096313,0.2284458577632904,-0.9734867811203003
9.043337345123291,-0.9416900269789997,-0.9554684395256196,27.34912928586324,-0.11279296875,0.3095703125,0.99267578125,-2.25830078125,1.220703125,-43.8232421875,0.0,0.0,0.0,-0.006013409700244665,0.010043972171843052,0.23632404208183289,-0.9716038107872009
9.06271743774414,-1.0599991486873757,-0.8747939269482784,28.157864664727768,-0.087890625,0.294921875,0.98046875,-1.89208984375,-1.40380859375,-38.818359375,0.0,0.0,0.0,-0.0071150436997413635,0.009654413908720016,0.24317236244678497,-0.9699090123176575
9.07827091217041,-1.2349360881438578,-0.8336046312410751,28.878265207056522,-0.07373046875,0.28125,1.0185546875,1.77001953125,-3.72314453125,-34.60693359375,0.0,0.0,0.0,-0.00862216018140316,0.009731418453156948,0.24925437569618225,-0.9683508276939392
9.10243535041809,-1.4676712622957515,-0.8332025572145435,29.51257462999185,-0.04736328125,0.2958984375,1.04443359375,1.64794921875,-1.64794921875,-28.4423828125,0.0,0.0,0.0,-0.0105329230427742,0.01029269676655531,0.25459036231040955,-0.9669369459152222
9.123037338256836,-1.6765031222301279,-0.8358674515687592,30.06191649965222,-0.005859375,0.29345703125,1.04443359375,0.54931640625,-0.732421875,-24.90234375,0.0,0.0,0.0,-0.012237312272191048,0.010837920941412449,0.2592032253742218,-0.9656844139099121
9.1428804397583,-1.8563293031935755,-0.8727824895985625,30.45418450896981,-0.01171875,0.25732421875,1.01318359375,-0.06103515625,-1.708984375,-15.2587890625,0.0,0.0,0.0,-0.013629516586661339,0.011602455750107765,0.2624843418598175,-0.9647702574729919
9.162878274917603,-2.0675947381848863,-0.8724378852105942,30.68722031816689,-0.01708984375,0.23974609375,1.013671875,3.2958984375,-3.23486328125,-9.27734375,0.0,0.0,0.0,-0.015384366735816002,0.012114772573113441,0.2644239366054535,-0.9642077088356018
9.182539701461792,-2.292863555078604,-0.876245822394582,30.79637357129286,-0.03955078125,0.25244140625,0.966796875,1.52587890625,-0.54931640625,-2.86865234375,0.0,0.0,0.0,-0.01725894585251808,0.012683046981692314,0.2653172016143799,-0.9639232754707336
9.202599048614502,-2.4931057050797487,-0.8570251898224902,30.827283592381754,-0.029296875,0.25634765625,1.0087890625,0.30517578125,-0.732421875,-0.42724609375,0.0,0.0,0.0,-0.018984366208314896,0.012990115210413933,0.26555848121643066,-0.9638202786445618
9.224201679229736,-2.653677262607813,-0.8211313184344566,30.833027781473735,-0.03759765625,0.23046875,1.01806640625,-0.9765625,-0.732421875,-0.1220703125,0.0,0.0,0.0,-0.020417526364326477,0.013061375357210636,0.2655959129333496,-0.9637797474861145
9.242341756820679,-2.8170139795326747,-0.7663564563029808,30.83944132910438,-0.04833984375,0.21435546875,0.99365234375,-0.6103515625,-0.1220703125,-0.3662109375,0.0,0.0,0.0,-0.021917639300227165,0.012980535626411438,0.2656431794166565,-0.9637348055839539
9.262470722198486,-2.9855497510763858,-0.7215982800327401,30.866219085745414,-0.03466796875,0.1982421875,0.99267578125,-0.48828125,-0.9765625,-1.64794921875,0.0,0.0,0.0,-0.023435872048139572,0.013000317849218845,0.2658594846725464,-0.9636391997337341
9.2824227809906,-3.156494231519584,-0.672590979046811,30.898898125829337,-0.037109375,0.1845703125,1.0205078125,0.3662109375,-1.89208984375,-1.5869140625,0.0,0.0,0.0,-0.024983501061797142,0.01299196295440197,0.2661266028881073,-0.963526725769043
9.302340745925903,-3.3137636060273588,-0.6014657646202353,30.91250044756142,-0.04248046875,0.16015625,0.99169921875,-0.67138671875,-0.8544921875,-0.54931640625,0.0,0.0,0.0,-0.02646970935165882,0.01276236493140459,0.2662411332130432,-0.9634584188461304
9.322401285171509,-3.497148849156912,-0.5446389108908465,30.91795093851909,-0.03857421875,0.17822265625,1.015625,0.42724609375,-0.06103515625,0.244140625,0.0,0.0,0.0,-0.028143098577857018,0.012712037190794945,0.2662814259529114,-0.9634005427360535
9.342277526855469,-3.6418794904524243,-0.4807145834793154,30.929736429931946,-0.01953125,0.13427734375,0.96826171875,-4.150390625,1.03759765625,-0.67138671875,0.0,0.0,0.0,-0.029507270082831383,0.012514015659689903,0.26638200879096985,-0.9633345007896423
9.362530946731567,-3.7484812410365755,-0.3236593994350439,30.9414775251152,-0.0341796875,0.08984375,1.03271484375,0.06103515625,1.708984375,0.06103515625,0.0,0.0,0.0,-0.030767666175961494,0.011444785632193089,0.2665134072303772,-0.963271975517273
9.382511854171753,-3.7943506570682652,-0.13117786511534102,30.936269505873064,-0.041015625,0.0771484375,1.00830078125,-0.91552734375,0.54931640625,0.30517578125,0.0,0.0,0.0,-0.031601615250110626,0.00993209145963192,0.2665194869041443,-0.9632601737976074
9.402512788772583,-3.6808226677788984,0.05102637227266161,30.93633439267018,-0.0361328125,0.01904296875,0.97314453125,-4.45556640625,-0.18310546875,0.06103515625,0.0,0.0,0.0,-0.031071139499545097,0.008136415854096413,0.26657912135124207,-0.9632776975631714
9.422504901885986,-3.2876481642924036,0.15865186082468097,30.910868032349786,-0.03466796875,-0.1494140625,0.9912109375,-11.1083984375,-0.67138671875,-0.3662109375,0.0,0.0,0.0,-0.02801762893795967,0.006310658995062113,0.26641708612442017,-0.9634299874305725
9.442402362823486,-2.8915164023387048,0.22171410363712277,30.893652540546768,-0.0380859375,-0.22119140625,1.01220703125,-5.67626953125,2.13623046875,1.28173828125,0.0,0.0,0.0,-0.024834303185343742,0.004855658393353224,0.26630571484565735,-0.9635564684867859
9.462411403656006,-2.796141348315939,0.16205424218648612,30.95872375276948,-0.02490234375,0.0498046875,1.08154296875,3.84521484375,-1.15966796875,1.03759765625,0.0,0.0,0.0,-0.023890795186161995,0.005149255506694317,0.266844779253006,-0.9634296894073486
9.482621431350708,-2.439965766119992,0.2975290967025585,30.953625016554067,-0.02197265625,-0.19873046875,0.8984375,-10.1318359375,-2.38037109375,-2.3193359375,0.0,0.0,0.0,-0.021211687475442886,0.0031797681003808975,0.26684027910232544,-0.963502049446106
9.502647399902344,-2.004718364563276,0.37506431026305903,30.95401433733676,-0.06103515625,-0.271484375,0.97216796875,-7.38525390625,7.26318359375,1.40380859375,0.0,0.0,0.0,-0.01773240976035595,0.001514286850579083,0.266864538192749,-0.9635698199272156
9.522922039031982,-1.8840534679214804,0.32665176934344997,31.025283946231255,-0.0341796875,0.01025390625,1.1513671875,10.43701171875,-7.080078125,-1.77001953125,0.0,0.0,0.0,-0.01660403609275818,0.0016507136169821024,0.2674589157104492,-0.963424801826477
9.542536497116089,-1.6446662231265232,0.4806725884880904,31.00448260511398,-0.03076171875,-0.19873046875,0.908203125,-7.87353515625,-3.47900390625,-1.15966796875,0.0,0.0,0.0,-0.014950694516301155,-0.000205737364012748,0.2673041820526123,-0.9634962677955627
9.563616275787354,-1.3096012615512043,0.4987724297060655,31.01731311546985,-0.07275390625,-0.224609375,0.970703125,-8.1787109375,5.859375,2.86865234375,0.0,0.0,0.0,-0.012175711803138256,-0.0011381630320101976,0.26741188764572144,-0.9635047912597656
9.584221601486206,-1.0898218890377669,0.4681598420111857,31.050835683916272,-0.0302734375,-0.228515625,1.08154296875,2.9296875,-5.0048828125,-1.15966796875,0.0,0.0,0.0,-0.010256742127239704,-0.001390631077811122,0.26768893003463745,-0.9634498357772827
9.602888345718384,-0.8995747603915838,0.4516581583372878,31.071678006168565,-0.025390625,-0.193359375,0.9716796875,2.13623046875,-4.8828125,-1.77001953125,0.0,0.0,0.0,-0.008618960157036781,-0.0016947380499914289,0.2678605616092682,-0.963417649269104
9.622956991195679,-0.6867742403843128,0.4154674138441968,31.10727353702809,-0.0283203125,-0.1630859375,0.994140625,-0.1220703125,-6.40869140625,-4.08935546875,0.0,0.0,0.0,-0.00674584973603487,-0.001885787583887577,0.26815468072891235,-0.9633504748344421
9.643531799316406,-0.39822470800620535,0.4098208751130061,31.152315219509738,-0.03564453125,-0.193359375,0.91552734375,-7.2021484375,-1.77001953125,-2.44140625,0.0,0.0,0.0,-0.00430782325565815,-0.002511849394068122,0.268527626991272,-0.9632591605186462
9.66246247291565,-0.00458615478071786,0.43729237620247335,31.195038052768165,-0.04296875,-0.3056640625,0.98779296875,-9.70458984375,-3.662109375,-3.0517578125,0.0,0.0,0.0,-0.0010646096197888255,-0.0036647950764745474,0.2688762843608856,-0.9631672501564026
9.682585716247559,0.29659146647598916,0.3286308433358876,31.246694773460973,-0.07177734375,-0.33740234375,1.0439453125,-5.126953125,-11.65771484375,-3.23486328125,0.0,0.0,0.0,0.0017202651361003518,-0.003458916675299406,0.2693031132221222,-0.9630477428436279
9.702570915222168,0.5009505129993591,0.26937009438444715,31.303286305829115,-0.00927734375,-0.31005859375,1.0556640625,-1.46484375,-4.21142578125,-4.94384765625,0.0,0.0,0.0,0.003575309179723263,-0.0034429116640239954,0.2697746157646179,-0.9629107117652893
9.722401142120361,0.6495255903022367,0.21906883273655767,31.371174971084457,-0.03564453125,-0.2705078125,0.94384765625,0.18310546875,-5.31005859375,-3.35693359375,0.0,0.0,0.0,0.004940211307257414,-0.0033729402348399162,0.27034300565719604,-0.9627455472946167
9.742413759231567,0.8163695560050471,0.22920156511261702,31.43507480586451,0.0009765625,-0.26123046875,0.98291015625,4.150390625,4.39453125,-2.197265625,0.0,0.0,0.0,0.006315895821899176,-0.0038552037440240383,0.27087393403053284,-0.962586522102356
9.762447834014893,0.9049539612497919,0.24346857630873073,31.51572567958402,-0.04345703125,-0.205078125,1.10107421875,3.0517578125,2.86865234375,-1.220703125,0.0,0.0,0.0,0.00702334102243185,-0.004189387429505587,0.27154725790023804,-0.9623904824256897
