time,orientation.x,orientation.y,orientation.z,orientation.w,orientation_covariance,angular_velocity.x,angular_velocity.y,angular_velocity.z,angular_velocity_covariance,linear_acceleration.x,linear_acceleration.y,linear_acceleration.z,linear_acceleration_covariance
0.14293360710144043,-0.02198694460093975,-0.007536929566413164,0.704602837562561,-0.7092213034629822,[0. 0. 0. 0. 0. 0. 0. 0. 0.],0.30517578125,-0.42724609375,-0.1220703125,[0. 0. 0. 0. 0. 0. 0. 0. 0.],-0.0419921875,0.02099609375,1.00439453125,[0. 0. 0. 0. 0. 0. 0. 0. 0.]
0.16338801383972168,-0.022092202678322792,-0.008547941222786903,0.7046240568161011,-0.7091854214668274,[0. 0. 0. 0. 0. 0. 0. 0. 0.],0.06103515625,-1.15966796875,-0.244140625,[0. 0. 0. 0. 0. 0. 0. 0. 0.],-0.04345703125,0.01953125,1.0048828125,[0. 0. 0. 0. 0. 0. 0. 0. 0.]
0.18257379531860352,-0.022883746773004532,-0.007431373931467533,0.7046082615852356,-0.7091885209083557,[0. 0. 0. 0. 0. 0. 0. 0. 0.],-0.48828125,-0.91552734375,-0.1220703125,[0. 0. 0. 0. 0. 0. 0. 0. 0.],-0.04296875,0.0224609375,1.00341796875,[0. 0. 0. 0. 0. 0. 0. 0. 0.]
0.20287322998046875,-0.022726530209183693,-0.008098085410892963,0.704637885093689,-0.7091568112373352,[0. 0. 0. 0. 0. 0. 0. 0. 0.],-0.244140625,-0.244140625,0.06103515625,[0. 0. 0. 0. 0. 0. 0. 0. 0.],-0.0439453125,0.02099609375,1.001953125,[0. 0. 0. 0. 0. 0. 0. 0. 0.]
0.22278428077697754,-0.02338288351893425,-0.007355026435106993,0.7046430706977844,-0.7091384530067444,[0. 0. 0. 0. 0. 0. 0. 0. 0.],0.244140625,-0.1220703125,0.0,[0. 0. 0. 0. 0. 0. 0. 0. 0.],-0.04345703125,0.0234375,1.00390625,[0. 0. 0. 0. 0. 0. 0. 0. 0.]
0.24261832237243652,-0.023297980427742004,-0.007269059773534536,0.7046604156494141,-0.7091249227523804,[0. 0. 0. 0. 0. 0. 0. 0. 0.],-0.18310546875,-0.91552734375,-0.18310546875,[0. 0. 0. 0. 0. 0. 0. 0. 0.],-0.04345703125,0.02294921875,1.00439453125,[0. 0. 0. 0. 0. 0. 0. 0. 0.]
0.26250386238098145,-0.02215135097503662,-0.0076227085664868355,0.7047041058540344,-0.7091145515441895,[0. 0. 0. 0. 0. 0. 0. 0. 0.],-0.18310546875,-1.3427734375,-0.244140625,[0. 0. 0. 0. 0. 0. 0. 0. 0.],-0.0419921875,0.02001953125,1.0029296875,[0. 0. 0. 0. 0. 0. 0. 0. 0.]
0.2836034297943115,-0.02284952811896801,-0.0073155006393790245,0.7046998143196106,-0.7090997695922852,[0. 0. 0. 0. 0. 0. 0. 0. 0.],0.06103515625,-0.6103515625,-0.244140625,[0. 0. 0. 0. 0. 0. 0. 0. 0.],-0.04296875,0.02294921875,1.00390625,[0. 0. 0. 0. 0. 0. 0. 0. 0.]
0.3105754852294922,-0.0219714492559433,-0.007566030137240887,0.7047597765922546,-0.709065318107605,[0. 0. 0. 0. 0. 0. 0. 0. 0.],0.0,-1.28173828125,-0.30517578125,[0. 0. 0. 0. 0. 0. 0. 0. 0.],-0.0419921875,0.02099609375,1.00341796875,[0. 0. 0. 0. 0. 0. 0. 0. 0.]
0.32243824005126953,-0.02220202051103115,-0.006965863052755594,0.7047569155693054,-0.709067165851593,[0. 0. 0. 0. 0. 0. 0. 0. 0.],-0.30517578125,-0.48828125,0.0,[0. 0. 0. 0. 0. 0. 0. 0. 0.],-0.04150390625,0.02197265625,1.00341796875,[0. 0. 0. 0. 0. 0. 0. 0. 0.]
0.34258604049682617,-0.022518882527947426,-0.00720231281593442,0.7047765851020813,-0.709035336971283,[0. 0. 0. 0. 0. 0. 0. 0. 0.],0.06103515625,-0.91552734375,-0.18310546875,[0. 0. 0. 0. 0. 0. 0. 0. 0.],-0.04248046875,0.0224609375,1.00341796875,[0. 0. 0. 0. 0. 0. 0. 0. 0.]
0.36246299743652344,-0.022576279938220978,-0.007231550756841898,0.7047866582870483,-0.7090231776237488,[0. 0. 0. 0. 0. 0. 0. 0. 0.],0.244140625,-0.9765625,-0.244140625,[0. 0. 0. 0. 0. 0. 0. 0. 0.],-0.04248046875,0.021484375,1.00390625,[0. 0. 0. 0. 0. 0. 0. 0. 0.]
0.3823575973510742,-0.022938460111618042,-0.008702829480171204,0.7048105001449585,-0.7089712619781494,[0. 0. 0. 0. 0. 0. 0. 0. 0.],-0.30517578125,-1.46484375,-0.30517578125,[0. 0. 0. 0. 0. 0. 0. 0. 0.],-0.044921875,0.0205078125,1.00390625,[0. 0. 0. 0. 0. 0. 0. 0. 0.]
0.4025452136993408,-0.023241795599460602,-0.007969648577272892,0.7048038840293884,-0.7089765071868896,[0. 0. 0. 0. 0. 0. 0. 0. 0.],-0.42724609375,-0.8544921875,-0.244140625,[0. 0. 0. 0. 0. 0. 0. 0. 0.],-0.0439453125,0.021484375,1.00146484375,[0. 0. 0. 0. 0. 0. 0. 0. 0.]
0.4225130081176758,-0.022984087467193604,-0.007377194706350565,0.7048237323760986,-0.7089716792106628,[0. 0. 0. 0. 0. 0. 0. 0. 0.],0.06103515625,0.06103515625,-0.06103515625,[0. 0. 0. 0. 0. 0. 0. 0. 0.],-0.04345703125,0.02197265625,1.0029296875,[0. 0. 0. 0. 0. 0. 0. 0. 0.]
0.4404151439666748,-0.023275338113307953,-0.00725628063082695,0.7048391699790955,-0.7089480757713318,[0. 0. 0. 0. 0. 0. 0. 0. 0.],-0.1220703125,-0.06103515625,-0.06103515625,[0. 0. 0. 0. 0. 0. 0. 0. 0.],-0.04296875,0.0224609375,1.00439453125,[0. 0. 0. 0. 0. 0. 0. 0. 0.]
0.4625821113586426,-0.02259032055735588,-0.008132227696478367,0.704879105091095,-0.708920955657959,[0. 0. 0. 0. 0. 0. 0. 0. 0.],-0.18310546875,-1.220703125,-0.18310546875,[0. 0. 0. 0. 0. 0. 0. 0. 0.],-0.0439453125,0.0205078125,1.00390625,[0. 0. 0. 0. 0. 0. 0. 0. 0.]
0.47760486602783203,-0.02252230793237686,-0.008485025726258755,0.7048977613449097,-0.708900511264801,[0. 0. 0. 0. 0. 0. 0. 0. 0.],-0.1220703125,-1.0986328125,-0.30517578125,[0. 0. 0. 0. 0. 0. 0. 0. 0.],-0.0439453125,0.02001953125,1.00341796875,[0. 0. 0. 0. 0. 0. 0. 0. 0.]
0.5009493827819824,-0.021952718496322632,-0.0075253150425851345,0.7049061059951782,-0.7089210152626038,[0. 0. 0. 0. 0. 0. 0. 0. 0.],0.18310546875,-0.18310546875,-0.1220703125,[0. 0. 0. 0. 0. 0. 0. 0. 0.],-0.04150390625,0.0205078125,1.0029296875,[0. 0. 0. 0. 0. 0. 0. 0. 0.]
0.5229678153991699,-0.022775137796998024,-0.007444204296916723,0.704908549785614,-0.7088934779167175,[0. 0. 0. 0. 0. 0. 0. 0. 0.],-0.244140625,-0.18310546875,0.0,[0. 0. 0. 0. 0. 0. 0. 0. 0.],-0.04296875,0.02197265625,1.00390625,[0. 0. 0. 0. 0. 0. 0. 0. 0.]
0.5423614978790283,-0.02240990847349167,-0.008309957571327686,0.7049490213394165,-0.7088552117347717,[0. 0. 0. 0. 0. 0. 0. 0. 0.],-0.244140625,-0.8544921875,-0.06103515625,[0. 0. 0. 0. 0. 0. 0. 0. 0.],-0.04345703125,0.0205078125,1.001953125,[0. 0. 0. 0. 0. 0. 0. 0. 0.]
0.5623953342437744,-0.02244306169450283,-0.007608715910464525,0.7049588561058044,-0.7088522911071777,[0. 0. 0. 0. 0. 0. 0. 0. 0.],0.1220703125,-0.9765625,-0.18310546875,[0. 0. 0. 0. 0. 0. 0. 0. 0.],-0.04296875,0.02099609375,1.00390625,[0. 0. 0. 0. 0. 0. 0. 0. 0.]
0.5821878910064697,-0.023139795288443565,-0.007080467417836189,0.7049524188041687,-0.7088418006896973,[0. 0. 0. 0. 0. 0. 0. 0. 0.],0.06103515625,-0.732421875,-0.18310546875,[0. 0. 0. 0. 0. 0. 0. 0. 0.],-0.04296875,0.02294921875,1.00439453125,[0. 0. 0. 0. 0. 0. 0. 0. 0.]
0.6030454635620117,-0.02311849407851696,-0.007764228619635105,0.7049857974052429,-0.7088020443916321,[0. 0. 0. 0. 0. 0. 0. 0. 0.],-0.48828125,-0.3662109375,-0.1220703125,[0. 0. 0. 0. 0. 0. 0. 0. 0.],-0.04345703125,0.02197265625,1.00244140625,[0. 0. 0. 0. 0. 0. 0. 0. 0.]
0.6224205493927002,-0.023010293021798134,-0.007500206120312214,0.7050159573554993,-0.708778440952301,[0. 0. 0. 0. 0. 0. 0. 0. 0.],-0.244140625,-0.3662109375,0.0,[0. 0. 0. 0. 0. 0. 0. 0. 0.],-0.04345703125,0.02197265625,1.00341796875,[0. 0. 0. 0. 0. 0. 0. 0. 0.]
0.6433649063110352,-0.02285942994058132,-0.00821324810385704,0.7050513625144958,-0.7087401747703552,[0. 0. 0. 0. 0. 0. 0. 0. 0.],0.1220703125,-0.6103515625,-0.1220703125,[0. 0. 0. 0. 0. 0. 0. 0. 0.],-0.0439453125,0.02099609375,1.00439453125,[0. 0. 0. 0. 0. 0. 0. 0. 0.]
0.6624646186828613,-0.022810714319348335,-0.008686610497534275,0.7050739526748657,-0.7087136507034302,[0. 0. 0. 0. 0. 0. 0. 0. 0.],0.06103515625,-0.9765625,-0.244140625,[0. 0. 0. 0. 0. 0. 0. 0. 0.],-0.044921875,0.02001953125,1.00439453125,[0. 0. 0. 0. 0. 0. 0. 0. 0.]
0.6817440986633301,-0.022586390376091003,-0.00723352562636137,0.7050679922103882,-0.7087430357933044,[0. 0. 0. 0. 0. 0. 0. 0. 0.],-0.30517578125,-0.9765625,-0.06103515625,[0. 0. 0. 0. 0. 0. 0. 0. 0.],-0.0419921875,0.0224609375,1.001953125,[0. 0. 0. 0. 0. 0. 0. 0. 0.]
0.7027356624603271,-0.02246767096221447,-0.007279410492628813,0.7050870060920715,-0.7087274193763733,[0. 0. 0. 0. 0. 0. 0. 0. 0.],-0.244140625,-0.244140625,0.0,[0. 0. 0. 0. 0. 0. 0. 0. 0.],-0.04296875,0.021484375,1.0029296875,[0. 0. 0. 0. 0. 0. 0. 0. 0.]
0.7186086177825928,-0.023003315553069115,-0.00845419242978096,0.7051141262054443,-0.7086702585220337,[0. 0. 0. 0. 0. 0. 0. 0. 0.],0.30517578125,-0.18310546875,-0.06103515625,[0. 0. 0. 0. 0. 0. 0. 0. 0.],-0.04443359375,0.0205078125,1.00244140625,[0. 0. 0. 0. 0. 0. 0. 0. 0.]
0.7423131465911865,-0.023444192484021187,-0.008572963997721672,0.7051273584365845,-0.7086412310600281,[0. 0. 0. 0. 0. 0. 0. 0. 0.],-0.18310546875,-0.91552734375,-0.244140625,[0. 0. 0. 0. 0. 0. 0. 0. 0.],-0.044921875,0.0205078125,1.00244140625,[0. 0. 0. 0. 0. 0. 0. 0. 0.]
0.762336015701294,-0.022563835605978966,-0.006918990984559059,0.7051498889923096,-0.7086654305458069,[0. 0. 0. 0. 0. 0. 0. 0. 0.],-0.30517578125,-1.28173828125,-0.3662109375,[0. 0. 0. 0. 0. 0. 0. 0. 0.],-0.04248046875,0.02197265625,1.00439453125,[0. 0. 0. 0. 0. 0. 0. 0. 0.]
0.7989864349365234,-0.022257620468735695,-0.006728596519678831,0.7051960229873657,-0.7086310386657715,[0. 0. 0. 0. 0. 0. 0. 0. 0.],0.42724609375,-0.8544921875,-0.244140625,[0. 0. 0. 0. 0. 0. 0. 0. 0.],-0.04150390625,0.0224609375,1.00341796875,[0. 0. 0. 0. 0. 0. 0. 0. 0.]
0.8016655445098877,-0.022347599267959595,-0.006864003371447325,0.7052016854286194,-0.7086213231086731,[0. 0. 0. 0. 0. 0. 0. 0. 0.],-0.1220703125,0.1220703125,-0.1220703125,[0. 0. 0. 0. 0. 0. 0. 0. 0.],-0.04150390625,0.0224609375,1.0048828125,[0. 0. 0. 0. 0. 0. 0. 0. 0.]
0.822352409362793,-0.022202124819159508,-0.008377114310860634,0.7052463889122009,-0.7085651755332947,[0. 0. 0. 0. 0. 0. 0. 0. 0.],-0.18310546875,-0.6103515625,-0.06103515625,[0. 0. 0. 0. 0. 0. 0. 0. 0.],-0.0439453125,0.01953125,1.00341796875,[0. 0. 0. 0. 0. 0. 0. 0. 0.]
0.8509387969970703,-0.022273242473602295,-0.0072502754628658295,0.7052515149116516,-0.708570122718811,[0. 0. 0. 0. 0. 0. 0. 0. 0.],0.18310546875,-0.54931640625,0.0,[0. 0. 0. 0. 0. 0. 0. 0. 0.],-0.0419921875,0.021484375,1.0048828125,[0. 0. 0. 0. 0. 0. 0. 0. 0.]
0.8636789321899414,-0.022690899670124054,-0.008339143358170986,0.7052785158157349,-0.7085180282592773,[0. 0. 0. 0. 0. 0. 0. 0. 0.],0.18310546875,-0.9765625,-0.18310546875,[0. 0. 0. 0. 0. 0. 0. 0. 0.],-0.0439453125,0.0205078125,1.00341796875,[0. 0. 0. 0. 0. 0. 0. 0. 0.]
0.8773698806762695,-0.022628402337431908,-0.008946184068918228,0.7052851915359497,-0.7085059881210327,[0. 0. 0. 0. 0. 0. 0. 0. 0.],-0.1220703125,-1.15966796875,-0.18310546875,[0. 0. 0. 0. 0. 0. 0. 0. 0.],-0.044921875,0.02001953125,1.00390625,[0. 0. 0. 0. 0. 0. 0. 0. 0.]
0.9030928611755371,-0.022842954844236374,-0.007820707745850086,0.705280065536499,-0.7085176110267639,[0. 0. 0. 0. 0. 0. 0. 0. 0.],-0.3662109375,-0.6103515625,-0.1220703125,[0. 0. 0. 0. 0. 0. 0. 0. 0.],-0.04345703125,0.021484375,1.00244140625,[0. 0. 0. 0. 0. 0. 0. 0. 0.]
0.9229693412780762,-0.021573510020971298,-0.007381248287856579,0.705330491065979,-0.7085118293762207,[0. 0. 0. 0. 0. 0. 0. 0. 0.],0.0,-0.06103515625,0.0,[0. 0. 0. 0. 0. 0. 0. 0. 0.],-0.04150390625,0.0205078125,1.00341796875,[0. 0. 0. 0. 0. 0. 0. 0. 0.]
0.937736988067627,-0.02239440195262432,-0.0077322255820035934,0.7053398489952087,-0.7084733247756958,[0. 0. 0. 0. 0. 0. 0. 0. 0.],0.1220703125,-0.3662109375,-0.06103515625,[0. 0. 0. 0. 0. 0. 0. 0. 0.],-0.04296875,0.02099609375,1.00341796875,[0. 0. 0. 0. 0. 0. 0. 0. 0.]
0.9622621536254883,-0.022618655115365982,-0.007010872941464186,0.7053394317626953,-0.7084740996360779,[0. 0. 0. 0. 0. 0. 0. 0. 0.],-0.1220703125,-1.15966796875,-0.18310546875,[0. 0. 0. 0. 0. 0. 0. 0. 0.],-0.04248046875,0.02197265625,1.0029296875,[0. 0. 0. 0. 0. 0. 0. 0. 0.]
0.9821882247924805,-0.02257452718913555,-0.007636203430593014,0.7053570747375488,-0.708451509475708,[0. 0. 0. 0. 0. 0. 0. 0. 0.],-0.1220703125,-1.03759765625,-0.1220703125,[0. 0. 0. 0. 0. 0. 0. 0. 0.],-0.04296875,0.021484375,1.0029296875,[0. 0. 0. 0. 0. 0. 0. 0. 0.]
1.0025479793548584,-0.02264855057001114,-0.006659350357949734,0.7053672075271606,-0.7084490060806274,[0. 0. 0. 0. 0. 0. 0. 0. 0.],0.0,-0.18310546875,-0.1220703125,[0. 0. 0. 0. 0. 0. 0. 0. 0.],-0.04150390625,0.02294921875,1.00341796875,[0. 0. 0. 0. 0. 0. 0. 0. 0.]
1.0223004817962646,-0.022857582196593285,-0.007430203724652529,0.7053922414779663,-0.7084096074104309,[0. 0. 0. 0. 0. 0. 0. 0. 0.],-0.244140625,-0.3662109375,-0.06103515625,[0. 0. 0. 0. 0. 0. 0. 0. 0.],-0.04345703125,0.02197265625,1.00341796875,[0. 0. 0. 0. 0. 0. 0. 0. 0.]
1.0498647689819336,-0.022139864042401314,-0.007188012823462486,0.7054342031478882,-0.7083930969238281,[0. 0. 0. 0. 0. 0. 0. 0. 0.],-0.3662109375,-0.9765625,-0.30517578125,[0. 0. 0. 0. 0. 0. 0. 0. 0.],-0.0419921875,0.02099609375,1.00390625,[0. 0. 0. 0. 0. 0. 0. 0. 0.]
1.0621404647827148,-0.023162687197327614,-0.007769601885229349,0.7054389119148254,-0.7083494663238525,[0. 0. 0. 0. 0. 0. 0. 0. 0.],0.18310546875,-1.15966796875,-0.30517578125,[0. 0. 0. 0. 0. 0. 0. 0. 0.],-0.0439453125,0.02197265625,1.00439453125,[0. 0. 0. 0. 0. 0. 0. 0. 0.]
1.0824816226959229,-0.022853577509522438,-0.008285805583000183,0.7054738998413086,-0.7083189487457275,[0. 0. 0. 0. 0. 0. 0. 0. 0.],0.1220703125,-0.48828125,-0.18310546875,[0. 0. 0. 0. 0. 0. 0. 0. 0.],-0.0439453125,0.0205078125,1.001953125,[0. 0. 0. 0. 0. 0. 0. 0. 0.]
1.1029052734375,-0.022830719128251076,-0.008287349715828896,0.7054843902587891,-0.7083091139793396,[0. 0. 0. 0. 0. 0. 0. 0. 0.],-0.48828125,-0.244140625,-0.06103515625,[0. 0. 0. 0. 0. 0. 0. 0. 0.],-0.04443359375,0.021484375,1.001953125,[0. 0. 0. 0. 0. 0. 0. 0. 0.]
1.1222927570343018,-0.023042870685458183,-0.007915851660072803,0.705504834651947,-0.7082862257957458,[0. 0. 0. 0. 0. 0. 0. 0. 0.],-0.244140625,-0.54931640625,-0.18310546875,[0. 0. 0. 0. 0. 0. 0. 0. 0.],-0.0439453125,0.021484375,1.00390625,[0. 0. 0. 0. 0. 0. 0. 0. 0.]
1.142512321472168,-0.022906802594661713,-0.008467108011245728,0.7055345177650452,-0.7082547545433044,[0. 0. 0. 0. 0. 0. 0. 0. 0.],0.244140625,-0.79345703125,-0.18310546875,[0. 0. 0. 0. 0. 0. 0. 0. 0.],-0.04443359375,0.0205078125,1.00341796875,[0. 0. 0. 0. 0. 0. 0. 0. 0.]
1.1625721454620361,-0.02330029383301735,-0.008326442912220955,0.7055388689041138,-0.7082391381263733,[0. 0. 0. 0. 0. 0. 0. 0. 0.],0.0,-0.9765625,-0.244140625,[0. 0. 0. 0. 0. 0. 0. 0. 0.],-0.044921875,0.02099609375,1.00244140625,[0. 0. 0. 0. 0. 0. 0. 0. 0.]
1.1834094524383545,-0.023017041385173798,-0.007409385405480862,0.7055510878562927,-0.7082464694976807,[0. 0. 0. 0. 0. 0. 0. 0. 0.],-0.3662109375,-0.732421875,-0.1220703125,[0. 0. 0. 0. 0. 0. 0. 0. 0.],-0.04345703125,0.0224609375,1.00341796875,[0. 0. 0. 0. 0. 0. 0. 0. 0.]
1.203221082687378,-0.022994760423898697,-0.006454369518905878,0.7055583596229553,-0.7082493305206299,[0. 0. 0. 0. 0. 0. 0. 0. 0.],-0.18310546875,-0.1220703125,-0.06103515625,[0. 0. 0. 0. 0. 0. 0. 0. 0.],-0.0419921875,0.0234375,1.00439453125,[0. 0. 0. 0. 0. 0. 0. 0. 0.]
1.222393274307251,-0.022078024223446846,-0.007660025265067816,0.7056154608726501,-0.7082096338272095,[0. 0. 0. 0. 0. 0. 0. 0. 0.],0.18310546875,-0.3662109375,0.0,[0. 0. 0. 0. 0. 0. 0. 0. 0.],-0.04248046875,0.0205078125,1.005859375,[0. 0. 0. 0. 0. 0. 0. 0. 0.]
1.2377290725708008,-0.02196076326072216,-0.00787667091935873,0.7056328058242798,-0.7081935405731201,[0. 0. 0. 0. 0. 0. 0. 0. 0.],0.0,-1.0986328125,-0.18310546875,[0. 0. 0. 0. 0. 0. 0. 0. 0.],-0.0419921875,0.0205078125,1.0029296875,[0. 0. 0. 0. 0. 0. 0. 0. 0.]
1.2625484466552734,-0.022910842671990395,-0.007106052245944738,0.7056156396865845,-0.7081887125968933,[0. 0. 0. 0. 0. 0. 0. 0. 0.],-0.244140625,-1.28173828125,-0.30517578125,[0. 0. 0. 0. 0. 0. 0. 0. 0.],-0.04296875,0.02197265625,1.00390625,[0. 0. 0. 0. 0. 0. 0. 0. 0.]
1.282358169555664,-0.023313743993639946,-0.007263369858264923,0.7056284546852112,-0.7081612944602966,[0. 0. 0. 0. 0. 0. 0. 0. 0.],0.06103515625,-0.30517578125,-0.18310546875,[0. 0. 0. 0. 0. 0. 0. 0. 0.],-0.04345703125,0.02294921875,0.99951171875,[0. 0. 0. 0. 0. 0. 0. 0. 0.]
1.3022465705871582,-0.02397872507572174,-0.006844456773251295,0.7056165337562561,-0.7081549763679504,[0. 0. 0. 0. 0. 0. 0. 0. 0.],-0.06103515625,-0.30517578125,-0.06103515625,[0. 0. 0. 0. 0. 0. 0. 0. 0.],-0.04345703125,0.02392578125,1.00390625,[0. 0. 0. 0. 0. 0. 0. 0. 0.]
1.3226776123046875,-0.023071538656949997,-0.007915611378848553,0.7056586146354675,-0.7081320881843567,[0. 0. 0. 0. 0. 0. 0. 0. 0.],-0.42724609375,-0.244140625,0.1220703125,[0. 0. 0. 0. 0. 0. 0. 0. 0.],-0.0439453125,0.02197265625,1.00244140625,[0. 0. 0. 0. 0. 0. 0. 0. 0.]
1.3428106307983398,-0.02238589897751808,-0.008013704791665077,0.7057000994682312,-0.7081116437911987,[0. 0. 0. 0. 0. 0. 0. 0. 0.],0.0,-0.54931640625,0.0,[0. 0. 0. 0. 0. 0. 0. 0. 0.],-0.04296875,0.0205078125,1.0029296875,[0. 0. 0. 0. 0. 0. 0. 0. 0.]
1.362201452255249,-0.022133784368634224,-0.00733953295275569,0.705718994140625,-0.7081080079078674,[0. 0. 0. 0. 0. 0. 0. 0. 0.],0.30517578125,-0.9765625,-0.244140625,[0. 0. 0. 0. 0. 0. 0. 0. 0.],-0.0419921875,0.02099609375,1.0029296875,[0. 0. 0. 0. 0. 0. 0. 0. 0.]
1.3824832439422607,-0.022997446358203888,-0.007423300761729479,0.7057136297225952,-0.7080848813056946,[0. 0. 0. 0. 0. 0. 0. 0. 0.],-0.244140625,-0.9765625,-0.18310546875,[0. 0. 0. 0. 0. 0. 0. 0. 0.],-0.04345703125,0.0224609375,1.00341796875,[0. 0. 0. 0. 0. 0. 0. 0. 0.]
1.3977632522583008,-0.02298884652554989,-0.007418598514050245,0.7057291865348816,-0.708069920539856,[0. 0. 0. 0. 0. 0. 0. 0. 0.],-0.3662109375,-0.48828125,-0.18310546875,[0. 0. 0. 0. 0. 0. 0. 0. 0.],-0.04345703125,0.0224609375,1.00390625,[0. 0. 0. 0. 0. 0. 0. 0. 0.]
1.4229505062103271,-0.022223079577088356,-0.007866746746003628,0.7057771682739258,-0.7080416083335876,[0. 0. 0. 0. 0. 0. 0. 0. 0.],0.06103515625,0.06103515625,-0.06103515625,[0. 0. 0. 0. 0. 0. 0. 0. 0.],-0.04296875,0.02001953125,1.005859375,[0. 0. 0. 0. 0. 0. 0. 0. 0.]
1.4424200057983398,-0.02335427515208721,-0.007231817580759525,0.705780029296875,-0.7080090641975403,[0. 0. 0. 0. 0. 0. 0. 0. 0.],0.18310546875,-0.48828125,-0.18310546875,[0. 0. 0. 0. 0. 0. 0. 0. 0.],-0.04345703125,0.02294921875,1.00390625,[0. 0. 0. 0. 0. 0. 0. 0. 0.]
1.4639904499053955,-0.023106219246983528,-0.007434207014739513,0.7057994604110718,-0.7079958319664001,[0. 0. 0. 0. 0. 0. 0. 0. 0.],-0.244140625,-1.3427734375,-0.18310546875,[0. 0. 0. 0. 0. 0. 0. 0. 0.],-0.04345703125,0.0224609375,1.00390625,[0. 0. 0. 0. 0. 0. 0. 0. 0.]
1.4838578701019287,-0.02291753515601158,-0.007725121453404427,0.7058209180831909,-0.7079774737358093,[0. 0. 0. 0. 0. 0. 0. 0. 0.],-0.1220703125,-0.91552734375,-0.18310546875,[0. 0. 0. 0. 0. 0. 0. 0. 0.],-0.04345703125,0.021484375,1.00341796875,[0. 0. 0. 0. 0. 0. 0. 0. 0.]
1.5036132335662842,-0.022599807009100914,-0.00820758007466793,0.7058515548706055,-0.7079516053199768,[0. 0. 0. 0. 0. 0. 0. 0. 0.],0.06103515625,-0.1220703125,0.06103515625,[0. 0. 0. 0. 0. 0. 0. 0. 0.],-0.0439453125,0.0205078125,1.005859375,[0. 0. 0. 0. 0. 0. 0. 0. 0.]
1.5223939418792725,-0.023689555004239082,-0.008292634971439838,0.7058401703834534,-0.7079262733459473,[0. 0. 0. 0. 0. 0. 0. 0. 0.],0.06103515625,-0.48828125,0.0,[0. 0. 0. 0. 0. 0. 0. 0. 0.],-0.04541015625,0.02197265625,1.001953125,[0. 0. 0. 0. 0. 0. 0. 0. 0.]
1.543379783630371,-0.022313246503472328,-0.007429782301187515,0.7058807015419006,-0.7079403400421143,[0. 0. 0. 0. 0. 0. 0. 0. 0.],-0.18310546875,-1.15966796875,-0.244140625,[0. 0. 0. 0. 0. 0. 0. 0. 0.],-0.041015625,0.0205078125,1.00341796875,[0. 0. 0. 0. 0. 0. 0. 0. 0.]
1.5623295307159424,-0.0218725074082613,-0.00772105623036623,0.7059177756309509,-0.707913875579834,[0. 0. 0. 0. 0. 0. 0. 0. 0.],0.0,-1.0986328125,-0.3662109375,[0. 0. 0. 0. 0. 0. 0. 0. 0.],-0.04296875,0.01953125,1.0029296875,[0. 0. 0. 0. 0. 0. 0. 0. 0.]
1.5842339992523193,-0.022772973403334618,-0.007713090628385544,0.7059208750724792,-0.7078825831413269,[0. 0. 0. 0. 0. 0. 0. 0. 0.],0.18310546875,-0.42724609375,-0.18310546875,[0. 0. 0. 0. 0. 0. 0. 0. 0.],-0.04296875,0.021484375,1.00390625,[0. 0. 0. 0. 0. 0. 0. 0. 0.]
1.603743076324463,-0.02281768061220646,-0.00679301330819726,0.7059265971183777,-0.7078849077224731,[0. 0. 0. 0. 0. 0. 0. 0. 0.],-0.30517578125,-0.244140625,-0.06103515625,[0. 0. 0. 0. 0. 0. 0. 0. 0.],-0.0419921875,0.02294921875,1.0029296875,[0. 0. 0. 0. 0. 0. 0. 0. 0.]
1.6240484714508057,-0.023646408692002296,-0.007390085142105818,0.70594722032547,-0.7078311443328857,[0. 0. 0. 0. 0. 0. 0. 0. 0.],-0.18310546875,-0.30517578125,-0.1220703125,[0. 0. 0. 0. 0. 0. 0. 0. 0.],-0.0439453125,0.0234375,1.00244140625,[0. 0. 0. 0. 0. 0. 0. 0. 0.]
1.64235520362854,-0.023509426042437553,-0.007281222380697727,0.7059736251831055,-0.7078104019165039,[0. 0. 0. 0. 0. 0. 0. 0. 0.],0.244140625,-1.03759765625,-0.244140625,[0. 0. 0. 0. 0. 0. 0. 0. 0.],-0.04345703125,0.02294921875,1.0009765625,[0. 0. 0. 0. 0. 0. 0. 0. 0.]
1.6589784622192383,-0.0233401320874691,-0.00746662775054574,0.7059946060180664,-0.707793116569519,[0. 0. 0. 0. 0. 0. 0. 0. 0.],0.06103515625,-0.9765625,-0.18310546875,[0. 0. 0. 0. 0. 0. 0. 0. 0.],-0.0439453125,0.02197265625,1.00244140625,[0. 0. 0. 0. 0. 0. 0. 0. 0.]
1.6825032234191895,-0.0231558196246624,-0.008130568079650402,0.7060173749923706,-0.7077692747116089,[0. 0. 0. 0. 0. 0. 0. 0. 0.],-0.54931640625,-0.54931640625,-0.18310546875,[0. 0. 0. 0. 0. 0. 0. 0. 0.],-0.04443359375,0.021484375,1.00390625,[0. 0. 0. 0. 0. 0. 0. 0. 0.]
1.7019829750061035,-0.022646654397249222,-0.006907414644956589,0.706039547920227,-0.7077765464782715,[0. 0. 0. 0. 0. 0. 0. 0. 0.],-0.06103515625,-0.244140625,-0.1220703125,[0. 0. 0. 0. 0. 0. 0. 0. 0.],-0.0419921875,0.0224609375,1.00390625,[0. 0. 0. 0. 0. 0. 0. 0. 0.]
1.722548246383667,-0.02291952818632126,-0.007424699142575264,0.7060702443122864,-0.7077318429946899,[0. 0. 0. 0. 0. 0. 0. 0. 0.],0.244140625,-0.42724609375,-0.1220703125,[0. 0. 0. 0. 0. 0. 0. 0. 0.],-0.04296875,0.02197265625,1.00390625,[0. 0. 0. 0. 0. 0. 0. 0. 0.]
1.742358684539795,-0.022147875279188156,-0.008046263828873634,0.7061082720756531,-0.7077117562294006,[0. 0. 0. 0. 0. 0. 0. 0. 0.],0.0,-1.15966796875,-0.18310546875,[0. 0. 0. 0. 0. 0. 0. 0. 0.],-0.04296875,0.02001953125,1.00439453125,[0. 0. 0. 0. 0. 0. 0. 0. 0.]
1.7625019550323486,-0.022723807021975517,-0.007645191624760628,0.7061102390289307,-0.7076960206031799,[0. 0. 0. 0. 0. 0. 0. 0. 0.],0.0,-1.3427734375,-0.244140625,[0. 0. 0. 0. 0. 0. 0. 0. 0.],-0.04296875,0.021484375,1.00244140625,[0. 0. 0. 0. 0. 0. 0. 0. 0.]
1.7825982570648193,-0.023090217262506485,-0.008539373986423016,0.7061285376548767,-0.707655668258667,[0. 0. 0. 0. 0. 0. 0. 0. 0.],0.30517578125,-0.732421875,-0.18310546875,[0. 0. 0. 0. 0. 0. 0. 0. 0.],-0.044921875,0.02099609375,1.0029296875,[0. 0. 0. 0. 0. 0. 0. 0. 0.]
1.8023734092712402,-0.02356709912419319,-0.006993347313255072,0.7061157822608948,-0.7076695561408997,[0. 0. 0. 0. 0. 0. 0. 0. 0.],-0.06103515625,-0.1220703125,-0.1220703125,[0. 0. 0. 0. 0. 0. 0. 0. 0.],-0.04296875,0.02392578125,1.001953125,[0. 0. 0. 0. 0. 0. 0. 0. 0.]
1.8245046138763428,-0.02338339015841484,-0.0076411422342062,0.7061466574668884,-0.7076380848884583,[0. 0. 0. 0. 0. 0. 0. 0. 0.],-0.54931640625,-0.42724609375,0.0,[0. 0. 0. 0. 0. 0. 0. 0. 0.],-0.04345703125,0.0224609375,1.00390625,[0. 0. 0. 0. 0. 0. 0. 0. 0.]
1.8428325653076172,-0.023099344223737717,-0.007840357720851898,0.7061924934387207,-0.7075995802879333,[0. 0. 0. 0. 0. 0. 0. 0. 0.],0.1220703125,-0.79345703125,-0.18310546875,[0. 0. 0. 0. 0. 0. 0. 0. 0.],-0.04345703125,0.02099609375,1.00341796875,[0. 0. 0. 0. 0. 0. 0. 0. 0.]
1.8631012439727783,-0.02311081252992153,-0.007370234001427889,0.7062113285064697,-0.7075854539871216,[0. 0. 0. 0. 0. 0. 0. 0. 0.],0.18310546875,-0.79345703125,-0.42724609375,[0. 0. 0. 0. 0. 0. 0. 0. 0.],-0.04345703125,0.0224609375,1.005859375,[0. 0. 0. 0. 0. 0. 0. 0. 0.]
1.882936954498291,-0.02316189929842949,-0.0072806705720722675,0.7062119245529175,-0.7075840830802917,[0. 0. 0. 0. 0. 0. 0. 0. 0.],-0.18310546875,-0.8544921875,-0.1220703125,[0. 0. 0. 0. 0. 0. 0. 0. 0.],-0.04248046875,0.0224609375,1.00439453125,[0. 0. 0. 0. 0. 0. 0. 0. 0.]
1.902442455291748,-0.023537656292319298,-0.007350594736635685,0.7062292098999023,-0.7075536847114563,[0. 0. 0. 0. 0. 0. 0. 0. 0.],-0.3662109375,-0.3662109375,-0.244140625,[0. 0. 0. 0. 0. 0. 0. 0. 0.],-0.04345703125,0.0224609375,1.00341796875,[0. 0. 0. 0. 0. 0. 0. 0. 0.]
1.9189233779907227,-0.023544996976852417,-0.007848028093576431,0.7062593698501587,-0.7075181007385254,[0. 0. 0. 0. 0. 0. 0. 0. 0.],0.18310546875,-0.18310546875,-0.1220703125,[0. 0. 0. 0. 0. 0. 0. 0. 0.],-0.044921875,0.0224609375,1.00341796875,[0. 0. 0. 0. 0. 0. 0. 0. 0.]
1.9423208236694336,-0.022836806252598763,-0.007769671268761158,0.7063047289848328,-0.7074969410896301,[0. 0. 0. 0. 0. 0. 0. 0. 0.],0.18310546875,-0.79345703125,-0.244140625,[0. 0. 0. 0. 0. 0. 0. 0. 0.],-0.0439453125,0.021484375,1.00341796875,[0. 0. 0. 0. 0. 0. 0. 0. 0.]
1.962339162826538,-0.022165285423398018,-0.006560900714248419,0.7063150405883789,-0.7075201869010925,[0. 0. 0. 0. 0. 0. 0. 0. 0.],-0.18310546875,-1.220703125,-0.18310546875,[0. 0. 0. 0. 0. 0. 0. 0. 0.],-0.041015625,0.0224609375,1.00146484375,[0. 0. 0. 0. 0. 0. 0. 0. 0.]
1.9822185039520264,-0.02275802753865719,-0.006867177784442902,0.7063232660293579,-0.7074903249740601,[0. 0. 0. 0. 0. 0. 0. 0. 0.],-0.18310546875,-0.79345703125,-0.3662109375,[0. 0. 0. 0. 0. 0. 0. 0. 0.],-0.0419921875,0.02197265625,1.00244140625,[0. 0. 0. 0. 0. 0. 0. 0. 0.]
2.002354860305786,-0.022978875786066055,-0.00751275010406971,0.7063513398170471,-0.7074486017227173,[0. 0. 0. 0. 0. 0. 0. 0. 0.],-0.06103515625,0.18310546875,-0.1220703125,[0. 0. 0. 0. 0. 0. 0. 0. 0.],-0.0439453125,0.0224609375,1.00439453125,[0. 0. 0. 0. 0. 0. 0. 0. 0.]
2.0229225158691406,-0.02323906309902668,-0.007548070512712002,0.7063599228858948,-0.7074310779571533,[0. 0. 0. 0. 0. 0. 0. 0. 0.],-0.06103515625,-0.42724609375,0.06103515625,[0. 0. 0. 0. 0. 0. 0. 0. 0.],-0.0439453125,0.02294921875,1.00390625,[0. 0. 0. 0. 0. 0. 0. 0. 0.]
2.0423433780670166,-0.022833697497844696,-0.007153238635510206,0.7063848972320557,-0.7074234485626221,[0. 0. 0. 0. 0. 0. 0. 0. 0.],-0.244140625,-0.9765625,-0.30517578125,[0. 0. 0. 0. 0. 0. 0. 0. 0.],-0.04248046875,0.02197265625,1.00244140625,[0. 0. 0. 0. 0. 0. 0. 0. 0.]
2.0643200874328613,-0.022677525877952576,-0.007696554996073246,0.7064157128334045,-0.7073918581008911,[0. 0. 0. 0. 0. 0. 0. 0. 0.],0.1220703125,-0.9765625,-0.30517578125,[0. 0. 0. 0. 0. 0. 0. 0. 0.],-0.04296875,0.021484375,1.001953125,[0. 0. 0. 0. 0. 0. 0. 0. 0.]
2.0857479572296143,-0.023330017924308777,-0.007511224132031202,0.7064278721809387,-0.707360565662384,[0. 0. 0. 0. 0. 0. 0. 0. 0.],0.06103515625,-1.03759765625,-0.30517578125,[0. 0. 0. 0. 0. 0. 0. 0. 0.],-0.0439453125,0.02197265625,1.0048828125,[0. 0. 0. 0. 0. 0. 0. 0. 0.]
2.102219820022583,-0.02273150533437729,-0.007124055176973343,0.7064470052719116,-0.7073650360107422,[0. 0. 0. 0. 0. 0. 0. 0. 0.],-0.3662109375,-0.1220703125,-0.06103515625,[0. 0. 0. 0. 0. 0. 0. 0. 0.],-0.04248046875,0.02197265625,1.0048828125,[0. 0. 0. 0. 0. 0. 0. 0. 0.]
2.123493194580078,-0.022535691037774086,-0.008073053322732449,0.7064920663833618,-0.7073161602020264,[0. 0. 0. 0. 0. 0. 0. 0. 0.],-0.06103515625,-0.67138671875,-0.30517578125,[0. 0. 0. 0. 0. 0. 0. 0. 0.],-0.04345703125,0.0205078125,1.00439453125,[0. 0. 0. 0. 0. 0. 0. 0. 0.]
2.14225435256958,-0.022715015336871147,-0.007631030865013599,0.7065190076828003,-0.707288384437561,[0. 0. 0. 0. 0. 0. 0. 0. 0.],0.18310546875,-0.9765625,-0.3662109375,[0. 0. 0. 0. 0. 0. 0. 0. 0.],-0.04345703125,0.021484375,1.00390625,[0. 0. 0. 0. 0. 0. 0. 0. 0.]
2.1622636318206787,-0.022498704493045807,-0.007166832219809294,0.706538736820221,-0.7072803378105164,[0. 0. 0. 0. 0. 0. 0. 0. 0.],-0.06103515625,-0.732421875,-0.30517578125,[0. 0. 0. 0. 0. 0. 0. 0. 0.],-0.0419921875,0.021484375,1.0029296875,[0. 0. 0. 0. 0. 0. 0. 0. 0.]
2.190319538116455,-0.022852737456560135,-0.00739758275449276,0.7065491080284119,-0.7072562575340271,[0. 0. 0. 0. 0. 0. 0. 0. 0.],-0.42724609375,-0.42724609375,-0.06103515625,[0. 0. 0. 0. 0. 0. 0. 0. 0.],-0.04296875,0.021484375,1.00244140625,[0. 0. 0. 0. 0. 0. 0. 0. 0.]
2.204167366027832,-0.02264968492090702,-0.0064686196856200695,0.7065611481666565,-0.7072599530220032,[0. 0. 0. 0. 0. 0. 0. 0. 0.],-0.18310546875,-0.06103515625,-0.18310546875,[0. 0. 0. 0. 0. 0. 0. 0. 0.],-0.041015625,0.0234375,1.00439453125,[0. 0. 0. 0. 0. 0. 0. 0. 0.]
2.2222981452941895,-0.022889209911227226,-0.0073624649085104465,0.7065752744674683,-0.7072294354438782,[0. 0. 0. 0. 0. 0. 0. 0. 0.],0.06103515625,0.0,-0.06103515625,[0. 0. 0. 0. 0. 0. 0. 0. 0.],-0.04345703125,0.02197265625,1.0048828125,[0. 0. 0. 0. 0. 0. 0. 0. 0.]
2.242440700531006,-0.02279018983244896,-0.007378763984888792,0.7066090703010559,-0.7071985602378845,[0. 0. 0. 0. 0. 0. 0. 0. 0.],-0.18310546875,-0.8544921875,-0.18310546875,[0. 0. 0. 0. 0. 0. 0. 0. 0.],-0.04296875,0.02197265625,1.00341796875,[0. 0. 0. 0. 0. 0. 0. 0. 0.]
2.2632648944854736,-0.022780701518058777,-0.008036104030907154,0.7066378593444824,-0.7071630358695984,[0. 0. 0. 0. 0. 0. 0. 0. 0.],-0.18310546875,-1.3427734375,-0.244140625,[0. 0. 0. 0. 0. 0. 0. 0. 0.],-0.0439453125,0.02099609375,1.0048828125,[0. 0. 0. 0. 0. 0. 0. 0. 0.]
2.282618999481201,-0.023148680105805397,-0.007687707897275686,0.7066473364830017,-0.7071454524993896,[0. 0. 0. 0. 0. 0. 0. 0. 0.],0.06103515625,-0.6103515625,-0.244140625,[0. 0. 0. 0. 0. 0. 0. 0. 0.],-0.0439453125,0.02197265625,1.001953125,[0. 0. 0. 0. 0. 0. 0. 0. 0.]
2.3029887676239014,-0.023111360147595406,-0.007625064346939325,0.7066628336906433,-0.7071317434310913,[0. 0. 0. 0. 0. 0. 0. 0. 0.],-0.06103515625,-0.18310546875,-0.06103515625,[0. 0. 0. 0. 0. 0. 0. 0. 0.],-0.04345703125,0.021484375,1.0029296875,[0. 0. 0. 0. 0. 0. 0. 0. 0.]
2.323657989501953,-0.023327743634581566,-0.007886230945587158,0.7066869139671326,-0.7070978879928589,[0. 0. 0. 0. 0. 0. 0. 0. 0.],-0.3662109375,-0.48828125,-0.06103515625,[0. 0. 0. 0. 0. 0. 0. 0. 0.],-0.04443359375,0.02197265625,1.005859375,[0. 0. 0. 0. 0. 0. 0. 0. 0.]
2.343191385269165,-0.023160748183727264,-0.007327604573220015,0.7067137360572815,-0.7070824503898621,[0. 0. 0. 0. 0. 0. 0. 0. 0.],0.1220703125,-0.8544921875,-0.244140625,[0. 0. 0. 0. 0. 0. 0. 0. 0.],-0.0439453125,0.0224609375,1.00390625,[0. 0. 0. 0. 0. 0. 0. 0. 0.]
2.3623454570770264,-0.023886768147349358,-0.0078648142516613,0.7067137956619263,-0.7070525288581848,[0. 0. 0. 0. 0. 0. 0. 0. 0.],0.244140625,-0.8544921875,-0.30517578125,[0. 0. 0. 0. 0. 0. 0. 0. 0.],-0.044921875,0.0224609375,1.00439453125,[0. 0. 0. 0. 0. 0. 0. 0. 0.]
2.3822972774505615,-0.023201419040560722,-0.006957432720810175,0.7067332863807678,-0.7070654034614563,[0. 0. 0. 0. 0. 0. 0. 0. 0.],-0.1220703125,-0.67138671875,-0.18310546875,[0. 0. 0. 0. 0. 0. 0. 0. 0.],-0.04248046875,0.02294921875,1.00244140625,[0. 0. 0. 0. 0. 0. 0. 0. 0.]
2.4079015254974365,-0.022900601848959923,-0.007222453132271767,0.70676189661026,-0.7070439457893372,[0. 0. 0. 0. 0. 0. 0. 0. 0.],-0.6103515625,-0.18310546875,0.06103515625,[0. 0. 0. 0. 0. 0. 0. 0. 0.],-0.04248046875,0.0224609375,1.00341796875,[0. 0. 0. 0. 0. 0. 0. 0. 0.]
2.4222323894500732,-0.02311720699071884,-0.008693501353263855,0.7067992687225342,-0.7069829702377319,[0. 0. 0. 0. 0. 0. 0. 0. 0.],0.1220703125,-0.244140625,-0.1220703125,[0. 0. 0. 0. 0. 0. 0. 0. 0.],-0.04541015625,0.0205078125,1.00244140625,[0. 0. 0. 0. 0. 0. 0. 0. 0.]
2.442531108856201,-0.02232474461197853,-0.00864682998508215,0.7068413496017456,-0.7069669961929321,[0. 0. 0. 0. 0. 0. 0. 0. 0.],0.30517578125,-0.79345703125,-0.1220703125,[0. 0. 0. 0. 0. 0. 0. 0. 0.],-0.0439453125,0.01953125,1.0029296875,[0. 0. 0. 0. 0. 0. 0. 0. 0.]
2.4624316692352295,-0.022975850850343704,-0.007099398877471685,0.7068287134170532,-0.7069757580757141,[0. 0. 0. 0. 0. 0. 0. 0. 0.],-0.244140625,-1.28173828125,-0.30517578125,[0. 0. 0. 0. 0. 0. 0. 0. 0.],-0.04296875,0.02197265625,1.0029296875,[0. 0. 0. 0. 0. 0. 0. 0. 0.]
2.4834065437316895,-0.022683165967464447,-0.006934977602213621,0.706845223903656,-0.7069703936576843,[0. 0. 0. 0. 0. 0. 0. 0. 0.],-0.18310546875,-0.79345703125,-0.1220703125,[0. 0. 0. 0. 0. 0. 0. 0. 0.],-0.04248046875,0.02197265625,1.0048828125,[0. 0. 0. 0. 0. 0. 0. 0. 0.]
2.502739906311035,-0.02221211977303028,-0.007483380846679211,0.7068799734115601,-0.7069451212882996,[0. 0. 0. 0. 0. 0. 0. 0. 0.],0.0,0.06103515625,0.0,[0. 0. 0. 0. 0. 0. 0. 0. 0.],-0.04248046875,0.02099609375,1.00439453125,[0. 0. 0. 0. 0. 0. 0. 0. 0.]
2.5228803157806396,-0.022757679224014282,-0.00785874854773283,0.7068982720375061,-0.7069053053855896,[0. 0. 0. 0. 0. 0. 0. 0. 0.],0.06103515625,-0.3662109375,-0.1220703125,[0. 0. 0. 0. 0. 0. 0. 0. 0.],-0.04345703125,0.02099609375,1.0029296875,[0. 0. 0. 0. 0. 0. 0. 0. 0.]
2.5451624393463135,-0.023380091413855553,-0.007541367784142494,0.7068955898284912,-0.7068912982940674,[0. 0. 0. 0. 0. 0. 0. 0. 0.],0.0,-1.15966796875,-0.18310546875,[0. 0. 0. 0. 0. 0. 0. 0. 0.],-0.0439453125,0.0224609375,1.001953125,[0. 0. 0. 0. 0. 0. 0. 0. 0.]
2.563952684402466,-0.02355038933455944,-0.008402291685342789,0.7069290280342102,-0.7068426012992859,[0. 0. 0. 0. 0. 0. 0. 0. 0.],0.0,-0.9765625,-0.3662109375,[0. 0. 0. 0. 0. 0. 0. 0. 0.],-0.04541015625,0.02197265625,1.00244140625,[0. 0. 0. 0. 0. 0. 0. 0. 0.]
2.582697629928589,-0.02316262759268284,-0.0066249556839466095,0.7069272994995117,-0.7068758606910706,[0. 0. 0. 0. 0. 0. 0. 0. 0.],0.1220703125,-0.18310546875,0.0,[0. 0. 0. 0. 0. 0. 0. 0. 0.],-0.04296875,0.02294921875,1.00390625,[0. 0. 0. 0. 0. 0. 0. 0. 0.]
2.5976641178131104,-0.022349834442138672,-0.007466744631528854,0.7069761753082275,-0.7068448066711426,[0. 0. 0. 0. 0. 0. 0. 0. 0.],-0.30517578125,-0.06103515625,0.06103515625,[0. 0. 0. 0. 0. 0. 0. 0. 0.],-0.04296875,0.02099609375,1.001953125,[0. 0. 0. 0. 0. 0. 0. 0. 0.]
2.622993230819702,-0.022961845621466637,-0.008324900642037392,0.7069953083992004,-0.7067962884902954,[0. 0. 0. 0. 0. 0. 0. 0. 0.],-0.18310546875,-0.8544921875,-0.244140625,[0. 0. 0. 0. 0. 0. 0. 0. 0.],-0.04443359375,0.02099609375,1.0009765625,[0. 0. 0. 0. 0. 0. 0. 0. 0.]
2.6421971321105957,-0.023351158946752548,-0.007079704664647579,0.7069967985153198,-0.7067956328392029,[0. 0. 0. 0. 0. 0. 0. 0. 0.],0.30517578125,-1.03759765625,-0.244140625,[0. 0. 0. 0. 0. 0. 0. 0. 0.],-0.04296875,0.02294921875,1.00390625,[0. 0. 0. 0. 0. 0. 0. 0. 0.]
2.662580966949463,-0.022414399310946465,-0.0071683600544929504,0.707032322883606,-0.7067895531654358,[0. 0. 0. 0. 0. 0. 0. 0. 0.],0.1220703125,-0.732421875,-0.1220703125,[0. 0. 0. 0. 0. 0. 0. 0. 0.],-0.0419921875,0.021484375,1.0029296875,[0. 0. 0. 0. 0. 0. 0. 0. 0.]
2.6833155155181885,-0.023163627833127975,-0.00790613517165184,0.7070398330688477,-0.7067500948905945,[0. 0. 0. 0. 0. 0. 0. 0. 0.],-0.3662109375,-0.91552734375,-0.18310546875,[0. 0. 0. 0. 0. 0. 0. 0. 0.],-0.04443359375,0.02197265625,1.001953125,[0. 0. 0. 0. 0. 0. 0. 0. 0.]
2.7028744220733643,-0.02304801158607006,-0.006470200140029192,0.7070479989051819,-0.7067602872848511,[0. 0. 0. 0. 0. 0. 0. 0. 0.],-0.06103515625,-0.30517578125,-0.1220703125,[0. 0. 0. 0. 0. 0. 0. 0. 0.],-0.04248046875,0.0234375,1.00390625,[0. 0. 0. 0. 0. 0. 0. 0. 0.]
2.72228741645813,-0.023450877517461777,-0.00735089834779501,0.7070632576942444,-0.7067232131958008,[0. 0. 0. 0. 0. 0. 0. 0. 0.],0.18310546875,-0.1220703125,0.06103515625,[0. 0. 0. 0. 0. 0. 0. 0. 0.],-0.0439453125,0.02294921875,1.005859375,[0. 0. 0. 0. 0. 0. 0. 0. 0.]
2.737743616104126,-0.02251579612493515,-0.008152281865477562,0.7071107625961304,-0.7066972255706787,[0. 0. 0. 0. 0. 0. 0. 0. 0.],0.0,-0.8544921875,-0.1220703125,[0. 0. 0. 0. 0. 0. 0. 0. 0.],-0.04345703125,0.0205078125,1.00390625,[0. 0. 0. 0. 0. 0. 0. 0. 0.]
2.7622315883636475,-0.022623803466558456,-0.007230174727737904,0.7071142196655273,-0.7067002654075623,[0. 0. 0. 0. 0. 0. 0. 0. 0.],-0.244140625,-1.28173828125,-0.30517578125,[0. 0. 0. 0. 0. 0. 0. 0. 0.],-0.04248046875,0.021484375,1.00341796875,[0. 0. 0. 0. 0. 0. 0. 0. 0.]
2.7880146503448486,-0.02303098514676094,-0.0075430916622281075,0.7071292400360107,-0.7066688537597656,[0. 0. 0. 0. 0. 0. 0. 0. 0.],0.18310546875,-0.54931640625,-0.18310546875,[0. 0. 0. 0. 0. 0. 0. 0. 0.],-0.04345703125,0.02197265625,1.00341796875,[0. 0. 0. 0. 0. 0. 0. 0. 0.]
2.802788019180298,-0.022684486582875252,-0.008303351700305939,0.7071616053581238,-0.7066392302513123,[0. 0. 0. 0. 0. 0. 0. 0. 0.],-0.06103515625,0.1220703125,-0.06103515625,[0. 0. 0. 0. 0. 0. 0. 0. 0.],-0.0439453125,0.02099609375,1.0029296875,[0. 0. 0. 0. 0. 0. 0. 0. 0.]
2.8224520683288574,-0.023001065477728844,-0.007543540559709072,0.7071687579154968,-0.7066304087638855,[0. 0. 0. 0. 0. 0. 0. 0. 0.],-0.30517578125,-0.54931640625,-0.1220703125,[0. 0. 0. 0. 0. 0. 0. 0. 0.],-0.04345703125,0.02197265625,1.00390625,[0. 0. 0. 0. 0. 0. 0. 0. 0.]
2.842477798461914,-0.022341614589095116,-0.008292682468891144,0.7072156071662903,-0.7065961360931396,[0. 0. 0. 0. 0. 0. 0. 0. 0.],-0.06103515625,-0.9765625,-0.18310546875,[0. 0. 0. 0. 0. 0. 0. 0. 0.],-0.04345703125,0.0205078125,1.0029296875,[0. 0. 0. 0. 0. 0. 0. 0. 0.]
2.8643782138824463,-0.023366499692201614,-0.0068277702666819096,0.7071924805641174,-0.7066019177436829,[0. 0. 0. 0. 0. 0. 0. 0. 0.],0.18310546875,-1.0986328125,-0.3662109375,[0. 0. 0. 0. 0. 0. 0. 0. 0.],-0.04296875,0.02294921875,1.00439453125,[0. 0. 0. 0. 0. 0. 0. 0. 0.]
2.8825013637542725,-0.023333722725510597,-0.00765575934201479,0.7072133421897888,-0.7065735459327698,[0. 0. 0. 0. 0. 0. 0. 0. 0.],-0.3662109375,-0.54931640625,-0.1220703125,[0. 0. 0. 0. 0. 0. 0. 0. 0.],-0.0439453125,0.0224609375,1.0029296875,[0. 0. 0. 0. 0. 0. 0. 0. 0.]
2.903362512588501,-0.023240918293595314,-0.006314496509730816,0.7072071433067322,-0.7065961360931396,[0. 0. 0. 0. 0. 0. 0. 0. 0.],-0.3662109375,-0.42724609375,0.0,[0. 0. 0. 0. 0. 0. 0. 0. 0.],-0.0419921875,0.02392578125,1.0048828125,[0. 0. 0. 0. 0. 0. 0. 0. 0.]
2.9229929447174072,-0.023251092061400414,-0.0074549182318151,0.7072545886039734,-0.7065371870994568,[0. 0. 0. 0. 0. 0. 0. 0. 0.],0.06103515625,-0.42724609375,-0.1220703125,[0. 0. 0. 0. 0. 0. 0. 0. 0.],-0.04296875,0.02197265625,1.00439453125,[0. 0. 0. 0. 0. 0. 0. 0. 0.]
2.943241596221924,-0.02248675748705864,-0.007291347254067659,0.7072898149490356,-0.70652836561203,[0. 0. 0. 0. 0. 0. 0. 0. 0.],0.1220703125,-0.79345703125,-0.18310546875,[0. 0. 0. 0. 0. 0. 0. 0. 0.],-0.04248046875,0.02197265625,1.0048828125,[0. 0. 0. 0. 0. 0. 0. 0. 0.]
2.9591798782348633,-0.022079436108469963,-0.00705587537959218,0.7073153257369995,-0.7065180540084839,[0. 0. 0. 0. 0. 0. 0. 0. 0.],-0.244140625,-1.15966796875,-0.18310546875,[0. 0. 0. 0. 0. 0. 0. 0. 0.],-0.04150390625,0.021484375,1.00341796875,[0. 0. 0. 0. 0. 0. 0. 0. 0.]
2.982473373413086,-0.02327880822122097,-0.00711663905531168,0.7073056101799011,-0.7064887285232544,[0. 0. 0. 0. 0. 0. 0. 0. 0.],-0.244140625,-0.54931640625,-0.06103515625,[0. 0. 0. 0. 0. 0. 0. 0. 0.],-0.04345703125,0.0224609375,1.0029296875,[0. 0. 0. 0. 0. 0. 0. 0. 0.]
3.002748966217041,-0.02302497625350952,-0.007042130921036005,0.7073293328285217,-0.7064740061759949,[0. 0. 0. 0. 0. 0. 0. 0. 0.],0.1220703125,0.1220703125,-0.06103515625,[0. 0. 0. 0. 0. 0. 0. 0. 0.],-0.04296875,0.0224609375,1.00341796875,[0. 0. 0. 0. 0. 0. 0. 0. 0.]
3.0223543643951416,-0.022191157564520836,-0.007597944233566523,0.7073705196380615,-0.706453800201416,[0. 0. 0. 0. 0. 0. 0. 0. 0.],0.1220703125,-0.67138671875,0.0,[0. 0. 0. 0. 0. 0. 0. 0. 0.],-0.04248046875,0.0205078125,1.00341796875,[0. 0. 0. 0. 0. 0. 0. 0. 0.]
3.039217710494995,-0.022469721734523773,-0.008305879309773445,0.7073924541473389,-0.7064148783683777,[0. 0. 0. 0. 0. 0. 0. 0. 0.],-0.42724609375,-1.3427734375,-0.30517578125,[0. 0. 0. 0. 0. 0. 0. 0. 0.],-0.0439453125,0.02001953125,1.00244140625,[0. 0. 0. 0. 0. 0. 0. 0. 0.]
3.0645225048065186,-0.022761952131986618,-0.00759769044816494,0.7074013948440552,-0.7064047455787659,[0. 0. 0. 0. 0. 0. 0. 0. 0.],0.0,-0.8544921875,-0.18310546875,[0. 0. 0. 0. 0. 0. 0. 0. 0.],-0.04296875,0.021484375,1.00390625,[0. 0. 0. 0. 0. 0. 0. 0. 0.]
3.0826430320739746,-0.02307678945362568,-0.006912154611200094,0.7074001431465149,-0.7064026594161987,[0. 0. 0. 0. 0. 0. 0. 0. 0.],0.0,-0.30517578125,-0.18310546875,[0. 0. 0. 0. 0. 0. 0. 0. 0.],-0.04248046875,0.02294921875,1.00341796875,[0. 0. 0. 0. 0. 0. 0. 0. 0.]
3.0979764461517334,-0.023470133543014526,-0.007522858679294586,0.7074306011199951,-0.7063530683517456,[0. 0. 0. 0. 0. 0. 0. 0. 0.],-0.18310546875,-0.3662109375,-0.1220703125,[0. 0. 0. 0. 0. 0. 0. 0. 0.],-0.04345703125,0.0224609375,1.0029296875,[0. 0. 0. 0. 0. 0. 0. 0. 0.]
3.117788076400757,-0.02269095741212368,-0.007541596423834562,0.7074559330940247,-0.7063528299331665,[0. 0. 0. 0. 0. 0. 0. 0. 0.],-0.30517578125,-0.9765625,-0.1220703125,[0. 0. 0. 0. 0. 0. 0. 0. 0.],-0.04345703125,0.02099609375,1.00439453125,[0. 0. 0. 0. 0. 0. 0. 0. 0.]
3.1375718116760254,-0.02295817621052265,-0.008322522975504398,0.7074729800224304,-0.7063183784484863,[0. 0. 0. 0. 0. 0. 0. 0. 0.],0.30517578125,-0.54931640625,-0.1220703125,[0. 0. 0. 0. 0. 0. 0. 0. 0.],-0.0439453125,0.02099609375,1.00439453125,[0. 0. 0. 0. 0. 0. 0. 0. 0.]
3.162229061126709,-0.02314326912164688,-0.008084273897111416,0.7074794769287109,-0.7063087224960327,[0. 0. 0. 0. 0. 0. 0. 0. 0.],0.0,-1.0986328125,-0.1220703125,[0. 0. 0. 0. 0. 0. 0. 0. 0.],-0.04443359375,0.021484375,1.00439453125,[0. 0. 0. 0. 0. 0. 0. 0. 0.]
3.1830317974090576,-0.023636601865291595,-0.006955633871257305,0.7074763774871826,-0.7063074707984924,[0. 0. 0. 0. 0. 0. 0. 0. 0.],-0.48828125,-0.91552734375,-0.30517578125,[0. 0. 0. 0. 0. 0. 0. 0. 0.],-0.04296875,0.0234375,1.00341796875,[0. 0. 0. 0. 0. 0. 0. 0. 0.]
3.20302677154541,-0.02199806272983551,-0.007188643794506788,0.7075342535972595,-0.7063000202178955,[0. 0. 0. 0. 0. 0. 0. 0. 0.],-0.1220703125,-0.244140625,-0.18310546875,[0. 0. 0. 0. 0. 0. 0. 0. 0.],-0.0419921875,0.02099609375,1.00341796875,[0. 0. 0. 0. 0. 0. 0. 0. 0.]
3.2223503589630127,-0.022785766050219536,-0.007214945740997791,0.7075521945953369,-0.7062568068504333,[0. 0. 0. 0. 0. 0. 0. 0. 0.],0.06103515625,-0.06103515625,-0.1220703125,[0. 0. 0. 0. 0. 0. 0. 0. 0.],-0.04248046875,0.02197265625,1.00439453125,[0. 0. 0. 0. 0. 0. 0. 0. 0.]
3.2424042224884033,-0.02259804494678974,-0.00800340250134468,0.7075870037078857,-0.7062195539474487,[0. 0. 0. 0. 0. 0. 0. 0. 0.],-0.1220703125,-1.0986328125,-0.18310546875,[0. 0. 0. 0. 0. 0. 0. 0. 0.],-0.0439453125,0.0205078125,1.00244140625,[0. 0. 0. 0. 0. 0. 0. 0. 0.]
3.263157844543457,-0.022974155843257904,-0.0075995237566530704,0.7075880169868469,-0.7062109112739563,[0. 0. 0. 0. 0. 0. 0. 0. 0.],-0.18310546875,-1.3427734375,-0.244140625,[0. 0. 0. 0. 0. 0. 0. 0. 0.],-0.04345703125,0.02197265625,1.00439453125,[0. 0. 0. 0. 0. 0. 0. 0. 0.]
3.2790439128875732,-0.02301436848938465,-0.007862962782382965,0.7076002955436707,-0.7061943411827087,[0. 0. 0. 0. 0. 0. 0. 0. 0.],0.0,-0.42724609375,-0.1220703125,[0. 0. 0. 0. 0. 0. 0. 0. 0.],-0.0439453125,0.021484375,1.00146484375,[0. 0. 0. 0. 0. 0. 0. 0. 0.]
3.3023386001586914,-0.023440709337592125,-0.0076077706180512905,0.7076069712638855,-0.7061764001846313,[0. 0. 0. 0. 0. 0. 0. 0. 0.],0.0,0.06103515625,0.06103515625,[0. 0. 0. 0. 0. 0. 0. 0. 0.],-0.04443359375,0.0224609375,1.00390625,[0. 0. 0. 0. 0. 0. 0. 0. 0.]
3.320246696472168,-0.021644575521349907,-0.007318852003663778,0.7076674103736877,-0.7061762809753418,[0. 0. 0. 0. 0. 0. 0. 0. 0.],-0.244140625,-0.48828125,-0.06103515625,[0. 0. 0. 0. 0. 0. 0. 0. 0.],-0.04150390625,0.0205078125,1.0048828125,[0. 0. 0. 0. 0. 0. 0. 0. 0.]
3.3442273139953613,-0.02285994030535221,-0.00767993601039052,0.707672655582428,-0.7061287760734558,[0. 0. 0. 0. 0. 0. 0. 0. 0.],0.1220703125,-1.0986328125,-0.244140625,[0. 0. 0. 0. 0. 0. 0. 0. 0.],-0.04345703125,0.021484375,1.00244140625,[0. 0. 0. 0. 0. 0. 0. 0. 0.]
3.362718343734741,-0.02369564212858677,-0.007469500415027142,0.7076704502105713,-0.7061057090759277,[0. 0. 0. 0. 0. 0. 0. 0. 0.],0.18310546875,-1.03759765625,-0.244140625,[0. 0. 0. 0. 0. 0. 0. 0. 0.],-0.04443359375,0.0234375,1.00390625,[0. 0. 0. 0. 0. 0. 0. 0. 0.]
3.382277250289917,-0.022343212738633156,-0.006676504388451576,0.7077082395553589,-0.7061198949813843,[0. 0. 0. 0. 0. 0. 0. 0. 0.],-0.18310546875,-0.42724609375,-0.06103515625,[0. 0. 0. 0. 0. 0. 0. 0. 0.],-0.04150390625,0.0224609375,1.00341796875,[0. 0. 0. 0. 0. 0. 0. 0. 0.]
3.4023334980010986,-0.02285306714475155,-0.006908617913722992,0.7077120542526245,-0.7060975432395935,[0. 0. 0. 0. 0. 0. 0. 0. 0.],-0.30517578125,-0.30517578125,0.06103515625,[0. 0. 0. 0. 0. 0. 0. 0. 0.],-0.04248046875,0.02294921875,1.0029296875,[0. 0. 0. 0. 0. 0. 0. 0. 0.]
3.422356605529785,-0.0220352653414011,-0.007952188141644001,0.7077676653862,-0.7060568928718567,[0. 0. 0. 0. 0. 0. 0. 0. 0.],0.06103515625,-0.3662109375,-0.06103515625,[0. 0. 0. 0. 0. 0. 0. 0. 0.],-0.04248046875,0.02001953125,1.0029296875,[0. 0. 0. 0. 0. 0. 0. 0. 0.]
3.442314386367798,-0.022314565256237984,-0.008270797319710255,0.7077855467796326,-0.7060264348983765,[0. 0. 0. 0. 0. 0. 0. 0. 0.],0.3662109375,-0.91552734375,-0.18310546875,[0. 0. 0. 0. 0. 0. 0. 0. 0.],-0.04345703125,0.02001953125,1.00341796875,[0. 0. 0. 0. 0. 0. 0. 0. 0.]
3.4626617431640625,-0.022437358275055885,-0.006504785735160112,0.7077822089195251,-0.7060443758964539,[0. 0. 0. 0. 0. 0. 0. 0. 0.],-0.244140625,-1.03759765625,-0.18310546875,[0. 0. 0. 0. 0. 0. 0. 0. 0.],-0.041015625,0.02294921875,1.00244140625,[0. 0. 0. 0. 0. 0. 0. 0. 0.]
3.482757329940796,-0.022963209077715874,-0.007310289423912764,0.7078071236610413,-0.7059946060180664,[0. 0. 0. 0. 0. 0. 0. 0. 0.],-0.3662109375,-0.54931640625,-0.244140625,[0. 0. 0. 0. 0. 0. 0. 0. 0.],-0.04248046875,0.0224609375,1.001953125,[0. 0. 0. 0. 0. 0. 0. 0. 0.]
3.5026373863220215,-0.022947251796722412,-0.008129224181175232,0.7078402042388916,-0.7059530019760132,[0. 0. 0. 0. 0. 0. 0. 0. 0.],0.1220703125,0.0,0.0,[0. 0. 0. 0. 0. 0. 0. 0. 0.],-0.0439453125,0.0205078125,1.0029296875,[0. 0. 0. 0. 0. 0. 0. 0. 0.]
3.5195884704589844,-0.023383669555187225,-0.007461762521415949,0.707842230796814,-0.7059441208839417,[0. 0. 0. 0. 0. 0. 0. 0. 0.],0.0,-0.67138671875,-0.06103515625,[0. 0. 0. 0. 0. 0. 0. 0. 0.],-0.0439453125,0.0224609375,1.0029296875,[0. 0. 0. 0. 0. 0. 0. 0. 0.]
3.542644500732422,-0.02316923439502716,-0.007146003656089306,0.7078549861907959,-0.7059415578842163,[0. 0. 0. 0. 0. 0. 0. 0. 0.],-0.3662109375,-1.15966796875,-0.1220703125,[0. 0. 0. 0. 0. 0. 0. 0. 0.],-0.04248046875,0.02197265625,1.00439453125,[0. 0. 0. 0. 0. 0. 0. 0. 0.]
3.5625672340393066,-0.02197827771306038,-0.007506192661821842,0.7079073786735535,-0.7059234976768494,[0. 0. 0. 0. 0. 0. 0. 0. 0.],0.0,-0.79345703125,-0.30517578125,[0. 0. 0. 0. 0. 0. 0. 0. 0.],-0.0419921875,0.0205078125,1.00439453125,[0. 0. 0. 0. 0. 0. 0. 0. 0.]
3.582540988922119,-0.02308233454823494,-0.007705714553594589,0.7079042792320251,-0.7058892250061035,[0. 0. 0. 0. 0. 0. 0. 0. 0.],0.1220703125,-0.06103515625,-0.06103515625,[0. 0. 0. 0. 0. 0. 0. 0. 0.],-0.0439453125,0.02197265625,1.0029296875,[0. 0. 0. 0. 0. 0. 0. 0. 0.]
3.5989739894866943,-0.023533537983894348,-0.007810092996805906,0.7078985571861267,-0.705878734588623,[0. 0. 0. 0. 0. 0. 0. 0. 0.],-0.42724609375,-0.30517578125,0.06103515625,[0. 0. 0. 0. 0. 0. 0. 0. 0.],-0.044921875,0.0224609375,1.001953125,[0. 0. 0. 0. 0. 0. 0. 0. 0.]
3.624837875366211,-0.023171955719590187,-0.007665276061743498,0.7079325914382935,-0.7058582305908203,[0. 0. 0. 0. 0. 0. 0. 0. 0.],-0.06103515625,-0.30517578125,0.0,[0. 0. 0. 0. 0. 0. 0. 0. 0.],-0.04345703125,0.02197265625,1.00439453125,[0. 0. 0. 0. 0. 0. 0. 0. 0.]
3.642622232437134,-0.022952044382691383,-0.0077733490616083145,0.7079610824584961,-0.7058355808258057,[0. 0. 0. 0. 0. 0. 0. 0. 0.],0.244140625,-0.732421875,-0.18310546875,[0. 0. 0. 0. 0. 0. 0. 0. 0.],-0.0439453125,0.021484375,1.00390625,[0. 0. 0. 0. 0. 0. 0. 0. 0.]
3.6623404026031494,-0.02291325107216835,-0.007479560561478138,0.7079776525497437,-0.7058234810829163,[0. 0. 0. 0. 0. 0. 0. 0. 0.],0.06103515625,-0.9765625,-0.30517578125,[0. 0. 0. 0. 0. 0. 0. 0. 0.],-0.04345703125,0.02197265625,1.00244140625,[0. 0. 0. 0. 0. 0. 0. 0. 0.]
3.6825308799743652,-0.022878486663103104,-0.00761152058839798,0.7079915404319763,-0.7058092355728149,[0. 0. 0. 0. 0. 0. 0. 0. 0.],-0.3662109375,-0.8544921875,-0.244140625,[0. 0. 0. 0. 0. 0. 0. 0. 0.],-0.0439453125,0.021484375,1.0048828125,[0. 0. 0. 0. 0. 0. 0. 0. 0.]
3.7024428844451904,-0.02316882461309433,-0.006627531256526709,0.7079920768737793,-0.7058091163635254,[0. 0. 0. 0. 0. 0. 0. 0. 0.],-0.1220703125,-0.06103515625,0.06103515625,[0. 0. 0. 0. 0. 0. 0. 0. 0.],-0.04248046875,0.0234375,1.005859375,[0. 0. 0. 0. 0. 0. 0. 0. 0.]
3.723398208618164,-0.023203568533062935,-0.007681193295866251,0.7080335021018982,-0.7057557106018066,[0. 0. 0. 0. 0. 0. 0. 0. 0.],0.18310546875,-0.30517578125,-0.06103515625,[0. 0. 0. 0. 0. 0. 0. 0. 0.],-0.0439453125,0.02197265625,1.00341796875,[0. 0. 0. 0. 0. 0. 0. 0. 0.]
3.7425315380096436,-0.022427484393119812,-0.0076910159550607204,0.708074688911438,-0.705739438533783,[0. 0. 0. 0. 0. 0. 0. 0. 0.],-0.06103515625,-1.28173828125,-0.244140625,[0. 0. 0. 0. 0. 0. 0. 0. 0.],-0.04345703125,0.02099609375,1.00537109375,[0. 0. 0. 0. 0. 0. 0. 0. 0.]
3.762265205383301,-0.022471420466899872,-0.007997559383511543,0.7080915570259094,-0.7057176232337952,[0. 0. 0. 0. 0. 0. 0. 0. 0.],-0.3662109375,-1.220703125,-0.30517578125,[0. 0. 0. 0. 0. 0. 0. 0. 0.],-0.04345703125,0.02099609375,1.0048828125,[0. 0. 0. 0. 0. 0. 0. 0. 0.]
3.7868285179138184,-0.023669680580496788,-0.007266488391906023,0.7080639004707336,-0.705714225769043,[0. 0. 0. 0. 0. 0. 0. 0. 0.],-0.06103515625,-0.42724609375,0.0,[0. 0. 0. 0. 0. 0. 0. 0. 0.],-0.0439453125,0.0224609375,1.00341796875,[0. 0. 0. 0. 0. 0. 0. 0. 0.]
3.802506446838379,-0.02274926006793976,-0.007310832384973764,0.7081053256988525,-0.7057024240493774,[0. 0. 0. 0. 0. 0. 0. 0. 0.],-0.06103515625,0.1220703125,0.1220703125,[0. 0. 0. 0. 0. 0. 0. 0. 0.],-0.04296875,0.021484375,1.00244140625,[0. 0. 0. 0. 0. 0. 0. 0. 0.]
3.8253331184387207,-0.022277403622865677,-0.007993348874151707,0.7081485390663147,-0.7056666612625122,[0. 0. 0. 0. 0. 0. 0. 0. 0.],-0.1220703125,-0.732421875,-0.1220703125,[0. 0. 0. 0. 0. 0. 0. 0. 0.],-0.04296875,0.0205078125,1.00390625,[0. 0. 0. 0. 0. 0. 0. 0. 0.]
3.8425238132476807,-0.022318318486213684,-0.007143404334783554,0.7081655263900757,-0.7056576013565063,[0. 0. 0. 0. 0. 0. 0. 0. 0.],-0.1220703125,-1.220703125,-0.30517578125,[0. 0. 0. 0. 0. 0. 0. 0. 0.],-0.0419921875,0.021484375,1.0029296875,[0. 0. 0. 0. 0. 0. 0. 0. 0.]
3.8584649562835693,-0.022713065147399902,-0.007561706937849522,0.70818030834198,-0.7056256532669067,[0. 0. 0. 0. 0. 0. 0. 0. 0.],0.18310546875,-0.8544921875,-0.18310546875,[0. 0. 0. 0. 0. 0. 0. 0. 0.],-0.04345703125,0.021484375,1.001953125,[0. 0. 0. 0. 0. 0. 0. 0. 0.]
3.8851263523101807,-0.022929469123482704,-0.007257701829075813,0.7081853747367859,-0.70561683177948,[0. 0. 0. 0. 0. 0. 0. 0. 0.],-0.1220703125,-0.30517578125,0.0,[0. 0. 0. 0. 0. 0. 0. 0. 0.],-0.04296875,0.0224609375,1.00341796875,[0. 0. 0. 0. 0. 0. 0. 0. 0.]
3.9036972522735596,-0.023632260039448738,-0.007333014160394669,0.7081963419914246,-0.7055818438529968,[0. 0. 0. 0. 0. 0. 0. 0. 0.],-0.42724609375,-0.3662109375,-0.1220703125,[0. 0. 0. 0. 0. 0. 0. 0. 0.],-0.0439453125,0.02294921875,1.00390625,[0. 0. 0. 0. 0. 0. 0. 0. 0.]
3.9176526069641113,-0.02303478680551052,-0.00872783549129963,0.7082505226135254,-0.7055313587188721,[0. 0. 0. 0. 0. 0. 0. 0. 0.],0.0,-0.6103515625,0.0,[0. 0. 0. 0. 0. 0. 0. 0. 0.],-0.044921875,0.0205078125,1.00341796875,[0. 0. 0. 0. 0. 0. 0. 0. 0.]
3.9469361305236816,-0.0230273250490427,-0.008191809058189392,0.7082615494728088,-0.7055268883705139,[0. 0. 0. 0. 0. 0. 0. 0. 0.],0.1220703125,-0.91552734375,-0.1220703125,[0. 0. 0. 0. 0. 0. 0. 0. 0.],-0.0439453125,0.02099609375,1.00244140625,[0. 0. 0. 0. 0. 0. 0. 0. 0.]
3.9629287719726562,-0.023126590996980667,-0.007127005141228437,0.7082617878913879,-0.7055350542068481,[0. 0. 0. 0. 0. 0. 0. 0. 0.],-0.244140625,-0.91552734375,-0.244140625,[0. 0. 0. 0. 0. 0. 0. 0. 0.],-0.04345703125,0.02294921875,1.001953125,[0. 0. 0. 0. 0. 0. 0. 0. 0.]
3.982640504837036,-0.024420887231826782,-0.007792736869305372,0.7082595229148865,-0.7054865956306458,[0. 0. 0. 0. 0. 0. 0. 0. 0.],-0.54931640625,-0.48828125,-0.06103515625,[0. 0. 0. 0. 0. 0. 0. 0. 0.],-0.04541015625,0.0234375,1.00146484375,[0. 0. 0. 0. 0. 0. 0. 0. 0.]
4.002877235412598,-0.02285132184624672,-0.007210835814476013,0.7083159685134888,-0.7054887413978577,[0. 0. 0. 0. 0. 0. 0. 0. 0.],0.0,0.0,-0.244140625,[0. 0. 0. 0. 0. 0. 0. 0. 0.],-0.04296875,0.02197265625,1.0029296875,[0. 0. 0. 0. 0. 0. 0. 0. 0.]
4.022722005844116,-0.02155245654284954,-0.007003972306847572,0.708367109298706,-0.7054803967475891,[0. 0. 0. 0. 0. 0. 0. 0. 0.],0.18310546875,-0.79345703125,-0.18310546875,[0. 0. 0. 0. 0. 0. 0. 0. 0.],-0.041015625,0.02099609375,1.00439453125,[0. 0. 0. 0. 0. 0. 0. 0. 0.]
4.042574644088745,-0.022846119478344917,-0.00792824849486351,0.7083610892295837,-0.7054358720779419,[0. 0. 0. 0. 0. 0. 0. 0. 0.],-0.30517578125,-1.220703125,-0.18310546875,[0. 0. 0. 0. 0. 0. 0. 0. 0.],-0.04345703125,0.02099609375,1.00537109375,[0. 0. 0. 0. 0. 0. 0. 0. 0.]
4.062506198883057,-0.023176245391368866,-0.0070069944486021996,0.7083597779273987,-0.7054362297058105,[0. 0. 0. 0. 0. 0. 0. 0. 0.],-0.06103515625,-0.9765625,-0.30517578125,[0. 0. 0. 0. 0. 0. 0. 0. 0.],-0.04345703125,0.0224609375,1.00341796875,[0. 0. 0. 0. 0. 0. 0. 0. 0.]
4.082968473434448,-0.02318304032087326,-0.0067319669760763645,0.7083731293678284,-0.7054251432418823,[0. 0. 0. 0. 0. 0. 0. 0. 0.],0.1220703125,-0.42724609375,-0.1220703125,[0. 0. 0. 0. 0. 0. 0. 0. 0.],-0.04248046875,0.02294921875,1.00341796875,[0. 0. 0. 0. 0. 0. 0. 0. 0.]
4.102403879165649,-0.022862514480948448,-0.007387431804090738,0.7084165215492249,-0.7053855061531067,[0. 0. 0. 0. 0. 0. 0. 0. 0.],-0.48828125,-0.30517578125,-0.06103515625,[0. 0. 0. 0. 0. 0. 0. 0. 0.],-0.04296875,0.02197265625,1.00341796875,[0. 0. 0. 0. 0. 0. 0. 0. 0.]
4.122556209564209,-0.02242193929851055,-0.008273842744529247,0.7084547281265259,-0.7053515911102295,[0. 0. 0. 0. 0. 0. 0. 0. 0.],-0.06103515625,-0.54931640625,-0.1220703125,[0. 0. 0. 0. 0. 0. 0. 0. 0.],-0.04345703125,0.01953125,1.0029296875,[0. 0. 0. 0. 0. 0. 0. 0. 0.]
4.143057107925415,-0.02271273359656334,-0.007384118624031544,0.7084581851959229,-0.7053486108779907,[0. 0. 0. 0. 0. 0. 0. 0. 0.],0.30517578125,-0.91552734375,-0.1220703125,[0. 0. 0. 0. 0. 0. 0. 0. 0.],-0.04296875,0.02197265625,1.00341796875,[0. 0. 0. 0. 0. 0. 0. 0. 0.]
4.159095287322998,-0.02251557633280754,-0.006710882298648357,0.7084696292877197,-0.7053502202033997,[0. 0. 0. 0. 0. 0. 0. 0. 0.],0.1220703125,-0.91552734375,-0.30517578125,[0. 0. 0. 0. 0. 0. 0. 0. 0.],-0.0419921875,0.0224609375,1.00439453125,[0. 0. 0. 0. 0. 0. 0. 0. 0.]
4.185975074768066,-0.022716496139764786,-0.007829314097762108,0.7084876894950867,-0.705314040184021,[0. 0. 0. 0. 0. 0. 0. 0. 0.],-0.3662109375,-0.732421875,-0.1220703125,[0. 0. 0. 0. 0. 0. 0. 0. 0.],-0.04345703125,0.02099609375,1.00341796875,[0. 0. 0. 0. 0. 0. 0. 0. 0.]
4.1976940631866455,-0.02228729985654354,-0.008125596679747105,0.7085158824920654,-0.7052960991859436,[0. 0. 0. 0. 0. 0. 0. 0. 0.],0.0,-0.18310546875,0.1220703125,[0. 0. 0. 0. 0. 0. 0. 0. 0.],-0.04345703125,0.02099609375,1.00439453125,[0. 0. 0. 0. 0. 0. 0. 0. 0.]
4.222575426101685,-0.02324879728257656,-0.006552377250045538,0.7085052728652954,-0.7052920460700989,[0. 0. 0. 0. 0. 0. 0. 0. 0.],0.30517578125,-0.42724609375,-0.06103515625,[0. 0. 0. 0. 0. 0. 0. 0. 0.],-0.04248046875,0.0234375,1.0029296875,[0. 0. 0. 0. 0. 0. 0. 0. 0.]
4.242435932159424,-0.023159168660640717,-0.0072140442207455635,0.7085407972335815,-0.7052528262138367,[0. 0. 0. 0. 0. 0. 0. 0. 0.],-0.06103515625,-1.03759765625,-0.244140625,[0. 0. 0. 0. 0. 0. 0. 0. 0.],-0.04345703125,0.0224609375,1.00341796875,[0. 0. 0. 0. 0. 0. 0. 0. 0.]
4.257721662521362,-0.02325328253209591,-0.007900752127170563,0.7085632681846619,-0.7052198648452759,[0. 0. 0. 0. 0. 0. 0. 0. 0.],-0.30517578125,-1.220703125,-0.30517578125,[0. 0. 0. 0. 0. 0. 0. 0. 0.],-0.04443359375,0.02197265625,1.00537109375,[0. 0. 0. 0. 0. 0. 0. 0. 0.]
4.282341241836548,-0.023177295923233032,-0.007628509774804115,0.7085766196250916,-0.7052119374275208,[0. 0. 0. 0. 0. 0. 0. 0. 0.],0.0,-0.30517578125,-0.1220703125,[0. 0. 0. 0. 0. 0. 0. 0. 0.],-0.0439453125,0.02197265625,1.0029296875,[0. 0. 0. 0. 0. 0. 0. 0. 0.]
4.302269220352173,-0.02334977686405182,-0.007822126150131226,0.7085881233215332,-0.7051925659179688,[0. 0. 0. 0. 0. 0. 0. 0. 0.],-0.06103515625,0.0,0.06103515625,[0. 0. 0. 0. 0. 0. 0. 0. 0.],-0.04443359375,0.02197265625,1.0048828125,[0. 0. 0. 0. 0. 0. 0. 0. 0.]
4.32234787940979,-0.022309543564915657,-0.0073380484245717525,0.7086290717124939,-0.7051902413368225,[0. 0. 0. 0. 0. 0. 0. 0. 0.],-0.244140625,-0.732421875,-0.1220703125,[0. 0. 0. 0. 0. 0. 0. 0. 0.],-0.04248046875,0.02099609375,1.0009765625,[0. 0. 0. 0. 0. 0. 0. 0. 0.]
4.342255592346191,-0.022616473957896233,-0.007209090981632471,0.7086364030838013,-0.7051743865013123,[0. 0. 0. 0. 0. 0. 0. 0. 0.],-0.1220703125,-1.220703125,-0.244140625,[0. 0. 0. 0. 0. 0. 0. 0. 0.],-0.04296875,0.021484375,1.0029296875,[0. 0. 0. 0. 0. 0. 0. 0. 0.]
4.36248517036438,-0.021999942138791084,-0.00817117653787136,0.7086760997772217,-0.7051437497138977,[0. 0. 0. 0. 0. 0. 0. 0. 0.],0.0,-0.6103515625,-0.244140625,[0. 0. 0. 0. 0. 0. 0. 0. 0.],-0.04345703125,0.01953125,1.00439453125,[0. 0. 0. 0. 0. 0. 0. 0. 0.]
4.382362604141235,-0.022715404629707336,-0.007568893022835255,0.7086672186851501,-0.7051365971565247,[0. 0. 0. 0. 0. 0. 0. 0. 0.],-0.18310546875,-0.244140625,0.0,[0. 0. 0. 0. 0. 0. 0. 0. 0.],-0.04296875,0.02197265625,1.0,[0. 0. 0. 0. 0. 0. 0. 0. 0.]
4.402635097503662,-0.022642292082309723,-0.00750498753041029,0.7086913585662842,-0.7051153182983398,[0. 0. 0. 0. 0. 0. 0. 0. 0.],-0.48828125,-0.3662109375,0.0,[0. 0. 0. 0. 0. 0. 0. 0. 0.],-0.04345703125,0.021484375,1.00341796875,[0. 0. 0. 0. 0. 0. 0. 0. 0.]
4.422470808029175,-0.02287566103041172,-0.006723030470311642,0.7087113857269287,-0.7050955295562744,[0. 0. 0. 0. 0. 0. 0. 0. 0.],0.0,-0.1220703125,0.0,[0. 0. 0. 0. 0. 0. 0. 0. 0.],-0.0419921875,0.02294921875,1.0009765625,[0. 0. 0. 0. 0. 0. 0. 0. 0.]
4.442355155944824,-0.022586951032280922,-0.007567183580249548,0.7087435722351074,-0.7050639986991882,[0. 0. 0. 0. 0. 0. 0. 0. 0.],0.30517578125,-0.9765625,-0.244140625,[0. 0. 0. 0. 0. 0. 0. 0. 0.],-0.04296875,0.02099609375,1.00341796875,[0. 0. 0. 0. 0. 0. 0. 0. 0.]
4.460108280181885,-0.02265520952641964,-0.007635853718966246,0.7087492346763611,-0.7050553560256958,[0. 0. 0. 0. 0. 0. 0. 0. 0.],-0.18310546875,-0.79345703125,-0.06103515625,[0. 0. 0. 0. 0. 0. 0. 0. 0.],-0.04296875,0.02099609375,1.00341796875,[0. 0. 0. 0. 0. 0. 0. 0. 0.]
4.483485460281372,-0.023057399317622185,-0.007240119390189648,0.7087554335594177,-0.7050402164459229,[0. 0. 0. 0. 0. 0. 0. 0. 0.],-0.30517578125,-0.42724609375,-0.1220703125,[0. 0. 0. 0. 0. 0. 0. 0. 0.],-0.04296875,0.02197265625,1.00390625,[0. 0. 0. 0. 0. 0. 0. 0. 0.]
4.503361463546753,-0.02276383526623249,-0.007275003008544445,0.7087843418121338,-0.7050202488899231,[0. 0. 0. 0. 0. 0. 0. 0. 0.],0.18310546875,-0.1220703125,-0.06103515625,[0. 0. 0. 0. 0. 0. 0. 0. 0.],-0.04296875,0.0224609375,1.00439453125,[0. 0. 0. 0. 0. 0. 0. 0. 0.]
4.52235746383667,-0.02334189973771572,-0.006721488665789366,0.7087787985801697,-0.7050125598907471,[0. 0. 0. 0. 0. 0. 0. 0. 0.],-0.06103515625,-0.30517578125,0.06103515625,[0. 0. 0. 0. 0. 0. 0. 0. 0.],-0.04248046875,0.02294921875,1.00244140625,[0. 0. 0. 0. 0. 0. 0. 0. 0.]
4.537787675857544,-0.022849107161164284,-0.007333693094551563,0.7088062763214111,-0.7049950361251831,[0. 0. 0. 0. 0. 0. 0. 0. 0.],-0.244140625,-0.9765625,-0.244140625,[0. 0. 0. 0. 0. 0. 0. 0. 0.],-0.04296875,0.021484375,1.00146484375,[0. 0. 0. 0. 0. 0. 0. 0. 0.]
4.562199831008911,-0.02178734913468361,-0.007944670505821705,0.7088509798049927,-0.7049770951271057,[0. 0. 0. 0. 0. 0. 0. 0. 0.],0.1220703125,-0.91552734375,-0.244140625,[0. 0. 0. 0. 0. 0. 0. 0. 0.],-0.04248046875,0.01953125,1.0029296875,[0. 0. 0. 0. 0. 0. 0. 0. 0.]
4.5829362869262695,-0.022702382877469063,-0.00748496875166893,0.7088454961776733,-0.7049586176872253,[0. 0. 0. 0. 0. 0. 0. 0. 0.],0.1220703125,-0.30517578125,-0.18310546875,[0. 0. 0. 0. 0. 0. 0. 0. 0.],-0.04296875,0.021484375,1.0029296875,[0. 0. 0. 0. 0. 0. 0. 0. 0.]
4.597622394561768,-0.023390332236886024,-0.007781531196087599,0.708842396736145,-0.704936146736145,[0. 0. 0. 0. 0. 0. 0. 0. 0.],-0.3662109375,-0.30517578125,0.0,[0. 0. 0. 0. 0. 0. 0. 0. 0.],-0.04443359375,0.021484375,1.00537109375,[0. 0. 0. 0. 0. 0. 0. 0. 0.]
4.622701406478882,-0.02289939858019352,-0.007497731130570173,0.7088772058486938,-0.7049202919006348,[0. 0. 0. 0. 0. 0. 0. 0. 0.],-0.3662109375,-0.6103515625,-0.244140625,[0. 0. 0. 0. 0. 0. 0. 0. 0.],-0.04345703125,0.021484375,1.0029296875,[0. 0. 0. 0. 0. 0. 0. 0. 0.]
4.642348527908325,-0.02236810326576233,-0.007724135648459196,0.7089203596115112,-0.7048915028572083,[0. 0. 0. 0. 0. 0. 0. 0. 0.],0.244140625,-1.03759765625,-0.30517578125,[0. 0. 0. 0. 0. 0. 0. 0. 0.],-0.04248046875,0.02099609375,1.00439453125,[0. 0. 0. 0. 0. 0. 0. 0. 0.]
4.662603855133057,-0.022131798788905144,-0.006963240914046764,0.7089350819587708,-0.7048921585083008,[0. 0. 0. 0. 0. 0. 0. 0. 0.],-0.06103515625,-0.8544921875,-0.244140625,[0. 0. 0. 0. 0. 0. 0. 0. 0.],-0.041015625,0.02099609375,1.00390625,[0. 0. 0. 0. 0. 0. 0. 0. 0.]
4.682605266571045,-0.02204781211912632,-0.006983877159655094,0.7089523673057556,-0.7048771381378174,[0. 0. 0. 0. 0. 0. 0. 0. 0.],-0.3662109375,-0.54931640625,-0.06103515625,[0. 0. 0. 0. 0. 0. 0. 0. 0.],-0.04150390625,0.021484375,1.00390625,[0. 0. 0. 0. 0. 0. 0. 0. 0.]
4.702600717544556,-0.02271699719130993,-0.00817086175084114,0.7089800238609314,-0.7048152089118958,[0. 0. 0. 0. 0. 0. 0. 0. 0.],-0.1220703125,-0.244140625,-0.06103515625,[0. 0. 0. 0. 0. 0. 0. 0. 0.],-0.04345703125,0.02099609375,1.0029296875,[0. 0. 0. 0. 0. 0. 0. 0. 0.]
4.72283935546875,-0.022794831544160843,-0.008252110332250595,0.7090041041374207,-0.70478755235672,[0. 0. 0. 0. 0. 0. 0. 0. 0.],0.30517578125,-0.3662109375,-0.1220703125,[0. 0. 0. 0. 0. 0. 0. 0. 0.],-0.0439453125,0.0205078125,1.00341796875,[0. 0. 0. 0. 0. 0. 0. 0. 0.]
4.742692947387695,-0.022506792098283768,-0.008106419816613197,0.7090175151824951,-0.7047849893569946,[0. 0. 0. 0. 0. 0. 0. 0. 0.],-0.1220703125,-1.03759765625,-0.244140625,[0. 0. 0. 0. 0. 0. 0. 0. 0.],-0.04345703125,0.0205078125,1.00244140625,[0. 0. 0. 0. 0. 0. 0. 0. 0.]
4.76237154006958,-0.023231351748108864,-0.007872967049479485,0.7090064287185669,-0.704775333404541,[0. 0. 0. 0. 0. 0. 0. 0. 0.],-0.3662109375,-1.0986328125,-0.244140625,[0. 0. 0. 0. 0. 0. 0. 0. 0.],-0.04443359375,0.02197265625,1.00439453125,[0. 0. 0. 0. 0. 0. 0. 0. 0.]
4.782360792160034,-0.023879291489720345,-0.007352593820542097,0.7090098857879639,-0.7047557830810547,[0. 0. 0. 0. 0. 0. 0. 0. 0.],-0.244140625,-0.244140625,-0.06103515625,[0. 0. 0. 0. 0. 0. 0. 0. 0.],-0.04443359375,0.02294921875,1.00439453125,[0. 0. 0. 0. 0. 0. 0. 0. 0.]
4.802644729614258,-0.02387074939906597,-0.007368221879005432,0.7090334296226501,-0.704732358455658,[0. 0. 0. 0. 0. 0. 0. 0. 0.],0.06103515625,-0.06103515625,0.06103515625,[0. 0. 0. 0. 0. 0. 0. 0. 0.],-0.04443359375,0.02294921875,1.00341796875,[0. 0. 0. 0. 0. 0. 0. 0. 0.]
4.822966814041138,-0.022998539730906487,-0.007648875471204519,0.7090745568275452,-0.7047169208526611,[0. 0. 0. 0. 0. 0. 0. 0. 0.],-0.18310546875,-0.9765625,0.0,[0. 0. 0. 0. 0. 0. 0. 0. 0.],-0.0439453125,0.021484375,1.00537109375,[0. 0. 0. 0. 0. 0. 0. 0. 0.]
4.842850923538208,-0.02307632938027382,-0.006780283525586128,0.7090829014778137,-0.7047148942947388,[0. 0. 0. 0. 0. 0. 0. 0. 0.],-0.18310546875,-1.220703125,-0.30517578125,[0. 0. 0. 0. 0. 0. 0. 0. 0.],-0.04296875,0.02294921875,1.0048828125,[0. 0. 0. 0. 0. 0. 0. 0. 0.]
4.862666606903076,-0.0231008343398571,-0.007153952494263649,0.7091014385223389,-0.7046917676925659,[0. 0. 0. 0. 0. 0. 0. 0. 0.],-0.06103515625,-0.6103515625,-0.244140625,[0. 0. 0. 0. 0. 0. 0. 0. 0.],-0.04296875,0.0224609375,1.0029296875,[0. 0. 0. 0. 0. 0. 0. 0. 0.]
4.882441759109497,-0.02234428934752941,-0.007663572207093239,0.7091359496116638,-0.70467609167099,[0. 0. 0. 0. 0. 0. 0. 0. 0.],-0.18310546875,0.0,0.0,[0. 0. 0. 0. 0. 0. 0. 0. 0.],-0.04248046875,0.02001953125,1.00341796875,[0. 0. 0. 0. 0. 0. 0. 0. 0.]
4.904332160949707,-0.02220001257956028,-0.007598591968417168,0.7091525793075562,-0.7046645879745483,[0. 0. 0. 0. 0. 0. 0. 0. 0.],-0.3662109375,-0.54931640625,0.06103515625,[0. 0. 0. 0. 0. 0. 0. 0. 0.],-0.04248046875,0.02099609375,1.00537109375,[0. 0. 0. 0. 0. 0. 0. 0. 0.]
4.922210931777954,-0.02211807854473591,-0.006917885970324278,0.7091704607009888,-0.7046561241149902,[0. 0. 0. 0. 0. 0. 0. 0. 0.],0.0,-0.8544921875,-0.1220703125,[0. 0. 0. 0. 0. 0. 0. 0. 0.],-0.04150390625,0.021484375,1.0048828125,[0. 0. 0. 0. 0. 0. 0. 0. 0.]
4.9429638385772705,-0.02288200706243515,-0.008006774820387363,0.709182620048523,-0.7046079039573669,[0. 0. 0. 0. 0. 0. 0. 0. 0.],0.06103515625,-0.8544921875,-0.244140625,[0. 0. 0. 0. 0. 0. 0. 0. 0.],-0.0439453125,0.021484375,1.00244140625,[0. 0. 0. 0. 0. 0. 0. 0. 0.]
4.9623401165008545,-0.022575369104743004,-0.006871256977319717,0.7091930508613586,-0.7046194076538086,[0. 0. 0. 0. 0. 0. 0. 0. 0.],-0.244140625,-0.732421875,-0.30517578125,[0. 0. 0. 0. 0. 0. 0. 0. 0.],-0.0419921875,0.02197265625,1.001953125,[0. 0. 0. 0. 0. 0. 0. 0. 0.]
4.982373237609863,-0.02261698991060257,-0.007800186052918434,0.7092340588569641,-0.7045671939849854,[0. 0. 0. 0. 0. 0. 0. 0. 0.],-0.1220703125,-0.67138671875,-0.244140625,[0. 0. 0. 0. 0. 0. 0. 0. 0.],-0.04345703125,0.02099609375,1.0029296875,[0. 0. 0. 0. 0. 0. 0. 0. 0.]
5.002689599990845,-0.02213709056377411,-0.007098150905221701,0.7092571258544922,-0.704566478729248,[0. 0. 0. 0. 0. 0. 0. 0. 0.],0.0,0.06103515625,-0.06103515625,[0. 0. 0. 0. 0. 0. 0. 0. 0.],-0.04150390625,0.021484375,1.00537109375,[0. 0. 0. 0. 0. 0. 0. 0. 0.]
5.017676115036011,-0.022771526128053665,-0.008399398066103458,0.7092787027359009,-0.7045101523399353,[0. 0. 0. 0. 0. 0. 0. 0. 0.],0.06103515625,-0.42724609375,-0.06103515625,[0. 0. 0. 0. 0. 0. 0. 0. 0.],-0.04541015625,0.01953125,1.00341796875,[0. 0. 0. 0. 0. 0. 0. 0. 0.]
5.042382001876831,-0.022367941215634346,-0.008117149583995342,0.7093062400817871,-0.7044987082481384,[0. 0. 0. 0. 0. 0. 0. 0. 0.],-0.244140625,-1.28173828125,-0.1220703125,[0. 0. 0. 0. 0. 0. 0. 0. 0.],-0.04345703125,0.02001953125,1.0029296875,[0. 0. 0. 0. 0. 0. 0. 0. 0.]
5.061315059661865,-0.021839583292603493,-0.007623564451932907,0.7093333005905151,-0.7044935822486877,[0. 0. 0. 0. 0. 0. 0. 0. 0.],0.0,-0.9765625,-0.18310546875,[0. 0. 0. 0. 0. 0. 0. 0. 0.],-0.0419921875,0.02001953125,1.00341796875,[0. 0. 0. 0. 0. 0. 0. 0. 0.]
5.082454204559326,-0.023308265954256058,-0.007745230570435524,0.7093151211738586,-0.704463541507721,[0. 0. 0. 0. 0. 0. 0. 0. 0.],0.1220703125,-0.18310546875,-0.06103515625,[0. 0. 0. 0. 0. 0. 0. 0. 0.],-0.0439453125,0.021484375,1.00439453125,[0. 0. 0. 0. 0. 0. 0. 0. 0.]
5.1025331020355225,-0.022293509915471077,-0.007557252887636423,0.7093597650527954,-0.7044534683227539,[0. 0. 0. 0. 0. 0. 0. 0. 0.],-0.30517578125,-0.244140625,-0.1220703125,[0. 0. 0. 0. 0. 0. 0. 0. 0.],-0.04248046875,0.0205078125,1.0029296875,[0. 0. 0. 0. 0. 0. 0. 0. 0.]
5.1179351806640625,-0.021856257691979408,-0.007536767981946468,0.7093912959098816,-0.7044355869293213,[0. 0. 0. 0. 0. 0. 0. 0. 0.],-0.30517578125,-0.79345703125,-0.1220703125,[0. 0. 0. 0. 0. 0. 0. 0. 0.],-0.04150390625,0.02001953125,1.00341796875,[0. 0. 0. 0. 0. 0. 0. 0. 0.]
5.143154144287109,-0.022318866103887558,-0.007504560984671116,0.7094051241874695,-0.7044075131416321,[0. 0. 0. 0. 0. 0. 0. 0. 0.],0.30517578125,-0.9765625,-0.244140625,[0. 0. 0. 0. 0. 0. 0. 0. 0.],-0.04296875,0.02099609375,1.0029296875,[0. 0. 0. 0. 0. 0. 0. 0. 0.]
5.162393093109131,-0.023541942238807678,-0.006682765670120716,0.7093801498413086,-0.7044012546539307,[0. 0. 0. 0. 0. 0. 0. 0. 0.],0.06103515625,-0.732421875,-0.1220703125,[0. 0. 0. 0. 0. 0. 0. 0. 0.],-0.04345703125,0.0234375,1.00341796875,[0. 0. 0. 0. 0. 0. 0. 0. 0.]
5.182989835739136,-0.023312276229262352,-0.007112165447324514,0.7094101309776306,-0.7043743133544922,[0. 0. 0. 0. 0. 0. 0. 0. 0.],-0.3662109375,-0.42724609375,-0.06103515625,[0. 0. 0. 0. 0. 0. 0. 0. 0.],-0.04345703125,0.02294921875,1.001953125,[0. 0. 0. 0. 0. 0. 0. 0. 0.]
5.2032999992370605,-0.02349381521344185,-0.007949852384626865,0.7094324827194214,-0.7043368816375732,[0. 0. 0. 0. 0. 0. 0. 0. 0.],-0.06103515625,0.18310546875,0.0,[0. 0. 0. 0. 0. 0. 0. 0. 0.],-0.044921875,0.02197265625,1.005859375,[0. 0. 0. 0. 0. 0. 0. 0. 0.]
5.222325563430786,-0.022445568814873695,-0.007673129439353943,0.7095031142234802,-0.7043030261993408,[0. 0. 0. 0. 0. 0. 0. 0. 0.],0.18310546875,0.8544921875,-1.0986328125,[0. 0. 0. 0. 0. 0. 0. 0. 0.],-0.0380859375,0.0205078125,1.00537109375,[0. 0. 0. 0. 0. 0. 0. 0. 0.]
5.242424249649048,-0.021918203681707382,-0.006252305116504431,0.7098367214202881,-0.7039974927902222,[0. 0. 0. 0. 0. 0. 0. 0. 0.],-0.1220703125,1.220703125,-4.21142578125,[0. 0. 0. 0. 0. 0. 0. 0. 0.],-0.03759765625,0.02490234375,1.00439453125,[0. 0. 0. 0. 0. 0. 0. 0. 0.]
5.262346029281616,-0.023563992232084274,-0.007302697282284498,0.710331916809082,-0.7034344673156738,[0. 0. 0. 0. 0. 0. 0. 0. 0.],-0.42724609375,0.244140625,-4.08935546875,[0. 0. 0. 0. 0. 0. 0. 0. 0.],-0.07275390625,0.02392578125,1.00341796875,[0. 0. 0. 0. 0. 0. 0. 0. 0.]
5.282679796218872,-0.0240345299243927,-0.008542876690626144,0.7109684944152832,-0.7027611136436462,[0. 0. 0. 0. 0. 0. 0. 0. 0.],0.48828125,0.54931640625,-4.45556640625,[0. 0. 0. 0. 0. 0. 0. 0. 0.],-0.0361328125,0.02197265625,1.0078125,[0. 0. 0. 0. 0. 0. 0. 0. 0.]
5.3104329109191895,-0.023287951946258545,-0.007530993781983852,0.7114053964614868,-0.7023556232452393,[0. 0. 0. 0. 0. 0. 0. 0. 0.],0.79345703125,1.52587890625,-4.5166015625,[0. 0. 0. 0. 0. 0. 0. 0. 0.],-0.02294921875,0.0244140625,1.00439453125,[0. 0. 0. 0. 0. 0. 0. 0. 0.]
5.318018913269043,-0.023504391312599182,-0.006830376572906971,0.7119353413581848,-0.7018184065818787,[0. 0. 0. 0. 0. 0. 0. 0. 0.],0.06103515625,0.244140625,-4.33349609375,[0. 0. 0. 0. 0. 0. 0. 0. 0.],-0.0498046875,0.02294921875,0.99853515625,[0. 0. 0. 0. 0. 0. 0. 0. 0.]
5.342429161071777,-0.02480544149875641,-0.008166911080479622,0.7124215364456177,-0.7012656927108765,[0. 0. 0. 0. 0. 0. 0. 0. 0.],0.3662109375,-0.732421875,-3.90625,[0. 0. 0. 0. 0. 0. 0. 0. 0.],-0.05908203125,0.0224609375,0.99951171875,[0. 0. 0. 0. 0. 0. 0. 0. 0.]
5.3622660636901855,-0.02558945119380951,-0.007970848120748997,0.7128469944000244,-0.7008072733879089,[0. 0. 0. 0. 0. 0. 0. 0. 0.],0.79345703125,-0.732421875,-3.2958984375,[0. 0. 0. 0. 0. 0. 0. 0. 0.],-0.044921875,0.02490234375,1.001953125,[0. 0. 0. 0. 0. 0. 0. 0. 0.]
5.38322114944458,-0.02395748905837536,-0.006937886588275433,0.7131586074829102,-0.7005589604377747,[0. 0. 0. 0. 0. 0. 0. 0. 0.],0.0,-0.48828125,-1.52587890625,[0. 0. 0. 0. 0. 0. 0. 0. 0.],-0.0361328125,0.0166015625,1.00927734375,[0. 0. 0. 0. 0. 0. 0. 0. 0.]
5.402516603469849,-0.021449942141771317,-0.009215319529175758,0.7133556604385376,-0.7004134058952332,[0. 0. 0. 0. 0. 0. 0. 0. 0.],-11.90185546875,4.7607421875,-1.8310546875,[0. 0. 0. 0. 0. 0. 0. 0. 0.],-0.0146484375,-0.251953125,0.93359375,[0. 0. 0. 0. 0. 0. 0. 0. 0.]
5.418928384780884,-0.019770056009292603,-0.010868246667087078,0.7140695452690125,-0.699711263179779,[0. 0. 0. 0. 0. 0. 0. 0. 0.],4.08935546875,2.38037109375,-3.72314453125,[0. 0. 0. 0. 0. 0. 0. 0. 0.],-0.0556640625,-0.28564453125,1.10400390625,[0. 0. 0. 0. 0. 0. 0. 0. 0.]
5.442381858825684,-0.01880527287721634,-0.01209875289350748,0.7152051329612732,-0.6985569000244141,[0. 0. 0. 0. 0. 0. 0. 0. 0.],1.40380859375,-4.2724609375,-13.61083984375,[0. 0. 0. 0. 0. 0. 0. 0. 0.],-0.0771484375,-0.2763671875,1.0185546875,[0. 0. 0. 0. 0. 0. 0. 0. 0.]
5.457974195480347,-0.018040791153907776,-0.013748027384281158,0.7166285514831543,-0.6970861554145813,[0. 0. 0. 0. 0. 0. 0. 0. 0.],-1.40380859375,-0.244140625,-13.916015625,[0. 0. 0. 0. 0. 0. 0. 0. 0.],-0.0986328125,-0.22802734375,0.9453125,[0. 0. 0. 0. 0. 0. 0. 0. 0.]
5.483161211013794,-0.016780536621809006,-0.01564234495162964,0.7183103561401367,-0.6953444480895996,[0. 0. 0. 0. 0. 0. 0. 0. 0.],-1.52587890625,3.84521484375,-12.6953125,[0. 0. 0. 0. 0. 0. 0. 0. 0.],-0.11376953125,-0.27490234375,0.99365234375,[0. 0. 0. 0. 0. 0. 0. 0. 0.]
5.497931003570557,-0.01516883634030819,-0.016907094046473503,0.7202519774436951,-0.6933405995368958,[0. 0. 0. 0. 0. 0. 0. 0. 0.],-2.13623046875,-0.244140625,-14.6484375,[0. 0. 0. 0. 0. 0. 0. 0. 0.],-0.07470703125,-0.27001953125,1.001953125,[0. 0. 0. 0. 0. 0. 0. 0. 0.]
5.526388883590698,-0.012932135723531246,-0.017819492146372795,0.7224848866462708,-0.6910361051559448,[0. 0. 0. 0. 0. 0. 0. 0. 0.],-2.38037109375,-4.57763671875,-17.578125,[0. 0. 0. 0. 0. 0. 0. 0. 0.],-0.02783203125,-0.24267578125,0.95654296875,[0. 0. 0. 0. 0. 0. 0. 0. 0.]
5.542184829711914,-0.010136378929018974,-0.019613569602370262,0.7247172594070435,-0.6886926293373108,[0. 0. 0. 0. 0. 0. 0. 0. 0.],-9.09423828125,-0.8544921875,-16.845703125,[0. 0. 0. 0. 0. 0. 0. 0. 0.],-0.01416015625,-0.2666015625,0.9189453125,[0. 0. 0. 0. 0. 0. 0. 0. 0.]
5.5625574588775635,-0.007872632704675198,-0.022254984825849533,0.7265840172767639,-0.6866720914840698,[0. 0. 0. 0. 0. 0. 0. 0. 0.],-7.32421875,1.0986328125,-14.95361328125,[0. 0. 0. 0. 0. 0. 0. 0. 0.],-0.01611328125,-0.33447265625,1.01416015625,[0. 0. 0. 0. 0. 0. 0. 0. 0.]
5.583392858505249,-0.006035388447344303,-0.02414310909807682,0.7279349565505981,-0.6851944327354431,[0. 0. 0. 0. 0. 0. 0. 0. 0.],-4.45556640625,-2.99072265625,-10.55908203125,[0. 0. 0. 0. 0. 0. 0. 0. 0.],-0.01416015625,-0.3291015625,1.021484375,[0. 0. 0. 0. 0. 0. 0. 0. 0.]
5.604207992553711,-0.0041426606476306915,-0.024773461744189262,0.7287139296531677,-0.6843575835227966,[0. 0. 0. 0. 0. 0. 0. 0. 0.],-0.67138671875,-5.43212890625,-4.82177734375,[0. 0. 0. 0. 0. 0. 0. 0. 0.],-0.02294921875,-0.27734375,1.05029296875,[0. 0. 0. 0. 0. 0. 0. 0. 0.]
5.62242317199707,-0.003393537364900112,-0.0252920463681221,0.7289643287658691,-0.6840758919715881,[0. 0. 0. 0. 0. 0. 0. 0. 0.],3.72314453125,0.0,-2.62451171875,[0. 0. 0. 0. 0. 0. 0. 0. 0.],-0.00390625,-0.2255859375,1.06494140625,[0. 0. 0. 0. 0. 0. 0. 0. 0.]
5.639582395553589,-0.002578908810392022,-0.0257306769490242,0.729150116443634,-0.6838651299476624,[0. 0. 0. 0. 0. 0. 0. 0. 0.],3.41796875,-1.5869140625,-0.48828125,[0. 0. 0. 0. 0. 0. 0. 0. 0.],-0.03759765625,-0.1787109375,0.97216796875,[0. 0. 0. 0. 0. 0. 0. 0. 0.]
5.662648677825928,-0.0012974112760275602,-0.026821454986929893,0.7291415929794312,-0.6838358044624329,[0. 0. 0. 0. 0. 0. 0. 0. 0.],-3.47900390625,-2.38037109375,-0.244140625,[0. 0. 0. 0. 0. 0. 0. 0. 0.],-0.07568359375,-0.16455078125,0.9296875,[0. 0. 0. 0. 0. 0. 0. 0. 0.]
5.685964345932007,0.0004069718124810606,-0.0285072959959507,0.7295638918876648,-0.6833181977272034,[0. 0. 0. 0. 0. 0. 0. 0. 0.],0.06103515625,4.0283203125,-4.7607421875,[0. 0. 0. 0. 0. 0. 0. 0. 0.],0.00537109375,-0.1630859375,1.02783203125,[0. 0. 0. 0. 0. 0. 0. 0. 0.]
5.702863693237305,0.0008133248775266111,-0.029208354651927948,0.7300447821617126,-0.6827743053436279,[0. 0. 0. 0. 0. 0. 0. 0. 0.],5.126953125,5.18798828125,-4.7607421875,[0. 0. 0. 0. 0. 0. 0. 0. 0.],-0.0166015625,-0.162109375,1.0390625,[0. 0. 0. 0. 0. 0. 0. 0. 0.]
5.7237794399261475,0.0008876420906744897,-0.030178798362612724,0.7306670546531677,-0.6820662021636963,[0. 0. 0. 0. 0. 0. 0. 0. 0.],6.103515625,-0.67138671875,-4.8828125,[0. 0. 0. 0. 0. 0. 0. 0. 0.],-0.0654296875,-0.12939453125,0.96240234375,[0. 0. 0. 0. 0. 0. 0. 0. 0.]
5.74254846572876,0.0012929985532537103,-0.03149206563830376,0.7312032580375671,-0.6814310550689697,[0. 0. 0. 0. 0. 0. 0. 0. 0.],-1.40380859375,-2.50244140625,-5.79833984375,[0. 0. 0. 0. 0. 0. 0. 0. 0.],-0.06689453125,-0.0771484375,0.96337890625,[0. 0. 0. 0. 0. 0. 0. 0. 0.]
5.758184194564819,0.0027918911073356867,-0.0331757627427578,0.731885552406311,-0.6806138753890991,[0. 0. 0. 0. 0. 0. 0. 0. 0.],-3.11279296875,-2.9296875,-5.92041015625,[0. 0. 0. 0. 0. 0. 0. 0. 0.],-0.05810546875,-0.07958984375,1.0537109375,[0. 0. 0. 0. 0. 0. 0. 0. 0.]
5.782538652420044,0.0035321887116879225,-0.03449547290802002,0.7324575185775757,-0.6799290776252747,[0. 0. 0. 0. 0. 0. 0. 0. 0.],-3.47900390625,-2.38037109375,-4.94384765625,[0. 0. 0. 0. 0. 0. 0. 0. 0.],-0.07958984375,-0.09130859375,0.99169921875,[0. 0. 0. 0. 0. 0. 0. 0. 0.]
5.802186489105225,0.004534625913947821,-0.03575543686747551,0.7331586480140686,-0.6791019439697266,[0. 0. 0. 0. 0. 0. 0. 0. 0.],-0.6103515625,8.97216796875,-6.34765625,[0. 0. 0. 0. 0. 0. 0. 0. 0.],0.03515625,-0.146484375,0.97265625,[0. 0. 0. 0. 0. 0. 0. 0. 0.]
5.8224029541015625,0.004855803679674864,-0.037526685744524,0.7337202429771423,-0.6783973574638367,[0. 0. 0. 0. 0. 0. 0. 0. 0.],2.50244140625,-0.54931640625,-5.06591796875,[0. 0. 0. 0. 0. 0. 0. 0. 0.],-0.0830078125,-0.22998046875,1.01806640625,[0. 0. 0. 0. 0. 0. 0. 0. 0.]
5.842851877212524,0.004877671133726835,-0.037938449531793594,0.7339606285095215,-0.6781140565872192,[0. 0. 0. 0. 0. 0. 0. 0. 0.],4.57763671875,-6.77490234375,-2.3193359375,[0. 0. 0. 0. 0. 0. 0. 0. 0.],-0.13818359375,-0.109375,1.03173828125,[0. 0. 0. 0. 0. 0. 0. 0. 0.]
5.862301588058472,0.005284062121063471,-0.03978225216269493,0.7341057062149048,-0.677848219871521,[0. 0. 0. 0. 0. 0. 0. 0. 0.],-10.19287109375,0.18310546875,-1.77001953125,[0. 0. 0. 0. 0. 0. 0. 0. 0.],-0.06689453125,-0.07763671875,0.8525390625,[0. 0. 0. 0. 0. 0. 0. 0. 0.]
5.884789705276489,0.006178013980388641,-0.0417851097881794,0.7343053817749023,-0.6775038838386536,[0. 0. 0. 0. 0. 0. 0. 0. 0.],3.60107421875,-2.74658203125,-4.39453125,[0. 0. 0. 0. 0. 0. 0. 0. 0.],-0.07421875,-0.1396484375,1.07568359375,[0. 0. 0. 0. 0. 0. 0. 0. 0.]
5.8974950313568115,0.0051564620807766914,-0.0417146272957325,0.7356305718421936,-0.676077663898468,[0. 0. 0. 0. 0. 0. 0. 0. 0.],16.845703125,10.43701171875,-14.09912109375,[0. 0. 0. 0. 0. 0. 0. 0. 0.],-0.0361328125,-0.11181640625,1.09716796875,[0. 0. 0. 0. 0. 0. 0. 0. 0.]
5.926771879196167,0.002122840378433466,-0.04305084049701691,0.7390845417976379,-0.6722322702407837,[0. 0. 0. 0. 0. 0. 0. 0. 0.],-4.94384765625,9.6435546875,-28.076171875,[0. 0. 0. 0. 0. 0. 0. 0. 0.],-0.13916015625,0.017578125,0.86279296875,[0. 0. 0. 0. 0. 0. 0. 0. 0.]
5.953218460083008,-0.0006983156781643629,-0.045161906629800797,0.7440020442008972,-0.6666489839553833,[0. 0. 0. 0. 0. 0. 0. 0. 0.],0.8544921875,5.7373046875,-38.87939453125,[0. 0. 0. 0. 0. 0. 0. 0. 0.],-0.16357421875,-0.0263671875,1.12109375,[0. 0. 0. 0. 0. 0. 0. 0. 0.]
5.958681583404541,-0.0022450333926826715,-0.04563528671860695,0.7464741468429565,-0.6638439297676086,[0. 0. 0. 0. 0. 0. 0. 0. 0.],5.4931640625,10.43701171875,-44.3115234375,[0. 0. 0. 0. 0. 0. 0. 0. 0.],-0.1689453125,-0.02685546875,1.1552734375,[0. 0. 0. 0. 0. 0. 0. 0. 0.]
5.977738380432129,-0.005693141371011734,-0.04568896070122719,0.7522953748703003,-0.6572151780128479,[0. 0. 0. 0. 0. 0. 0. 0. 0.],11.474609375,7.87353515625,-52.67333984375,[0. 0. 0. 0. 0. 0. 0. 0. 0.],-0.2021484375,0.0126953125,1.072265625,[0. 0. 0. 0. 0. 0. 0. 0. 0.]
5.998602628707886,-0.008084062486886978,-0.04543263465166092,0.7588149309158325,-0.6496695876121521,[0. 0. 0. 0. 0. 0. 0. 0. 0.],6.04248046875,2.01416015625,-60.11962890625,[0. 0. 0. 0. 0. 0. 0. 0. 0.],-0.21923828125,0.01416015625,0.93701171875,[0. 0. 0. 0. 0. 0. 0. 0. 0.]
6.024064302444458,-0.011202442459762096,-0.04770932346582413,0.7674823999404907,-0.639194130897522,[0. 0. 0. 0. 0. 0. 0. 0. 0.],9.033203125,11.5966796875,-63.41552734375,[0. 0. 0. 0. 0. 0. 0. 0. 0.],-0.18310546875,-0.126953125,1.00537109375,[0. 0. 0. 0. 0. 0. 0. 0. 0.]
6.056197643280029,-0.01340570580214262,-0.04741692915558815,0.7781809568405151,-0.6261041760444641,[0. 0. 0. 0. 0. 0. 0. 0. 0.],4.2724609375,-4.5166015625,-66.58935546875,[0. 0. 0. 0. 0. 0. 0. 0. 0.],-0.20556640625,0.01025390625,0.99609375,[0. 0. 0. 0. 0. 0. 0. 0. 0.]
6.061914443969727,-0.013598931021988392,-0.04724821075797081,0.7800068259239197,-0.6238366365432739,[0. 0. 0. 0. 0. 0. 0. 0. 0.],3.35693359375,-5.2490234375,-67.2607421875,[0. 0. 0. 0. 0. 0. 0. 0. 0.],-0.1904296875,0.0107421875,1.0048828125,[0. 0. 0. 0. 0. 0. 0. 0. 0.]
6.082403182983398,-0.014246494509279728,-0.04789145290851593,0.7870272994041443,-0.614891529083252,[0. 0. 0. 0. 0. 0. 0. 0. 0.],-0.67138671875,-1.3427734375,-63.720703125,[0. 0. 0. 0. 0. 0. 0. 0. 0.],-0.1767578125,-0.0439453125,0.93017578125,[0. 0. 0. 0. 0. 0. 0. 0. 0.]
6.1037256717681885,-0.014943107962608337,-0.049353692680597305,0.7934352159500122,-0.6064664125442505,[0. 0. 0. 0. 0. 0. 0. 0. 0.],4.2724609375,2.9296875,-59.26513671875,[0. 0. 0. 0. 0. 0. 0. 0. 0.],-0.1123046875,-0.08544921875,0.990234375,[0. 0. 0. 0. 0. 0. 0. 0. 0.]
6.123039722442627,-0.015901092439889908,-0.05008595809340477,0.7991542816162109,-0.5988247394561768,[0. 0. 0. 0. 0. 0. 0. 0. 0.],4.150390625,-3.23486328125,-51.94091796875,[0. 0. 0. 0. 0. 0. 0. 0. 0.],-0.125,-0.05908203125,1.09912109375,[0. 0. 0. 0. 0. 0. 0. 0. 0.]
6.142295837402344,-0.016000153496861458,-0.050172291696071625,0.8038704991340637,-0.5924685597419739,[0. 0. 0. 0. 0. 0. 0. 0. 0.],-0.8544921875,-9.94873046875,-40.34423828125,[0. 0. 0. 0. 0. 0. 0. 0. 0.],-0.13427734375,-0.0595703125,0.912109375,[0. 0. 0. 0. 0. 0. 0. 0. 0.]
6.162644147872925,-0.014789204113185406,-0.050610486418008804,0.8072231411933899,-0.5878867506980896,[0. 0. 0. 0. 0. 0. 0. 0. 0.],-2.5634765625,-3.2958984375,-28.9306640625,[0. 0. 0. 0. 0. 0. 0. 0. 0.],-0.06005859375,-0.06103515625,0.8623046875,[0. 0. 0. 0. 0. 0. 0. 0. 0.]
6.1827147006988525,-0.012815559282898903,-0.050158869475126266,0.8092713356018066,-0.585149347782135,[0. 0. 0. 0. 0. 0. 0. 0. 0.],-8.30078125,-7.2021484375,-15.68603515625,[0. 0. 0. 0. 0. 0. 0. 0. 0.],-0.052734375,-0.0390625,0.943359375,[0. 0. 0. 0. 0. 0. 0. 0. 0.]
6.1979851722717285,-0.010699465870857239,-0.048833929002285004,0.8105195760726929,-0.5835741758346558,[0. 0. 0. 0. 0. 0. 0. 0. 0.],0.9765625,-4.69970703125,-9.46044921875,[0. 0. 0. 0. 0. 0. 0. 0. 0.],0.0,-0.06494140625,1.04638671875,[0. 0. 0. 0. 0. 0. 0. 0. 0.]
6.222803831100464,-0.009816388599574566,-0.046834882348775864,0.8113172650337219,-0.5826442837715149,[0. 0. 0. 0. 0. 0. 0. 0. 0.],0.3662109375,1.8310546875,-6.103515625,[0. 0. 0. 0. 0. 0. 0. 0. 0.],-0.00146484375,-0.01171875,1.1044921875,[0. 0. 0. 0. 0. 0. 0. 0. 0.]
6.243189334869385,-0.010172206908464432,-0.04544086009263992,0.8117676973342896,-0.582120954990387,[0. 0. 0. 0. 0. 0. 0. 0. 0.],-2.0751953125,-1.46484375,-3.23486328125,[0. 0. 0. 0. 0. 0. 0. 0. 0.],-0.0654296875,0.02099609375,1.07666015625,[0. 0. 0. 0. 0. 0. 0. 0. 0.]
6.263398885726929,-0.010722043924033642,-0.04438337683677673,0.8123409152030945,-0.5813925862312317,[0. 0. 0. 0. 0. 0. 0. 0. 0.],0.67138671875,3.90625,-6.591796875,[0. 0. 0. 0. 0. 0. 0. 0. 0.],-0.00830078125,0.0146484375,1.08447265625,[0. 0. 0. 0. 0. 0. 0. 0. 0.]
6.282842397689819,-0.010834263637661934,-0.04240617901086807,0.8132668137550354,-0.5802425742149353,[0. 0. 0. 0. 0. 0. 0. 0. 0.],4.21142578125,2.50244140625,-9.1552734375,[0. 0. 0. 0. 0. 0. 0. 0. 0.],-0.02197265625,-0.01123046875,0.9912109375,[0. 0. 0. 0. 0. 0. 0. 0. 0.]
6.3027729988098145,-0.011720574460923672,-0.03930643945932388,0.8143374919891357,-0.5789406299591064,[0. 0. 0. 0. 0. 0. 0. 0. 0.],9.33837890625,-7.9345703125,-9.58251953125,[0. 0. 0. 0. 0. 0. 0. 0. 0.],-0.06689453125,0.00146484375,0.94140625,[0. 0. 0. 0. 0. 0. 0. 0. 0.]
6.323577165603638,-0.01249680295586586,-0.037146784365177155,0.815375804901123,-0.5776039958000183,[0. 0. 0. 0. 0. 0. 0. 0. 0.],1.28173828125,-0.6103515625,-10.80322265625,[0. 0. 0. 0. 0. 0. 0. 0. 0.],-0.0361328125,0.04443359375,0.970703125,[0. 0. 0. 0. 0. 0. 0. 0. 0.]
6.342433452606201,-0.012935084290802479,-0.03596317768096924,0.8165895342826843,-0.5759522318840027,[0. 0. 0. 0. 0. 0. 0. 0. 0.],-0.8544921875,5.92041015625,-11.65771484375,[0. 0. 0. 0. 0. 0. 0. 0. 0.],-0.00439453125,0.02294921875,1.0234375,[0. 0. 0. 0. 0. 0. 0. 0. 0.]
6.362694978713989,-0.014005916193127632,-0.0346098318696022,0.817642092704773,-0.5745149254798889,[0. 0. 0. 0. 0. 0. 0. 0. 0.],1.953125,-6.40869140625,-10.19287109375,[0. 0. 0. 0. 0. 0. 0. 0. 0.],-0.1259765625,0.0107421875,0.94970703125,[0. 0. 0. 0. 0. 0. 0. 0. 0.]
6.382442474365234,-0.015513748861849308,-0.03367001190781593,0.8187726140022278,-0.5729197859764099,[0. 0. 0. 0. 0. 0. 0. 0. 0.],0.67138671875,11.04736328125,-12.39013671875,[0. 0. 0. 0. 0. 0. 0. 0. 0.],0.0078125,0.03955078125,1.09814453125,[0. 0. 0. 0. 0. 0. 0. 0. 0.]
6.402503967285156,-0.016262616962194443,-0.03271165490150452,0.8198131918907166,-0.5714646577835083,[0. 0. 0. 0. 0. 0. 0. 0. 0.],2.62451171875,-10.8642578125,-10.55908203125,[0. 0. 0. 0. 0. 0. 0. 0. 0.],-0.15380859375,0.00830078125,1.01123046875,[0. 0. 0. 0. 0. 0. 0. 0. 0.]
6.422467231750488,-0.01755785197019577,-0.032297585159540176,0.8206964135169983,-0.5701806545257568,[0. 0. 0. 0. 0. 0. 0. 0. 0.],0.732421875,3.23486328125,-8.23974609375,[0. 0. 0. 0. 0. 0. 0. 0. 0.],-0.07861328125,0.015625,0.84912109375,[0. 0. 0. 0. 0. 0. 0. 0. 0.]
6.442547559738159,-0.0182756669819355,-0.032521989196538925,0.8215237855911255,-0.5689526796340942,[0. 0. 0. 0. 0. 0. 0. 0. 0.],-10.43701171875,2.8076171875,-8.9111328125,[0. 0. 0. 0. 0. 0. 0. 0. 0.],-0.0634765625,0.052734375,0.896484375,[0. 0. 0. 0. 0. 0. 0. 0. 0.]
6.462505102157593,-0.01818498596549034,-0.0323595367372036,0.8223760724067688,-0.5677321553230286,[0. 0. 0. 0. 0. 0. 0. 0. 0.],-0.30517578125,-15.9912109375,-8.97216796875,[0. 0. 0. 0. 0. 0. 0. 0. 0.],-0.16064453125,-0.00830078125,1.08740234375,[0. 0. 0. 0. 0. 0. 0. 0. 0.]
6.482516050338745,-0.018804941326379776,-0.030566805973649025,0.8232728242874146,-0.5665102601051331,[0. 0. 0. 0. 0. 0. 0. 0. 0.],5.31005859375,-2.5634765625,-8.544921875,[0. 0. 0. 0. 0. 0. 0. 0. 0.],-0.0595703125,0.00732421875,1.16845703125,[0. 0. 0. 0. 0. 0. 0. 0. 0.]
6.499756574630737,-0.018950337544083595,-0.02842588536441326,0.8240197896957397,-0.5655302405357361,[0. 0. 0. 0. 0. 0. 0. 0. 0.],-2.01416015625,-5.126953125,-6.77490234375,[0. 0. 0. 0. 0. 0. 0. 0. 0.],-0.07666015625,0.06689453125,0.998046875,[0. 0. 0. 0. 0. 0. 0. 0. 0.]
6.5224082469940186,-0.0192464180290699,-0.027408648282289505,0.8246630430221558,-0.5646319389343262,[0. 0. 0. 0. 0. 0. 0. 0. 0.],-0.6103515625,-1.03759765625,-6.34765625,[0. 0. 0. 0. 0. 0. 0. 0. 0.],-0.03466796875,0.03271484375,1.025390625,[0. 0. 0. 0. 0. 0. 0. 0. 0.]
6.542210102081299,-0.019712457433342934,-0.02543616108596325,0.8252936601638794,-0.5637861490249634,[0. 0. 0. 0. 0. 0. 0. 0. 0.],4.21142578125,-0.54931640625,-5.79833984375,[0. 0. 0. 0. 0. 0. 0. 0. 0.],-0.06005859375,0.0,0.95703125,[0. 0. 0. 0. 0. 0. 0. 0. 0.]
6.562854528427124,-0.02106500044465065,-0.023012792691588402,0.8259304165840149,-0.5629081726074219,[0. 0. 0. 0. 0. 0. 0. 0. 0.],7.6904296875,-13.427734375,-7.01904296875,[0. 0. 0. 0. 0. 0. 0. 0. 0.],-0.09521484375,0.02001953125,0.95849609375,[0. 0. 0. 0. 0. 0. 0. 0. 0.]
6.582990646362305,-0.021362872794270515,-0.021150752902030945,0.826676607131958,-0.5618738532066345,[0. 0. 0. 0. 0. 0. 0. 0. 0.],-2.86865234375,0.67138671875,-8.48388671875,[0. 0. 0. 0. 0. 0. 0. 0. 0.],-0.00537109375,0.064453125,0.9892578125,[0. 0. 0. 0. 0. 0. 0. 0. 0.]
6.602407693862915,-0.021263545379042625,-0.020090211182832718,0.8274887204170227,-0.5607197880744934,[0. 0. 0. 0. 0. 0. 0. 0. 0.],-0.8544921875,1.89208984375,-7.38525390625,[0. 0. 0. 0. 0. 0. 0. 0. 0.],-0.0341796875,0.01953125,1.0302734375,[0. 0. 0. 0. 0. 0. 0. 0. 0.]
6.622994899749756,-0.02226327173411846,-0.019398020580410957,0.8279202580451965,-0.5600680708885193,[0. 0. 0. 0. 0. 0. 0. 0. 0.],7.26318359375,-11.90185546875,-3.96728515625,[0. 0. 0. 0. 0. 0. 0. 0. 0.],-0.1630859375,0.0048828125,1.02880859375,[0. 0. 0. 0. 0. 0. 0. 0. 0.]
6.64278244972229,-0.023633264005184174,-0.018129363656044006,0.8284463286399841,-0.5592759251594543,[0. 0. 0. 0. 0. 0. 0. 0. 0.],3.2958984375,9.70458984375,-6.103515625,[0. 0. 0. 0. 0. 0. 0. 0. 0.],0.021484375,0.05322265625,1.0859375,[0. 0. 0. 0. 0. 0. 0. 0. 0.]
6.662782907485962,-0.024140657857060432,-0.016757264733314514,0.8289406299591064,-0.5585640668869019,[0. 0. 0. 0. 0. 0. 0. 0. 0.],1.0986328125,-8.97216796875,-4.8828125,[0. 0. 0. 0. 0. 0. 0. 0. 0.],-0.1328125,0.037109375,0.98046875,[0. 0. 0. 0. 0. 0. 0. 0. 0.]
6.682457208633423,-0.025030391290783882,-0.01686895079910755,0.829226016998291,-0.558097779750824,[0. 0. 0. 0. 0. 0. 0. 0. 0.],-2.0751953125,-0.8544921875,-2.38037109375,[0. 0. 0. 0. 0. 0. 0. 0. 0.],-0.07568359375,0.02099609375,0.81494140625,[0. 0. 0. 0. 0. 0. 0. 0. 0.]
6.702366828918457,-0.024864306673407555,-0.01649455912411213,0.8296238780021667,-0.5575249791145325,[0. 0. 0. 0. 0. 0. 0. 0. 0.],-9.521484375,6.9580078125,-4.5166015625,[0. 0. 0. 0. 0. 0. 0. 0. 0.],-0.00390625,0.0498046875,0.908203125,[0. 0. 0. 0. 0. 0. 0. 0. 0.]
6.718015432357788,-0.024696463719010353,-0.01648714207112789,0.8298638463020325,-0.5571753978729248,[0. 0. 0. 0. 0. 0. 0. 0. 0.],1.46484375,-18.12744140625,-2.9296875,[0. 0. 0. 0. 0. 0. 0. 0. 0.],-0.1572265625,-0.00439453125,1.1015625,[0. 0. 0. 0. 0. 0. 0. 0. 0.]
6.738415718078613,-0.0246098842471838,-0.01550715696066618,0.8301725387573242,-0.5567471981048584,[0. 0. 0. 0. 0. 0. 0. 0. 0.],8.544921875,-1.8310546875,-2.3193359375,[0. 0. 0. 0. 0. 0. 0. 0. 0.],-0.0341796875,0.00830078125,1.1708984375,[0. 0. 0. 0. 0. 0. 0. 0. 0.]
6.76255989074707,-0.02423875778913498,-0.013007096946239471,0.8304173350334167,-0.5564623475074768,[0. 0. 0. 0. 0. 0. 0. 0. 0.],-0.54931640625,-3.72314453125,-1.77001953125,[0. 0. 0. 0. 0. 0. 0. 0. 0.],-0.03173828125,0.0751953125,0.99462890625,[0. 0. 0. 0. 0. 0. 0. 0. 0.]
6.782402038574219,-0.02428242936730385,-0.011993871070444584,0.8306156992912292,-0.5561870336532593,[0. 0. 0. 0. 0. 0. 0. 0. 0.],-1.46484375,2.197265625,-2.5634765625,[0. 0. 0. 0. 0. 0. 0. 0. 0.],0.0048828125,0.056640625,1.01708984375,[0. 0. 0. 0. 0. 0. 0. 0. 0.]
6.8023552894592285,-0.02360149845480919,-0.010802567936480045,0.8308616876602173,-0.5558733940124512,[0. 0. 0. 0. 0. 0. 0. 0. 0.],0.67138671875,2.99072265625,-1.64794921875,[0. 0. 0. 0. 0. 0. 0. 0. 0.],-0.04150390625,0.00927734375,0.97509765625,[0. 0. 0. 0. 0. 0. 0. 0. 0.]
6.82240891456604,-0.024137286469340324,-0.01076172012835741,0.8310981392860413,-0.5554975867271423,[0. 0. 0. 0. 0. 0. 0. 0. 0.],10.19287109375,-10.6201171875,-2.50244140625,[0. 0. 0. 0. 0. 0. 0. 0. 0.],-0.08837890625,0.0068359375,0.97900390625,[0. 0. 0. 0. 0. 0. 0. 0. 0.]
6.842786073684692,-0.024421371519565582,-0.009075741283595562,0.8315083384513855,-0.5549010634422302,[0. 0. 0. 0. 0. 0. 0. 0. 0.],-1.77001953125,1.28173828125,-5.9814453125,[0. 0. 0. 0. 0. 0. 0. 0. 0.],0.02685546875,0.0693359375,0.9775390625,[0. 0. 0. 0. 0. 0. 0. 0. 0.]
6.862575054168701,-0.02404307946562767,-0.008619890548288822,0.8319549560546875,-0.5542550683021545,[0. 0. 0. 0. 0. 0. 0. 0. 0.],-3.7841796875,3.7841796875,-3.84521484375,[0. 0. 0. 0. 0. 0. 0. 0. 0.],-0.02587890625,0.029296875,0.9951171875,[0. 0. 0. 0. 0. 0. 0. 0. 0.]
6.882867813110352,-0.025227587670087814,-0.009143088012933731,0.8321171402931213,-0.5539504289627075,[0. 0. 0. 0. 0. 0. 0. 0. 0.],6.89697265625,-3.7841796875,-1.953125,[0. 0. 0. 0. 0. 0. 0. 0. 0.],-0.1005859375,-0.00244140625,1.07421875,[0. 0. 0. 0. 0. 0. 0. 0. 0.]
6.897559642791748,-0.025687841698527336,-0.00848846510052681,0.8324454426765442,-0.5534462332725525,[0. 0. 0. 0. 0. 0. 0. 0. 0.],2.8076171875,8.85009765625,-2.99072265625,[0. 0. 0. 0. 0. 0. 0. 0. 0.],0.00390625,0.0595703125,1.06494140625,[0. 0. 0. 0. 0. 0. 0. 0. 0.]
6.922384023666382,-0.026460934430360794,-0.007876044139266014,0.8326903581619263,-0.5530502200126648,[0. 0. 0. 0. 0. 0. 0. 0. 0.],-4.21142578125,-5.0048828125,-3.11279296875,[0. 0. 0. 0. 0. 0. 0. 0. 0.],-0.1064453125,0.05078125,0.92822265625,[0. 0. 0. 0. 0. 0. 0. 0. 0.]
6.942878723144531,-0.027214383706450462,-0.009144717827439308,0.8328167796134949,-0.5528038740158081,[0. 0. 0. 0. 0. 0. 0. 0. 0.],-5.2490234375,0.732421875,-1.8310546875,[0. 0. 0. 0. 0. 0. 0. 0. 0.],-0.0615234375,0.0166015625,0.8232421875,[0. 0. 0. 0. 0. 0. 0. 0. 0.]
6.963588714599609,-0.0263302493840456,-0.009506970643997192,0.8330947160720825,-0.5524215698242188,[0. 0. 0. 0. 0. 0. 0. 0. 0.],-7.87353515625,9.3994140625,-2.8076171875,[0. 0. 0. 0. 0. 0. 0. 0. 0.],-0.00341796875,0.0302734375,0.958984375,[0. 0. 0. 0. 0. 0. 0. 0. 0.]
6.982677221298218,-0.026170391589403152,-0.009710161946713924,0.8331511616706848,-0.5523403882980347,[0. 0. 0. 0. 0. 0. 0. 0. 0.],-0.244140625,-15.625,-1.3427734375,[0. 0. 0. 0. 0. 0. 0. 0. 0.],-0.1533203125,0.0107421875,1.1103515625,[0. 0. 0. 0. 0. 0. 0. 0. 0.]
6.997787952423096,-0.02560891956090927,-0.009153367951512337,0.8333462476730347,-0.5520818829536438,[0. 0. 0. 0. 0. 0. 0. 0. 0.],6.04248046875,-1.46484375,-1.3427734375,[0. 0. 0. 0. 0. 0. 0. 0. 0.],-0.02685546875,0.017578125,1.17236328125,[0. 0. 0. 0. 0. 0. 0. 0. 0.]
7.02278470993042,-0.02516002394258976,-0.007471426390111446,0.8335141539573669,-0.5518743395805359,[0. 0. 0. 0. 0. 0. 0. 0. 0.],-1.8310546875,3.0517578125,-1.220703125,[0. 0. 0. 0. 0. 0. 0. 0. 0.],0.00244140625,0.07275390625,0.9990234375,[0. 0. 0. 0. 0. 0. 0. 0. 0.]
7.042638778686523,-0.02511519193649292,-0.007149647455662489,0.8336235284805298,-0.551715612411499,[0. 0. 0. 0. 0. 0. 0. 0. 0.],-4.33349609375,1.953125,-1.64794921875,[0. 0. 0. 0. 0. 0. 0. 0. 0.],-0.01123046875,0.0546875,0.99951171875,[0. 0. 0. 0. 0. 0. 0. 0. 0.]
7.0622594356536865,-0.02473810315132141,-0.0063401502557098866,0.833755373954773,-0.5515432953834534,[0. 0. 0. 0. 0. 0. 0. 0. 0.],-1.52587890625,4.2724609375,-1.3427734375,[0. 0. 0. 0. 0. 0. 0. 0. 0.],-0.03369140625,0.0126953125,0.966796875,[0. 0. 0. 0. 0. 0. 0. 0. 0.]
7.082436800003052,-0.02443191036581993,-0.006195561029016972,0.8339462876319885,-0.5512697100639343,[0. 0. 0. 0. 0. 0. 0. 0. 0.],10.80322265625,-6.40869140625,-1.77001953125,[0. 0. 0. 0. 0. 0. 0. 0. 0.],-0.06640625,-0.00341796875,1.0,[0. 0. 0. 0. 0. 0. 0. 0. 0.]
7.102768182754517,-0.025191720575094223,-0.0050064316019415855,0.8342230319976807,-0.5508288145065308,[0. 0. 0. 0. 0. 0. 0. 0. 0.],-1.8310546875,-1.40380859375,-3.96728515625,[0. 0. 0. 0. 0. 0. 0. 0. 0.],-0.0263671875,0.072265625,0.94384765625,[0. 0. 0. 0. 0. 0. 0. 0. 0.]
7.1226441860198975,-0.024433109909296036,-0.004292154219001532,0.8347313404083252,-0.5500984787940979,[0. 0. 0. 0. 0. 0. 0. 0. 0.],-5.79833984375,3.0517578125,-5.37109375,[0. 0. 0. 0. 0. 0. 0. 0. 0.],0.0029296875,0.05029296875,1.0205078125,[0. 0. 0. 0. 0. 0. 0. 0. 0.]
7.142514228820801,-0.02483856864273548,-0.005120210815221071,0.8349950909614563,-0.5496727824211121,[0. 0. 0. 0. 0. 0. 0. 0. 0.],5.37109375,-2.44140625,-2.01416015625,[0. 0. 0. 0. 0. 0. 0. 0. 0.],-0.09033203125,-0.00390625,1.0830078125,[0. 0. 0. 0. 0. 0. 0. 0. 0.]
7.163334369659424,-0.024667590856552124,-0.0044629378244280815,0.8354596495628357,-0.5489799380302429,[0. 0. 0. 0. 0. 0. 0. 0. 0.],1.8310546875,6.2255859375,-4.57763671875,[0. 0. 0. 0. 0. 0. 0. 0. 0.],0.0009765625,0.03369140625,1.07080078125,[0. 0. 0. 0. 0. 0. 0. 0. 0.]
7.182755708694458,-0.024971552193164825,-0.0031854589469730854,0.8359318375587463,-0.5482556819915771,[0. 0. 0. 0. 0. 0. 0. 0. 0.],-5.126953125,-4.638671875,-6.103515625,[0. 0. 0. 0. 0. 0. 0. 0. 0.],-0.07177734375,0.0712890625,0.91552734375,[0. 0. 0. 0. 0. 0. 0. 0. 0.]
7.202464818954468,-0.025280682370066643,-0.004036255180835724,0.8363626599311829,-0.5475783944129944,[0. 0. 0. 0. 0. 0. 0. 0. 0.],-8.6669921875,-2.25830078125,-5.06591796875,[0. 0. 0. 0. 0. 0. 0. 0. 0.],-0.06298828125,0.02685546875,0.8251953125,[0. 0. 0. 0. 0. 0. 0. 0. 0.]
7.222352027893066,-0.02418760024011135,-0.005244597792625427,0.8368816375732422,-0.5468240976333618,[0. 0. 0. 0. 0. 0. 0. 0. 0.],-0.6103515625,4.638671875,-6.53076171875,[0. 0. 0. 0. 0. 0. 0. 0. 0.],0.00390625,-0.01220703125,0.9921875,[0. 0. 0. 0. 0. 0. 0. 0. 0.]
7.2428460121154785,-0.02416059747338295,-0.005611589644104242,0.837291419506073,-0.5461940169334412,[0. 0. 0. 0. 0. 0. 0. 0. 0.],-3.41796875,-11.04736328125,-3.41796875,[0. 0. 0. 0. 0. 0. 0. 0. 0.],-0.126953125,0.041015625,1.056640625,[0. 0. 0. 0. 0. 0. 0. 0. 0.]
7.262480735778809,-0.023885861039161682,-0.0052733817137777805,0.8378276228904724,-0.5453866720199585,[0. 0. 0. 0. 0. 0. 0. 0. 0.],5.126953125,-7.4462890625,-4.94384765625,[0. 0. 0. 0. 0. 0. 0. 0. 0.],-0.07421875,0.001953125,1.1826171875,[0. 0. 0. 0. 0. 0. 0. 0. 0.]
7.282451152801514,-0.022626763209700584,-0.003239748300984502,0.8384884595870972,-0.5444397330284119,[0. 0. 0. 0. 0. 0. 0. 0. 0.],4.5166015625,-2.62451171875,-6.65283203125,[0. 0. 0. 0. 0. 0. 0. 0. 0.],0.005859375,0.05078125,1.044921875,[0. 0. 0. 0. 0. 0. 0. 0. 0.]
7.302484512329102,-0.02266690880060196,-0.0026216458063572645,0.8390107750892639,-0.5436362624168396,[0. 0. 0. 0. 0. 0. 0. 0. 0.],-3.90625,-0.1220703125,-5.615234375,[0. 0. 0. 0. 0. 0. 0. 0. 0.],-0.01806640625,0.0537109375,0.978515625,[0. 0. 0. 0. 0. 0. 0. 0. 0.]
7.322283029556274,-0.022956736385822296,-0.002783277304843068,0.8395258188247681,-0.5428276062011719,[0. 0. 0. 0. 0. 0. 0. 0. 0.],-1.28173828125,2.13623046875,-6.34765625,[0. 0. 0. 0. 0. 0. 0. 0. 0.],-0.03076171875,0.01513671875,0.970703125,[0. 0. 0. 0. 0. 0. 0. 0. 0.]
7.342400550842285,-0.022582119330763817,-0.002382103353738785,0.8401297330856323,-0.5419100522994995,[0. 0. 0. 0. 0. 0. 0. 0. 0.],13.3056640625,-3.2958984375,-6.28662109375,[0. 0. 0. 0. 0. 0. 0. 0. 0.],-0.04443359375,-0.02197265625,1.056640625,[0. 0. 0. 0. 0. 0. 0. 0. 0.]
7.362836122512817,-0.02369232289493084,-0.001385189825668931,0.8407894968986511,-0.5408417582511902,[0. 0. 0. 0. 0. 0. 0. 0. 0.],2.5634765625,-2.685546875,-7.080078125,[0. 0. 0. 0. 0. 0. 0. 0. 0.],-0.072265625,0.06298828125,0.9267578125,[0. 0. 0. 0. 0. 0. 0. 0. 0.]
7.383770227432251,-0.024223720654845238,8.194953261408955e-05,0.8415355086326599,-0.5396584868431091,[0. 0. 0. 0. 0. 0. 0. 0. 0.],-3.7841796875,-1.3427734375,-8.6669921875,[0. 0. 0. 0. 0. 0. 0. 0. 0.],-0.033203125,0.05322265625,0.96826171875,[0. 0. 0. 0. 0. 0. 0. 0. 0.]
7.402499198913574,-0.025112273171544075,-0.0007043324294500053,0.8421205878257751,-0.5387038588523865,[0. 0. 0. 0. 0. 0. 0. 0. 0.],5.55419921875,0.30517578125,-5.37109375,[0. 0. 0. 0. 0. 0. 0. 0. 0.],-0.07373046875,-0.00439453125,1.0849609375,[0. 0. 0. 0. 0. 0. 0. 0. 0.]
7.422383546829224,-0.024940377101302147,-0.00010337847925256938,0.8427915573120117,-0.5376620888710022,[0. 0. 0. 0. 0. 0. 0. 0. 0.],8.1787109375,1.64794921875,-6.7138671875,[0. 0. 0. 0. 0. 0. 0. 0. 0.],-0.033203125,0.02001953125,1.1044921875,[0. 0. 0. 0. 0. 0. 0. 0. 0.]
7.442619323730469,-0.02631395123898983,0.0013230768963694572,0.8434186577796936,-0.53661048412323,[0. 0. 0. 0. 0. 0. 0. 0. 0.],-0.48828125,-4.57763671875,-7.6904296875,[0. 0. 0. 0. 0. 0. 0. 0. 0.],-0.07568359375,0.0712890625,0.91015625,[0. 0. 0. 0. 0. 0. 0. 0. 0.]
7.462413311004639,-0.026840776205062866,0.0003769323811866343,0.8439485430717468,-0.5357520580291748,[0. 0. 0. 0. 0. 0. 0. 0. 0.],-12.63427734375,-0.42724609375,-5.43212890625,[0. 0. 0. 0. 0. 0. 0. 0. 0.],-0.0771484375,0.05615234375,0.77880859375,[0. 0. 0. 0. 0. 0. 0. 0. 0.]
7.482767820358276,-0.02643001265823841,-0.0016377950087189674,0.8444272875785828,-0.5350154638290405,[0. 0. 0. 0. 0. 0. 0. 0. 0.],-1.46484375,-0.3662109375,-4.7607421875,[0. 0. 0. 0. 0. 0. 0. 0. 0.],-0.05224609375,-0.02490234375,0.97900390625,[0. 0. 0. 0. 0. 0. 0. 0. 0.]
7.502408027648926,-0.026253946125507355,-0.0026834041345864534,0.844826877117157,-0.534388542175293,[0. 0. 0. 0. 0. 0. 0. 0. 0.],-0.9765625,-8.1787109375,-3.35693359375,[0. 0. 0. 0. 0. 0. 0. 0. 0.],-0.11376953125,0.0224609375,1.0927734375,[0. 0. 0. 0. 0. 0. 0. 0. 0.]
7.5225136280059814,-0.02653593197464943,-0.0024346522986888885,0.8451016545295715,-0.5339411497116089,[0. 0. 0. 0. 0. 0. 0. 0. 0.],2.74658203125,-10.009765625,-2.99072265625,[0. 0. 0. 0. 0. 0. 0. 0. 0.],-0.10498046875,0.03076171875,1.138671875,[0. 0. 0. 0. 0. 0. 0. 0. 0.]
7.542819261550903,-0.025838905945420265,-0.0016615161439403892,0.8454220294952393,-0.5334709882736206,[0. 0. 0. 0. 0. 0. 0. 0. 0.],4.8828125,-7.38525390625,-2.99072265625,[0. 0. 0. 0. 0. 0. 0. 0. 0.],-0.03515625,0.0244140625,1.05517578125,[0. 0. 0. 0. 0. 0. 0. 0. 0.]
7.563305616378784,-0.025449028238654137,-0.00037487992085516453,0.8456437587738037,-0.5331405997276306,[0. 0. 0. 0. 0. 0. 0. 0. 0.],0.732421875,3.662109375,-2.3193359375,[0. 0. 0. 0. 0. 0. 0. 0. 0.],0.02490234375,0.056640625,0.9794921875,[0. 0. 0. 0. 0. 0. 0. 0. 0.]
7.582375764846802,-0.023636773228645325,-0.001354637905023992,0.8458592891693115,-0.5328803658485413,[0. 0. 0. 0. 0. 0. 0. 0. 0.],-12.451171875,-1.15966796875,-0.732421875,[0. 0. 0. 0. 0. 0. 0. 0. 0.],-0.05126953125,-0.03173828125,0.8935546875,[0. 0. 0. 0. 0. 0. 0. 0. 0.]
7.6023664474487305,-0.022073475643992424,-0.0038684499450027943,0.8460022807121277,-0.5327082276344299,[0. 0. 0. 0. 0. 0. 0. 0. 0.],-0.67138671875,0.48828125,-1.64794921875,[0. 0. 0. 0. 0. 0. 0. 0. 0.],0.00146484375,-0.19873046875,1.07568359375,[0. 0. 0. 0. 0. 0. 0. 0. 0.]
7.622349739074707,-0.020564066246151924,-0.004317429382354021,0.846218466758728,-0.5324216485023499,[0. 0. 0. 0. 0. 0. 0. 0. 0.],3.2958984375,-10.19287109375,-2.5634765625,[0. 0. 0. 0. 0. 0. 0. 0. 0.],-0.0205078125,-0.2021484375,1.0,[0. 0. 0. 0. 0. 0. 0. 0. 0.]
7.642402648925781,-0.018298698589205742,-0.00555022107437253,0.846260130405426,-0.5324267148971558,[0. 0. 0. 0. 0. 0. 0. 0. 0.],-5.06591796875,-10.43701171875,3.0517578125,[0. 0. 0. 0. 0. 0. 0. 0. 0.],-0.052734375,-0.19677734375,0.875,[0. 0. 0. 0. 0. 0. 0. 0. 0.]
7.6628577709198,-0.015405389480292797,-0.007063229102641344,0.8449305891990662,-0.5346075892448425,[0. 0. 0. 0. 0. 0. 0. 0. 0.],-6.40869140625,-0.8544921875,20.1416015625,[0. 0. 0. 0. 0. 0. 0. 0. 0.],0.02587890625,-0.27099609375,1.00537109375,[0. 0. 0. 0. 0. 0. 0. 0. 0.]
7.68730354309082,-0.01342475600540638,-0.007983977906405926,0.8428318500518799,-0.5379503965377808,[0. 0. 0. 0. 0. 0. 0. 0. 0.],-0.732421875,-13.61083984375,22.88818359375,[0. 0. 0. 0. 0. 0. 0. 0. 0.],0.0654296875,-0.283203125,1.0703125,[0. 0. 0. 0. 0. 0. 0. 0. 0.]
7.7028584480285645,-0.010449704714119434,-0.009602517820894718,0.8398488759994507,-0.5426347255706787,[0. 0. 0. 0. 0. 0. 0. 0. 0.],-11.90185546875,-3.41796875,37.90283203125,[0. 0. 0. 0. 0. 0. 0. 0. 0.],0.00537109375,-0.18603515625,0.8212890625,[0. 0. 0. 0. 0. 0. 0. 0. 0.]
7.722919702529907,-0.007485941518098116,-0.012538501061499119,0.8353524804115295,-0.5495207905769348,[0. 0. 0. 0. 0. 0. 0. 0. 0.],-8.4228515625,-15.07568359375,50.72021484375,[0. 0. 0. 0. 0. 0. 0. 0. 0.],0.02197265625,-0.28125,0.95166015625,[0. 0. 0. 0. 0. 0. 0. 0. 0.]
7.742781162261963,-0.003090717364102602,-0.011929446831345558,0.8296504616737366,-0.5581473112106323,[0. 0. 0. 0. 0. 0. 0. 0. 0.],-3.11279296875,-21.484375,65.673828125,[0. 0. 0. 0. 0. 0. 0. 0. 0.],0.05615234375,-0.34814453125,1.14501953125,[0. 0. 0. 0. 0. 0. 0. 0. 0.]
7.7631800174713135,0.0004593188932631165,-0.01027056947350502,0.8220609426498413,-0.5693067312240601,[0. 0. 0. 0. 0. 0. 0. 0. 0.],6.53076171875,-15.380859375,81.54296875,[0. 0. 0. 0. 0. 0. 0. 0. 0.],0.21240234375,-0.28515625,1.0888671875,[0. 0. 0. 0. 0. 0. 0. 0. 0.]
7.782700538635254,0.0017176477704197168,-0.009808649308979511,0.8127277493476868,-0.5825586318969727,[0. 0. 0. 0. 0. 0. 0. 0. 0.],4.57763671875,3.173828125,97.412109375,[0. 0. 0. 0. 0. 0. 0. 0. 0.],0.2529296875,-0.2392578125,1.04150390625,[0. 0. 0. 0. 0. 0. 0. 0. 0.]
7.804682493209839,0.003837742144241929,-0.010126165114343166,0.8016732931137085,-0.5976645350456238,[0. 0. 0. 0. 0. 0. 0. 0. 0.],-4.57763671875,-19.1650390625,111.02294921875,[0. 0. 0. 0. 0. 0. 0. 0. 0.],0.109375,-0.2080078125,0.89208984375,[0. 0. 0. 0. 0. 0. 0. 0. 0.]
7.817819356918335,0.006945505738258362,-0.009761284105479717,0.7891620993614197,-0.6140680909156799,[0. 0. 0. 0. 0. 0. 0. 0. 0.],2.74658203125,-3.90625,121.15478515625,[0. 0. 0. 0. 0. 0. 0. 0. 0.],0.2275390625,-0.3046875,1.02783203125,[0. 0. 0. 0. 0. 0. 0. 0. 0.]
7.8439061641693115,0.008341891691088676,-0.009756908752024174,0.775029182434082,-0.6317951679229736,[0. 0. 0. 0. 0. 0. 0. 0. 0.],-4.08935546875,-9.6435546875,135.19287109375,[0. 0. 0. 0. 0. 0. 0. 0. 0.],0.14697265625,-0.1884765625,0.7607421875,[0. 0. 0. 0. 0. 0. 0. 0. 0.]
7.862733840942383,0.014276174828410149,-0.007853321731090546,0.7593145966529846,-0.6505197882652283,[0. 0. 0. 0. 0. 0. 0. 0. 0.],-3.23486328125,-26.123046875,146.05712890625,[0. 0. 0. 0. 0. 0. 0. 0. 0.],0.17919921875,-0.26025390625,0.96923828125,[0. 0. 0. 0. 0. 0. 0. 0. 0.]
7.882599115371704,0.016637861728668213,-0.008658967912197113,0.7421530485153198,-0.6699680089950562,[0. 0. 0. 0. 0. 0. 0. 0. 0.],-1.15966796875,4.08935546875,152.03857421875,[0. 0. 0. 0. 0. 0. 0. 0. 0.],0.4404296875,-0.33251953125,1.20947265625,[0. 0. 0. 0. 0. 0. 0. 0. 0.]
7.90280818939209,0.017966967076063156,-0.007618255913257599,0.7238944172859192,-0.6896347999572754,[0. 0. 0. 0. 0. 0. 0. 0. 0.],1.03759765625,-1.03759765625,157.8369140625,[0. 0. 0. 0. 0. 0. 0. 0. 0.],0.30126953125,-0.337890625,1.1103515625,[0. 0. 0. 0. 0. 0. 0. 0. 0.]
7.918498754501343,0.020470505580306053,-0.005106762982904911,0.7042150497436523,-0.709673285484314,[0. 0. 0. 0. 0. 0. 0. 0. 0.],10.6201171875,-25.69580078125,162.353515625,[0. 0. 0. 0. 0. 0. 0. 0. 0.],0.2568359375,-0.30859375,0.97021484375,[0. 0. 0. 0. 0. 0. 0. 0. 0.]
7.942797422409058,0.019823547452688217,-0.006311522796750069,0.6823517680168152,-0.7307279706001282,[0. 0. 0. 0. 0. 0. 0. 0. 0.],-2.86865234375,6.77490234375,177.79541015625,[0. 0. 0. 0. 0. 0. 0. 0. 0.],0.341796875,-0.1787109375,0.796875,[0. 0. 0. 0. 0. 0. 0. 0. 0.]
7.963867664337158,0.02552224136888981,-0.004110022448003292,0.6592118740081787,-0.7515128254890442,[0. 0. 0. 0. 0. 0. 0. 0. 0.],-3.662109375,-38.26904296875,178.7109375,[0. 0. 0. 0. 0. 0. 0. 0. 0.],0.142578125,-0.28857421875,0.8330078125,[0. 0. 0. 0. 0. 0. 0. 0. 0.]
7.983067274093628,0.029103882610797882,-0.0023820793721824884,0.6347053050994873,-0.7722023725509644,[0. 0. 0. 0. 0. 0. 0. 0. 0.],1.15966796875,-3.96728515625,185.36376953125,[0. 0. 0. 0. 0. 0. 0. 0. 0.],0.4873046875,-0.38818359375,1.1494140625,[0. 0. 0. 0. 0. 0. 0. 0. 0.]
8.004456996917725,0.029817664995789528,-0.0010188850574195385,0.6089756488800049,-0.7926276922225952,[0. 0. 0. 0. 0. 0. 0. 0. 0.],11.77978515625,-18.9208984375,188.29345703125,[0. 0. 0. 0. 0. 0. 0. 0. 0.],0.4189453125,-0.3681640625,1.17724609375,[0. 0. 0. 0. 0. 0. 0. 0. 0.]
8.023616790771484,0.030227627605199814,-0.00030692110885865986,0.5816295146942139,-0.812891960144043,[0. 0. 0. 0. 0. 0. 0. 0. 0.],-2.50244140625,20.56884765625,198.8525390625,[0. 0. 0. 0. 0. 0. 0. 0. 0.],0.44140625,-0.24560546875,0.900390625,[0. 0. 0. 0. 0. 0. 0. 0. 0.]
8.043052673339844,0.03164093568921089,0.0015095982234925032,0.5529137253761292,-0.8326362371444702,[0. 0. 0. 0. 0. 0. 0. 0. 0.],9.33837890625,-37.90283203125,198.79150390625,[0. 0. 0. 0. 0. 0. 0. 0. 0.],0.23095703125,-0.3095703125,0.875,[0. 0. 0. 0. 0. 0. 0. 0. 0.]
8.06273102760315,0.03674646466970444,0.005939162336289883,0.5224946141242981,-0.8518297672271729,[0. 0. 0. 0. 0. 0. 0. 0. 0.],3.35693359375,-26.91650390625,207.09228515625,[0. 0. 0. 0. 0. 0. 0. 0. 0.],0.3369140625,-0.30078125,0.8388671875,[0. 0. 0. 0. 0. 0. 0. 0. 0.]
8.083237886428833,0.036832064390182495,0.005051705986261368,0.4905477464199066,-0.8706209063529968,[0. 0. 0. 0. 0. 0. 0. 0. 0.],14.70947265625,11.3525390625,216.00341796875,[0. 0. 0. 0. 0. 0. 0. 0. 0.],0.57373046875,-0.36376953125,1.169921875,[0. 0. 0. 0. 0. 0. 0. 0. 0.]
8.102593183517456,0.037414006888866425,0.005870336666703224,0.45733875036239624,-0.8884857892990112,[0. 0. 0. 0. 0. 0. 0. 0. 0.],7.568359375,-30.57861328125,216.97998046875,[0. 0. 0. 0. 0. 0. 0. 0. 0.],0.29931640625,-0.353515625,0.95703125,[0. 0. 0. 0. 0. 0. 0. 0. 0.]
8.122507095336914,0.038681045174598694,0.010394968092441559,0.4229923188686371,-0.9052475690841675,[0. 0. 0. 0. 0. 0. 0. 0. 0.],15.2587890625,-23.62060546875,219.970703125,[0. 0. 0. 0. 0. 0. 0. 0. 0.],0.490234375,-0.34716796875,0.986328125,[0. 0. 0. 0. 0. 0. 0. 0. 0.]
8.142741203308105,0.039762672036886215,0.013173209503293037,0.3869849741458893,-0.9211341738700867,[0. 0. 0. 0. 0. 0. 0. 0. 0.],9.6435546875,-34.60693359375,224.18212890625,[0. 0. 0. 0. 0. 0. 0. 0. 0.],0.375,-0.24169921875,0.82568359375,[0. 0. 0. 0. 0. 0. 0. 0. 0.]
8.158219575881958,0.0411796048283577,0.01409793458878994,0.34941959381103516,-0.9359548091888428,[0. 0. 0. 0. 0. 0. 0. 0. 0.],-2.38037109375,8.36181640625,233.3984375,[0. 0. 0. 0. 0. 0. 0. 0. 0.],0.57958984375,-0.2255859375,0.94091796875,[0. 0. 0. 0. 0. 0. 0. 0. 0.]
8.18245553970337,0.04164397716522217,0.016706760972738266,0.3123636245727539,-0.9489023685455322,[0. 0. 0. 0. 0. 0. 0. 0. 0.],13.18359375,-18.00537109375,222.2900390625,[0. 0. 0. 0. 0. 0. 0. 0. 0.],0.66162109375,-0.34912109375,1.1611328125,[0. 0. 0. 0. 0. 0. 0. 0. 0.]
8.20290732383728,0.04181164503097534,0.01989172026515007,0.275589257478714,-0.9601597189903259,[0. 0. 0. 0. 0. 0. 0. 0. 0.],19.775390625,-19.83642578125,217.7734375,[0. 0. 0. 0. 0. 0. 0. 0. 0.],0.64697265625,-0.30419921875,1.009765625,[0. 0. 0. 0. 0. 0. 0. 0. 0.]
8.217804193496704,0.04203367233276367,0.020175602287054062,0.2387993484735489,-0.9699490666389465,[0. 0. 0. 0. 0. 0. 0. 0. 0.],5.18798828125,-0.18310546875,216.85791015625,[0. 0. 0. 0. 0. 0. 0. 0. 0.],0.55029296875,-0.22265625,0.806640625,[0. 0. 0. 0. 0. 0. 0. 0. 0.]
8.237680196762085,0.043715085834264755,0.01924780011177063,0.20161442458629608,-0.978299617767334,[0. 0. 0. 0. 0. 0. 0. 0. 0.],-7.8125,-11.04736328125,215.4541015625,[0. 0. 0. 0. 0. 0. 0. 0. 0.],0.40283203125,-0.228515625,0.66015625,[0. 0. 0. 0. 0. 0. 0. 0. 0.]
8.262910842895508,0.04576358571648598,0.024028608575463295,0.16527456045150757,-0.9848923087120056,[0. 0. 0. 0. 0. 0. 0. 0. 0.],6.8359375,-28.25927734375,206.84814453125,[0. 0. 0. 0. 0. 0. 0. 0. 0.],0.6376953125,-0.41357421875,1.109375,[0. 0. 0. 0. 0. 0. 0. 0. 0.]
8.282994747161865,0.044933248311281204,0.024200033396482468,0.1300412118434906,-0.9901943206787109,[0. 0. 0. 0. 0. 0. 0. 0. 0.],18.37158203125,4.7607421875,200.13427734375,[0. 0. 0. 0. 0. 0. 0. 0. 0.],0.83984375,-0.36474609375,1.2119140625,[0. 0. 0. 0. 0. 0. 0. 0. 0.]
8.297645807266235,0.0442865751683712,0.024720238521695137,0.09531872719526291,-0.9941539764404297,[0. 0. 0. 0. 0. 0. 0. 0. 0.],4.45556640625,-4.69970703125,198.73046875,[0. 0. 0. 0. 0. 0. 0. 0. 0.],0.58740234375,-0.28125,0.90966796875,[0. 0. 0. 0. 0. 0. 0. 0. 0.]
8.317681074142456,0.044843390583992004,0.02579514868557453,0.06157946214079857,-0.9967605471611023,[0. 0. 0. 0. 0. 0. 0. 0. 0.],5.7373046875,-15.7470703125,189.697265625,[0. 0. 0. 0. 0. 0. 0. 0. 0.],0.59423828125,-0.27099609375,0.923828125,[0. 0. 0. 0. 0. 0. 0. 0. 0.]
8.342597484588623,0.04648410528898239,0.0234088022261858,0.029646892100572586,-0.9982045888900757,[0. 0. 0. 0. 0. 0. 0. 0. 0.],-6.591796875,19.10400390625,180.72509765625,[0. 0. 0. 0. 0. 0. 0. 0. 0.],0.56396484375,-0.19580078125,0.7666015625,[0. 0. 0. 0. 0. 0. 0. 0. 0.]
8.362834692001343,0.047172535210847855,0.024952877312898636,-1.9201368559151888e-05,-0.9985750913619995,[0. 0. 0. 0. 0. 0. 0. 0. 0.],5.37109375,-21.484375,161.2548828125,[0. 0. 0. 0. 0. 0. 0. 0. 0.],0.50927734375,-0.31201171875,0.94970703125,[0. 0. 0. 0. 0. 0. 0. 0. 0.]
8.37763261795044,0.046852562576532364,0.02603510208427906,-0.026235951110720634,-0.998217761516571,[0. 0. 0. 0. 0. 0. 0. 0. 0.],10.498046875,-2.3193359375,141.2353515625,[0. 0. 0. 0. 0. 0. 0. 0. 0.],0.80908203125,-0.2744140625,1.18505859375,[0. 0. 0. 0. 0. 0. 0. 0. 0.]
8.403022289276123,0.0456075482070446,0.026454919949173927,-0.047811590135097504,-0.9974638819694519,[0. 0. 0. 0. 0. 0. 0. 0. 0.],10.986328125,-6.34765625,114.07470703125,[0. 0. 0. 0. 0. 0. 0. 0. 0.],0.75341796875,-0.19482421875,1.12744140625,[0. 0. 0. 0. 0. 0. 0. 0. 0.]
8.423035621643066,0.04463610798120499,0.02841658517718315,-0.06573997437953949,-0.9964328408241272,[0. 0. 0. 0. 0. 0. 0. 0. 0.],5.06591796875,-8.11767578125,98.2666015625,[0. 0. 0. 0. 0. 0. 0. 0. 0.],0.54296875,-0.14990234375,0.85498046875,[0. 0. 0. 0. 0. 0. 0. 0. 0.]
8.442548990249634,0.043831776827573776,0.0285046249628067,-0.08083757013082504,-0.9953550100326538,[0. 0. 0. 0. 0. 0. 0. 0. 0.],9.765625,4.69970703125,81.84814453125,[0. 0. 0. 0. 0. 0. 0. 0. 0.],0.6220703125,-0.1650390625,0.962890625,[0. 0. 0. 0. 0. 0. 0. 0. 0.]
8.462684869766235,0.04289718344807625,0.02961449697613716,-0.09374643862247467,-0.9942306280136108,[0. 0. 0. 0. 0. 0. 0. 0. 0.],3.60107421875,-3.84521484375,70.73974609375,[0. 0. 0. 0. 0. 0. 0. 0. 0.],0.490234375,-0.12158203125,0.8212890625,[0. 0. 0. 0. 0. 0. 0. 0. 0.]
8.477758169174194,0.0444580540060997,0.03125280141830444,-0.10492024570703506,-0.9929947257041931,[0. 0. 0. 0. 0. 0. 0. 0. 0.],-11.3525390625,-11.53564453125,58.9599609375,[0. 0. 0. 0. 0. 0. 0. 0. 0.],0.50634765625,-0.06201171875,0.7861328125,[0. 0. 0. 0. 0. 0. 0. 0. 0.]
8.498536586761475,0.044382043182849884,0.03430924192070961,-0.11260324716567993,-0.9920552372932434,[0. 0. 0. 0. 0. 0. 0. 0. 0.],6.65283203125,-2.5634765625,35.2783203125,[0. 0. 0. 0. 0. 0. 0. 0. 0.],0.79736328125,-0.1650390625,1.23681640625,[0. 0. 0. 0. 0. 0. 0. 0. 0.]
8.522825717926025,0.042220987379550934,0.03527885675430298,-0.1166258454322815,-0.9916508197784424,[0. 0. 0. 0. 0. 0. 0. 0. 0.],15.5029296875,-10.55908203125,16.4794921875,[0. 0. 0. 0. 0. 0. 0. 0. 0.],0.72802734375,-0.12109375,1.17041015625,[0. 0. 0. 0. 0. 0. 0. 0. 0.]
8.542786836624146,0.040833521634340286,0.03612028807401657,-0.11816409230232239,-0.9914964437484741,[0. 0. 0. 0. 0. 0. 0. 0. 0.],1.0986328125,7.50732421875,3.41796875,[0. 0. 0. 0. 0. 0. 0. 0. 0.],0.6494140625,-0.02978515625,0.95849609375,[0. 0. 0. 0. 0. 0. 0. 0. 0.]
8.563295364379883,0.04011834040284157,0.03545179218053818,-0.1169036403298378,-0.99169921875,[0. 0. 0. 0. 0. 0. 0. 0. 0.],5.2490234375,6.40869140625,-13.48876953125,[0. 0. 0. 0. 0. 0. 0. 0. 0.],0.57275390625,-0.0224609375,0.94482421875,[0. 0. 0. 0. 0. 0. 0. 0. 0.]
8.58276104927063,0.03959864377975464,0.03760421648621559,-0.11262992024421692,-0.9921352863311768,[0. 0. 0. 0. 0. 0. 0. 0. 0.],-2.8076171875,-9.033203125,-30.70068359375,[0. 0. 0. 0. 0. 0. 0. 0. 0.],0.44921875,0.02783203125,0.78369140625,[0. 0. 0. 0. 0. 0. 0. 0. 0.]
8.602863311767578,0.03814224153757095,0.039311669766902924,-0.10457631945610046,-0.9930073022842407,[0. 0. 0. 0. 0. 0. 0. 0. 0.],6.34765625,10.3759765625,-55.72509765625,[0. 0. 0. 0. 0. 0. 0. 0. 0.],0.642578125,0.02294921875,1.03857421875,[0. 0. 0. 0. 0. 0. 0. 0. 0.]
8.618972539901733,0.036200907081365585,0.039273474365472794,-0.09247290343046188,-0.9942816495895386,[0. 0. 0. 0. 0. 0. 0. 0. 0.],4.69970703125,1.953125,-76.66015625,[0. 0. 0. 0. 0. 0. 0. 0. 0.],0.5419921875,0.087890625,0.98681640625,[0. 0. 0. 0. 0. 0. 0. 0. 0.]
8.637763261795044,0.035519178956747055,0.03954778239130974,-0.07685406506061554,-0.995624303817749,[0. 0. 0. 0. 0. 0. 0. 0. 0.],-5.18798828125,17.9443359375,-93.994140625,[0. 0. 0. 0. 0. 0. 0. 0. 0.],0.41943359375,0.1083984375,0.81396484375,[0. 0. 0. 0. 0. 0. 0. 0. 0.]
8.666535377502441,0.034973811358213425,0.03733684867620468,-0.05362899601459503,-0.9972496032714844,[0. 0. 0. 0. 0. 0. 0. 0. 0.],-6.2255859375,15.9912109375,-109.43603515625,[0. 0. 0. 0. 0. 0. 0. 0. 0.],0.09765625,0.1083984375,1.01220703125,[0. 0. 0. 0. 0. 0. 0. 0. 0.]
8.683119058609009,0.0327339693903923,0.03493700921535492,-0.03891365975141525,-0.9980950951576233,[0. 0. 0. 0. 0. 0. 0. 0. 0.],13.7939453125,20.01953125,-112.6708984375,[0. 0. 0. 0. 0. 0. 0. 0. 0.],-0.13427734375,0.1494140625,1.25341796875,[0. 0. 0. 0. 0. 0. 0. 0. 0.]
8.70268726348877,0.028770634904503822,0.030597951263189316,-0.019261542707681656,-0.9989320039749146,[0. 0. 0. 0. 0. 0. 0. 0. 0.],9.521484375,21.54541015625,-112.60986328125,[0. 0. 0. 0. 0. 0. 0. 0. 0.],-0.1943359375,0.2958984375,1.08447265625,[0. 0. 0. 0. 0. 0. 0. 0. 0.]
8.718748569488525,0.02526499144732952,0.02791951410472393,0.0002305089874425903,-0.9992908835411072,[0. 0. 0. 0. 0. 0. 0. 0. 0.],13.427734375,12.14599609375,-111.9384765625,[0. 0. 0. 0. 0. 0. 0. 0. 0.],-0.2509765625,0.3271484375,0.98583984375,[0. 0. 0. 0. 0. 0. 0. 0. 0.]
8.742454767227173,0.0210226122289896,0.02550429478287697,0.01967020146548748,-0.9992600679397583,[0. 0. 0. 0. 0. 0. 0. 0. 0.],13.427734375,8.48388671875,-109.375,[0. 0. 0. 0. 0. 0. 0. 0. 0.],-0.2275390625,0.3173828125,1.044921875,[0. 0. 0. 0. 0. 0. 0. 0. 0.]
8.765629768371582,0.01824147067964077,0.022314835339784622,0.04322899505496025,-0.9986494183540344,[0. 0. 0. 0. 0. 0. 0. 0. 0.],-0.91552734375,11.1083984375,-107.421875,[0. 0. 0. 0. 0. 0. 0. 0. 0.],-0.2177734375,0.35205078125,0.9423828125,[0. 0. 0. 0. 0. 0. 0. 0. 0.]
8.77784514427185,0.017037373036146164,0.021206047385931015,0.057143520563840866,-0.9979953765869141,[0. 0. 0. 0. 0. 0. 0. 0. 0.],1.3427734375,2.9296875,-106.8115234375,[0. 0. 0. 0. 0. 0. 0. 0. 0.],-0.25439453125,0.3330078125,0.97509765625,[0. 0. 0. 0. 0. 0. 0. 0. 0.]
8.80284833908081,0.014743622392416,0.02086901292204857,0.0758737251162529,-0.9967901110649109,[0. 0. 0. 0. 0. 0. 0. 0. 0.],4.0283203125,-2.62451171875,-106.8115234375,[0. 0. 0. 0. 0. 0. 0. 0. 0.],-0.23046875,0.31640625,0.99462890625,[0. 0. 0. 0. 0. 0. 0. 0. 0.]
8.82264232635498,0.012361188419163227,0.020383257418870926,0.09427234530448914,-0.9952611327171326,[0. 0. 0. 0. 0. 0. 0. 0. 0.],3.96728515625,5.0048828125,-105.3466796875,[0. 0. 0. 0. 0. 0. 0. 0. 0.],-0.1640625,0.3076171875,0.96435546875,[0. 0. 0. 0. 0. 0. 0. 0. 0.]
8.842485427856445,0.009690867736935616,0.019029347226023674,0.111870676279068,-0.993493378162384,[0. 0. 0. 0. 0. 0. 0. 0. 0.],4.21142578125,-2.50244140625,-101.01318359375,[0. 0. 0. 0. 0. 0. 0. 0. 0.],-0.20849609375,0.31591796875,0.96728515625,[0. 0. 0. 0. 0. 0. 0. 0. 0.]
8.858254194259644,0.008377650752663612,0.01820930279791355,0.12894147634506226,-0.9914497137069702,[0. 0. 0. 0. 0. 0. 0. 0. 0.],-3.90625,1.89208984375,-97.16796875,[0. 0. 0. 0. 0. 0. 0. 0. 0.],-0.22509765625,0.37353515625,1.0048828125,[0. 0. 0. 0. 0. 0. 0. 0. 0.]
8.882789373397827,0.006669243797659874,0.01717609353363514,0.14529134333133698,-0.9892174005508423,[0. 0. 0. 0. 0. 0. 0. 0. 0.],3.662109375,4.08935546875,-91.12548828125,[0. 0. 0. 0. 0. 0. 0. 0. 0.],-0.22998046875,0.3203125,1.12353515625,[0. 0. 0. 0. 0. 0. 0. 0. 0.]
8.902795791625977,0.004050568211823702,0.016691992059350014,0.1604011058807373,-0.9869025349617004,[0. 0. 0. 0. 0. 0. 0. 0. 0.],4.57763671875,-0.42724609375,-84.8388671875,[0. 0. 0. 0. 0. 0. 0. 0. 0.],-0.23095703125,0.30615234375,0.99169921875,[0. 0. 0. 0. 0. 0. 0. 0. 0.]
8.92615270614624,0.002498897025361657,0.015144918113946915,0.1777314692735672,-0.9839593172073364,[0. 0. 0. 0. 0. 0. 0. 0. 0.],-4.7607421875,3.11279296875,-78.91845703125,[0. 0. 0. 0. 0. 0. 0. 0. 0.],-0.18798828125,0.3505859375,0.93408203125,[0. 0. 0. 0. 0. 0. 0. 0. 0.]
8.937839031219482,0.0018022317672148347,0.014128735288977623,0.18745087087154388,-0.982170820236206,[0. 0. 0. 0. 0. 0. 0. 0. 0.],-3.11279296875,3.662109375,-74.40185546875,[0. 0. 0. 0. 0. 0. 0. 0. 0.],-0.21533203125,0.333984375,1.017578125,[0. 0. 0. 0. 0. 0. 0. 0. 0.]
8.958599328994751,-0.00012286312994547188,0.012962623499333858,0.19944705069065094,-0.9798228740692139,[0. 0. 0. 0. 0. 0. 0. 0. 0.],3.90625,4.2724609375,-66.650390625,[0. 0. 0. 0. 0. 0. 0. 0. 0.],-0.20654296875,0.30126953125,1.0361328125,[0. 0. 0. 0. 0. 0. 0. 0. 0.]
8.982800483703613,-0.0024190847761929035,0.01201067678630352,0.21013563871383667,-0.9775955080986023,[0. 0. 0. 0. 0. 0. 0. 0. 0.],4.2724609375,-1.3427734375,-60.4248046875,[0. 0. 0. 0. 0. 0. 0. 0. 0.],-0.20556640625,0.310546875,0.978515625,[0. 0. 0. 0. 0. 0. 0. 0. 0.]
9.003070592880249,-0.0035324308555573225,0.011451073922216892,0.21965640783309937,-0.9755037426948547,[0. 0. 0. 0. 0. 0. 0. 0. 0.],-3.90625,0.732421875,-54.931640625,[0. 0. 0. 0. 0. 0. 0. 0. 0.],-0.1748046875,0.35107421875,0.9853515625,[0. 0. 0. 0. 0. 0. 0. 0. 0.]
9.026437997817993,-0.004695577081292868,0.010677486658096313,0.2284458577632904,-0.9734867811203003,[0. 0. 0. 0. 0. 0. 0. 0. 0.],-2.0751953125,2.8076171875,-49.49951171875,[0. 0. 0. 0. 0. 0. 0. 0. 0.],-0.12841796875,0.32861328125,1.04443359375,[0. 0. 0. 0. 0. 0. 0. 0. 0.]
9.043339252471924,-0.006013409700244665,0.010043972171843052,0.23632404208183289,-0.9716038107872009,[0. 0. 0. 0. 0. 0. 0. 0. 0.],-2.25830078125,1.220703125,-43.8232421875,[0. 0. 0. 0. 0. 0. 0. 0. 0.],-0.11279296875,0.3095703125,0.99267578125,[0. 0. 0. 0. 0. 0. 0. 0. 0.]
