time,orientation.x,orientation.y,orientation.z,orientation.w,orientation_covariance,angular_velocity.x,angular_velocity.y,angular_velocity.z,angular_velocity_covariance,linear_acceleration.x,linear_acceleration.y,linear_acceleration.z,linear_acceleration_covariance
0.33530545234680176,0.010531952604651451,0.019971538335084915,-0.11234210431575775,0.9934130311012268,[0. 0. 0. 0. 0. 0. 0. 0. 0.],0.1220703125,-0.54931640625,-0.06103515625,[0. 0. 0. 0. 0. 0. 0. 0. 0.],-0.04150390625,0.01611328125,1.00439453125,[0. 0. 0. 0. 0. 0. 0. 0. 0.]
0.34636878967285156,0.01036684587597847,0.018903160467743874,-0.11234797537326813,0.9934350252151489,[0. 0. 0. 0. 0. 0. 0. 0. 0.],-0.244140625,-1.03759765625,-0.06103515625,[0. 0. 0. 0. 0. 0. 0. 0. 0.],-0.04052734375,0.01611328125,1.00390625,[0. 0. 0. 0. 0. 0. 0. 0. 0.]
0.3674294948577881,0.009866006672382355,0.019054079428315163,-0.11239927262067795,0.9934315085411072,[0. 0. 0. 0. 0. 0. 0. 0. 0.],-0.42724609375,-1.0986328125,-0.30517578125,[0. 0. 0. 0. 0. 0. 0. 0. 0.],-0.04052734375,0.01513671875,1.00146484375,[0. 0. 0. 0. 0. 0. 0. 0. 0.]
0.3889424800872803,0.010221079923212528,0.01911473087966442,-0.11241497844457626,0.9934248924255371,[0. 0. 0. 0. 0. 0. 0. 0. 0.],0.06103515625,-0.30517578125,-0.1220703125,[0. 0. 0. 0. 0. 0. 0. 0. 0.],-0.04052734375,0.015625,1.00341796875,[0. 0. 0. 0. 0. 0. 0. 0. 0.]
0.40570998191833496,0.009758281521499157,0.01962052658200264,-0.1124497503042221,0.9934158325195312,[0. 0. 0. 0. 0. 0. 0. 0. 0.],0.3662109375,-0.54931640625,0.0,[0. 0. 0. 0. 0. 0. 0. 0. 0.],-0.04150390625,0.01513671875,1.00390625,[0. 0. 0. 0. 0. 0. 0. 0. 0.]
0.42694735527038574,0.010047984309494495,0.019442565739154816,-0.11246436834335327,0.9934147000312805,[0. 0. 0. 0. 0. 0. 0. 0. 0.],-0.18310546875,-1.15966796875,-0.244140625,[0. 0. 0. 0. 0. 0. 0. 0. 0.],-0.04052734375,0.015625,1.0029296875,[0. 0. 0. 0. 0. 0. 0. 0. 0.]
0.4463388919830322,0.010693266987800598,0.019725659862160683,-0.11248568445444107,0.993399977684021,[0. 0. 0. 0. 0. 0. 0. 0. 0.],-0.1220703125,-1.15966796875,-0.244140625,[0. 0. 0. 0. 0. 0. 0. 0. 0.],-0.04150390625,0.0166015625,1.00439453125,[0. 0. 0. 0. 0. 0. 0. 0. 0.]
0.4658679962158203,0.011321492493152618,0.019784102216362953,-0.1124955266714096,0.9933907389640808,[0. 0. 0. 0. 0. 0. 0. 0. 0.],0.06103515625,-0.244140625,-0.06103515625,[0. 0. 0. 0. 0. 0. 0. 0. 0.],-0.0419921875,0.017578125,1.00390625,[0. 0. 0. 0. 0. 0. 0. 0. 0.]
0.48698949813842773,0.011160953901708126,0.019096117466688156,-0.1125284731388092,0.993402361869812,[0. 0. 0. 0. 0. 0. 0. 0. 0.],-0.06103515625,-0.3662109375,-0.18310546875,[0. 0. 0. 0. 0. 0. 0. 0. 0.],-0.04052734375,0.017578125,1.00146484375,[0. 0. 0. 0. 0. 0. 0. 0. 0.]
0.505774736404419,0.01004025898873806,0.018842164427042007,-0.11256015300750732,0.9934155344963074,[0. 0. 0. 0. 0. 0. 0. 0. 0.],-0.1220703125,-0.91552734375,-0.06103515625,[0. 0. 0. 0. 0. 0. 0. 0. 0.],-0.03955078125,0.01611328125,1.001953125,[0. 0. 0. 0. 0. 0. 0. 0. 0.]
0.5257022380828857,0.01011673454195261,0.01965225115418434,-0.11259444802999496,0.9933951497077942,[0. 0. 0. 0. 0. 0. 0. 0. 0.],-0.1220703125,-1.0986328125,-0.18310546875,[0. 0. 0. 0. 0. 0. 0. 0. 0.],-0.04150390625,0.01611328125,1.00390625,[0. 0. 0. 0. 0. 0. 0. 0. 0.]
0.5457167625427246,0.0113016152754426,0.01937888376414776,-0.11258938163518906,0.9933884143829346,[0. 0. 0. 0. 0. 0. 0. 0. 0.],-0.1220703125,-0.48828125,-0.18310546875,[0. 0. 0. 0. 0. 0. 0. 0. 0.],-0.04150390625,0.01806640625,1.00341796875,[0. 0. 0. 0. 0. 0. 0. 0. 0.]
0.5664546489715576,0.010529803112149239,0.01940266415476799,-0.11262496560811996,0.993392288684845,[0. 0. 0. 0. 0. 0. 0. 0. 0.],-0.18310546875,-0.6103515625,-0.1220703125,[0. 0. 0. 0. 0. 0. 0. 0. 0.],-0.041015625,0.01708984375,1.001953125,[0. 0. 0. 0. 0. 0. 0. 0. 0.]
0.585613489151001,0.010613251477479935,0.020089006051421165,-0.11264084279537201,0.9933760166168213,[0. 0. 0. 0. 0. 0. 0. 0. 0.],-0.244140625,-0.54931640625,-0.06103515625,[0. 0. 0. 0. 0. 0. 0. 0. 0.],-0.04248046875,0.0166015625,1.0009765625,[0. 0. 0. 0. 0. 0. 0. 0. 0.]
0.6057837009429932,0.010560735128819942,0.0196312814950943,-0.11265581846237183,0.9933839440345764,[0. 0. 0. 0. 0. 0. 0. 0. 0.],-0.06103515625,-0.91552734375,-0.1220703125,[0. 0. 0. 0. 0. 0. 0. 0. 0.],-0.041015625,0.01708984375,1.00341796875,[0. 0. 0. 0. 0. 0. 0. 0. 0.]
0.6260080337524414,0.009591550566256046,0.01918611116707325,-0.11270012706518173,0.9933974742889404,[0. 0. 0. 0. 0. 0. 0. 0. 0.],0.1220703125,-0.8544921875,-0.30517578125,[0. 0. 0. 0. 0. 0. 0. 0. 0.],-0.04052734375,0.0146484375,1.00390625,[0. 0. 0. 0. 0. 0. 0. 0. 0.]
0.6418600082397461,0.009683779440820217,0.019105389714241028,-0.11271340399980545,0.9933966994285583,[0. 0. 0. 0. 0. 0. 0. 0. 0.],0.0,-0.48828125,0.0,[0. 0. 0. 0. 0. 0. 0. 0. 0.],-0.04052734375,0.01513671875,1.0009765625,[0. 0. 0. 0. 0. 0. 0. 0. 0.]
0.665325403213501,0.010210289619863033,0.019358178600668907,-0.11271584779024124,0.9933862686157227,[0. 0. 0. 0. 0. 0. 0. 0. 0.],-0.3662109375,-0.48828125,-0.06103515625,[0. 0. 0. 0. 0. 0. 0. 0. 0.],-0.041015625,0.015625,1.00244140625,[0. 0. 0. 0. 0. 0. 0. 0. 0.]
0.6856281757354736,0.010441435500979424,0.019384363666176796,-0.11273946613073349,0.993380606174469,[0. 0. 0. 0. 0. 0. 0. 0. 0.],0.244140625,-0.6103515625,-0.18310546875,[0. 0. 0. 0. 0. 0. 0. 0. 0.],-0.041015625,0.0166015625,1.00439453125,[0. 0. 0. 0. 0. 0. 0. 0. 0.]
0.7066864967346191,0.0105215385556221,0.019277168437838554,-0.11275718361139297,0.9933798313140869,[0. 0. 0. 0. 0. 0. 0. 0. 0.],0.3662109375,-0.732421875,-0.18310546875,[0. 0. 0. 0. 0. 0. 0. 0. 0.],-0.041015625,0.0166015625,1.005859375,[0. 0. 0. 0. 0. 0. 0. 0. 0.]
0.7253825664520264,0.010023900307714939,0.01909887045621872,-0.11279076337814331,0.993384599685669,[0. 0. 0. 0. 0. 0. 0. 0. 0.],-0.18310546875,-0.732421875,-0.1220703125,[0. 0. 0. 0. 0. 0. 0. 0. 0.],-0.04052734375,0.01611328125,1.0029296875,[0. 0. 0. 0. 0. 0. 0. 0. 0.]
0.7457301616668701,0.009833186864852905,0.018562253564596176,-0.1128055527806282,0.9933950304985046,[0. 0. 0. 0. 0. 0. 0. 0. 0.],-0.42724609375,-1.15966796875,-0.244140625,[0. 0. 0. 0. 0. 0. 0. 0. 0.],-0.03955078125,0.015625,1.00390625,[0. 0. 0. 0. 0. 0. 0. 0. 0.]
0.7652909755706787,0.010192407295107841,0.01918473280966282,-0.11284259706735611,0.9933753609657288,[0. 0. 0. 0. 0. 0. 0. 0. 0.],0.1220703125,-0.732421875,-0.18310546875,[0. 0. 0. 0. 0. 0. 0. 0. 0.],-0.04052734375,0.01611328125,1.00439453125,[0. 0. 0. 0. 0. 0. 0. 0. 0.]
0.7881698608398438,0.010811085812747478,0.01963597722351551,-0.11285403370857239,0.9933587908744812,[0. 0. 0. 0. 0. 0. 0. 0. 0.],-0.18310546875,-0.3662109375,-0.06103515625,[0. 0. 0. 0. 0. 0. 0. 0. 0.],-0.0419921875,0.01708984375,1.0029296875,[0. 0. 0. 0. 0. 0. 0. 0. 0.]
0.8056106567382812,0.011591305956244469,0.018778039142489433,-0.11284991353750229,0.993367075920105,[0. 0. 0. 0. 0. 0. 0. 0. 0.],-0.30517578125,-0.42724609375,0.0,[0. 0. 0. 0. 0. 0. 0. 0. 0.],-0.04052734375,0.0185546875,1.00244140625,[0. 0. 0. 0. 0. 0. 0. 0. 0.]
0.8257319927215576,0.010427773930132389,0.019402863457798958,-0.11289498209953308,0.9933627247810364,[0. 0. 0. 0. 0. 0. 0. 0. 0.],-0.1220703125,-1.15966796875,-0.18310546875,[0. 0. 0. 0. 0. 0. 0. 0. 0.],-0.041015625,0.0166015625,1.00390625,[0. 0. 0. 0. 0. 0. 0. 0. 0.]
0.8457896709442139,0.010565700009465218,0.01917113922536373,-0.11291047185659409,0.9933640956878662,[0. 0. 0. 0. 0. 0. 0. 0. 0.],0.0,-0.732421875,-0.244140625,[0. 0. 0. 0. 0. 0. 0. 0. 0.],-0.041015625,0.0166015625,1.00537109375,[0. 0. 0. 0. 0. 0. 0. 0. 0.]
0.865825891494751,0.010615892708301544,0.018443768844008446,-0.11293554306030273,0.9933744668960571,[0. 0. 0. 0. 0. 0. 0. 0. 0.],-0.06103515625,-0.18310546875,-0.1220703125,[0. 0. 0. 0. 0. 0. 0. 0. 0.],-0.0390625,0.01708984375,1.00439453125,[0. 0. 0. 0. 0. 0. 0. 0. 0.]
0.8869020938873291,0.01082210149616003,0.020006796345114708,-0.11297162622213364,0.9933378100395203,[0. 0. 0. 0. 0. 0. 0. 0. 0.],-0.54931640625,-0.6103515625,-0.06103515625,[0. 0. 0. 0. 0. 0. 0. 0. 0.],-0.0419921875,0.01708984375,1.00341796875,[0. 0. 0. 0. 0. 0. 0. 0. 0.]
0.9057519435882568,0.009604210965335369,0.01883917674422264,-0.11301369965076447,0.9933684468269348,[0. 0. 0. 0. 0. 0. 0. 0. 0.],0.06103515625,-0.3662109375,-0.1220703125,[0. 0. 0. 0. 0. 0. 0. 0. 0.],-0.0400390625,0.01513671875,1.0048828125,[0. 0. 0. 0. 0. 0. 0. 0. 0.]
0.9273786544799805,0.010112586431205273,0.01897723600268364,-0.11304056644439697,0.9933576583862305,[0. 0. 0. 0. 0. 0. 0. 0. 0.],0.30517578125,-0.6103515625,-0.1220703125,[0. 0. 0. 0. 0. 0. 0. 0. 0.],-0.0400390625,0.01513671875,1.00244140625,[0. 0. 0. 0. 0. 0. 0. 0. 0.]
0.9439189434051514,0.010570826008915901,0.018894989043474197,-0.11304222792387009,0.993354320526123,[0. 0. 0. 0. 0. 0. 0. 0. 0.],-0.06103515625,-0.6103515625,-0.06103515625,[0. 0. 0. 0. 0. 0. 0. 0. 0.],-0.0400390625,0.01806640625,1.0009765625,[0. 0. 0. 0. 0. 0. 0. 0. 0.]
0.96626877784729,0.01187457051128149,0.018939483910799026,-0.1130496934056282,0.993337869644165,[0. 0. 0. 0. 0. 0. 0. 0. 0.],-0.42724609375,-0.732421875,-0.244140625,[0. 0. 0. 0. 0. 0. 0. 0. 0.],-0.04052734375,0.01953125,1.0029296875,[0. 0. 0. 0. 0. 0. 0. 0. 0.]
0.9857628345489502,0.011299774050712585,0.019583357498049736,-0.11309269815683365,0.9933271408081055,[0. 0. 0. 0. 0. 0. 0. 0. 0.],0.06103515625,-0.48828125,-0.1220703125,[0. 0. 0. 0. 0. 0. 0. 0. 0.],-0.04150390625,0.01806640625,1.00244140625,[0. 0. 0. 0. 0. 0. 0. 0. 0.]
1.0011875629425049,0.011027051135897636,0.01944056898355484,-0.11313628405332565,0.9933280348777771,[0. 0. 0. 0. 0. 0. 0. 0. 0.],0.244140625,-0.79345703125,-0.06103515625,[0. 0. 0. 0. 0. 0. 0. 0. 0.],-0.04052734375,0.017578125,1.00439453125,[0. 0. 0. 0. 0. 0. 0. 0. 0.]
1.0257346630096436,0.009516589343547821,0.0193963460624218,-0.11319175362586975,0.9933382272720337,[0. 0. 0. 0. 0. 0. 0. 0. 0.],-0.06103515625,-1.0986328125,-0.30517578125,[0. 0. 0. 0. 0. 0. 0. 0. 0.],-0.041015625,0.01513671875,1.0029296875,[0. 0. 0. 0. 0. 0. 0. 0. 0.]
1.0455336570739746,0.010563183575868607,0.018913492560386658,-0.11318720132112503,0.9933375716209412,[0. 0. 0. 0. 0. 0. 0. 0. 0.],-0.42724609375,-0.8544921875,-0.244140625,[0. 0. 0. 0. 0. 0. 0. 0. 0.],-0.04052734375,0.0166015625,1.00390625,[0. 0. 0. 0. 0. 0. 0. 0. 0.]
1.0662834644317627,0.010789083316922188,0.01978466287255287,-0.11323137581348419,0.9933130741119385,[0. 0. 0. 0. 0. 0. 0. 0. 0.],0.06103515625,-0.48828125,-0.244140625,[0. 0. 0. 0. 0. 0. 0. 0. 0.],-0.04150390625,0.0166015625,1.00390625,[0. 0. 0. 0. 0. 0. 0. 0. 0.]
1.0879814624786377,0.011027292348444462,0.019619377329945564,-0.11324349790811539,0.9933123588562012,[0. 0. 0. 0. 0. 0. 0. 0. 0.],-0.06103515625,-0.06103515625,0.0,[0. 0. 0. 0. 0. 0. 0. 0. 0.],-0.0419921875,0.017578125,1.001953125,[0. 0. 0. 0. 0. 0. 0. 0. 0.]
1.1057026386260986,0.011267042718827724,0.018948407843708992,-0.11325506120920181,0.993321418762207,[0. 0. 0. 0. 0. 0. 0. 0. 0.],0.1220703125,-0.9765625,-0.06103515625,[0. 0. 0. 0. 0. 0. 0. 0. 0.],-0.041015625,0.0185546875,1.00341796875,[0. 0. 0. 0. 0. 0. 0. 0. 0.]
1.1258502006530762,0.011016225442290306,0.019405653700232506,-0.1132822334766388,0.9933122992515564,[0. 0. 0. 0. 0. 0. 0. 0. 0.],-0.42724609375,-1.0986328125,-0.18310546875,[0. 0. 0. 0. 0. 0. 0. 0. 0.],-0.041015625,0.017578125,1.0048828125,[0. 0. 0. 0. 0. 0. 0. 0. 0.]
1.1474025249481201,0.011047691106796265,0.019490454345941544,-0.11331891268491745,0.9933061003684998,[0. 0. 0. 0. 0. 0. 0. 0. 0.],0.1220703125,-0.79345703125,-0.30517578125,[0. 0. 0. 0. 0. 0. 0. 0. 0.],-0.0419921875,0.017578125,1.00390625,[0. 0. 0. 0. 0. 0. 0. 0. 0.]
1.1657860279083252,0.010636781342327595,0.019387168809771538,-0.11334478855133057,0.9933096766471863,[0. 0. 0. 0. 0. 0. 0. 0. 0.],-0.06103515625,-0.3662109375,-0.1220703125,[0. 0. 0. 0. 0. 0. 0. 0. 0.],-0.0400390625,0.0166015625,1.00439453125,[0. 0. 0. 0. 0. 0. 0. 0. 0.]
1.1868596076965332,0.009941780008375645,0.019208824262022972,-0.11337333917617798,0.9933170080184937,[0. 0. 0. 0. 0. 0. 0. 0. 0.],-0.42724609375,-0.42724609375,0.0,[0. 0. 0. 0. 0. 0. 0. 0. 0.],-0.04052734375,0.015625,1.00439453125,[0. 0. 0. 0. 0. 0. 0. 0. 0.]
1.2006158828735352,0.010314584709703922,0.02038758620619774,-0.11339565366506577,0.993287205696106,[0. 0. 0. 0. 0. 0. 0. 0. 0.],-0.18310546875,-0.732421875,0.0,[0. 0. 0. 0. 0. 0. 0. 0. 0.],-0.04248046875,0.015625,1.001953125,[0. 0. 0. 0. 0. 0. 0. 0. 0.]
1.2223436832427979,0.01048363372683525,0.02031587064266205,-0.11341620981693268,0.9932845234870911,[0. 0. 0. 0. 0. 0. 0. 0. 0.],0.244140625,-0.9765625,-0.1220703125,[0. 0. 0. 0. 0. 0. 0. 0. 0.],-0.04248046875,0.015625,1.00341796875,[0. 0. 0. 0. 0. 0. 0. 0. 0.]
1.2448697090148926,0.010189073160290718,0.020263271406292915,-0.11345277726650238,0.9932844638824463,[0. 0. 0. 0. 0. 0. 0. 0. 0.],-0.06103515625,-1.03759765625,-0.244140625,[0. 0. 0. 0. 0. 0. 0. 0. 0.],-0.04296875,0.015625,1.00390625,[0. 0. 0. 0. 0. 0. 0. 0. 0.]
1.2656173706054688,0.010075961239635944,0.019795097410678864,-0.11345364153385162,0.9932950139045715,[0. 0. 0. 0. 0. 0. 0. 0. 0.],-0.54931640625,-0.54931640625,0.1220703125,[0. 0. 0. 0. 0. 0. 0. 0. 0.],-0.0419921875,0.015625,1.0029296875,[0. 0. 0. 0. 0. 0. 0. 0. 0.]
1.2858586311340332,0.011034943163394928,0.01911776140332222,-0.11345791071653366,0.9932975172996521,[0. 0. 0. 0. 0. 0. 0. 0. 0.],0.0,-0.42724609375,0.06103515625,[0. 0. 0. 0. 0. 0. 0. 0. 0.],-0.041015625,0.017578125,1.0048828125,[0. 0. 0. 0. 0. 0. 0. 0. 0.]
1.3055870532989502,0.010235036723315716,0.019876426085829735,-0.11350387334823608,0.9932860732078552,[0. 0. 0. 0. 0. 0. 0. 0. 0.],0.244140625,-0.67138671875,-0.06103515625,[0. 0. 0. 0. 0. 0. 0. 0. 0.],-0.04150390625,0.01611328125,1.00390625,[0. 0. 0. 0. 0. 0. 0. 0. 0.]
1.3256871700286865,0.010304702445864677,0.018732083961367607,-0.11351588368415833,0.9933062195777893,[0. 0. 0. 0. 0. 0. 0. 0. 0.],-0.1220703125,-0.8544921875,-0.06103515625,[0. 0. 0. 0. 0. 0. 0. 0. 0.],-0.04052734375,0.0166015625,1.00244140625,[0. 0. 0. 0. 0. 0. 0. 0. 0.]
1.3468234539031982,0.010359128005802631,0.01927979849278927,-0.11355642229318619,0.9932904839515686,[0. 0. 0. 0. 0. 0. 0. 0. 0.],-0.244140625,-1.46484375,-0.3662109375,[0. 0. 0. 0. 0. 0. 0. 0. 0.],-0.04052734375,0.0166015625,1.00390625,[0. 0. 0. 0. 0. 0. 0. 0. 0.]
1.3652749061584473,0.011118503287434578,0.019783711060881615,-0.11356877535581589,0.9932708740234375,[0. 0. 0. 0. 0. 0. 0. 0. 0.],-0.06103515625,-0.30517578125,-0.06103515625,[0. 0. 0. 0. 0. 0. 0. 0. 0.],-0.0419921875,0.017578125,1.001953125,[0. 0. 0. 0. 0. 0. 0. 0. 0.]
1.3872380256652832,0.010985597968101501,0.02003808505833149,-0.11359034478664398,0.9932648539543152,[0. 0. 0. 0. 0. 0. 0. 0. 0.],-0.06103515625,-0.18310546875,0.06103515625,[0. 0. 0. 0. 0. 0. 0. 0. 0.],-0.0419921875,0.01708984375,1.00146484375,[0. 0. 0. 0. 0. 0. 0. 0. 0.]
1.4066619873046875,0.011092527769505978,0.01990007609128952,-0.11361771821975708,0.993263304233551,[0. 0. 0. 0. 0. 0. 0. 0. 0.],-0.18310546875,-0.54931640625,-0.18310546875,[0. 0. 0. 0. 0. 0. 0. 0. 0.],-0.04150390625,0.017578125,1.00341796875,[0. 0. 0. 0. 0. 0. 0. 0. 0.]
1.4256572723388672,0.010370131582021713,0.0195025447756052,-0.11365362256765366,0.9932749271392822,[0. 0. 0. 0. 0. 0. 0. 0. 0.],-0.06103515625,-1.0986328125,-0.18310546875,[0. 0. 0. 0. 0. 0. 0. 0. 0.],-0.04150390625,0.01611328125,1.00341796875,[0. 0. 0. 0. 0. 0. 0. 0. 0.]
1.445793867111206,0.011172988452017307,0.01879383809864521,-0.1136532872915268,0.9932799339294434,[0. 0. 0. 0. 0. 0. 0. 0. 0.],0.1220703125,-0.6103515625,-0.244140625,[0. 0. 0. 0. 0. 0. 0. 0. 0.],-0.0400390625,0.01806640625,1.00390625,[0. 0. 0. 0. 0. 0. 0. 0. 0.]
1.4664299488067627,0.010832670144736767,0.019037196412682533,-0.1137024536728859,0.9932733774185181,[0. 0. 0. 0. 0. 0. 0. 0. 0.],-0.06103515625,-0.42724609375,-0.244140625,[0. 0. 0. 0. 0. 0. 0. 0. 0.],-0.04052734375,0.01708984375,1.001953125,[0. 0. 0. 0. 0. 0. 0. 0. 0.]
1.4856388568878174,0.010429071262478828,0.019476132467389107,-0.11372815817594528,0.9932662844657898,[0. 0. 0. 0. 0. 0. 0. 0. 0.],-0.244140625,-0.48828125,0.06103515625,[0. 0. 0. 0. 0. 0. 0. 0. 0.],-0.0419921875,0.01611328125,1.0029296875,[0. 0. 0. 0. 0. 0. 0. 0. 0.]
1.5062038898468018,0.010001747868955135,0.01881854049861431,-0.11376722902059555,0.9932789206504822,[0. 0. 0. 0. 0. 0. 0. 0. 0.],0.1220703125,-0.67138671875,-0.18310546875,[0. 0. 0. 0. 0. 0. 0. 0. 0.],-0.0400390625,0.015625,1.00634765625,[0. 0. 0. 0. 0. 0. 0. 0. 0.]
1.5255987644195557,0.010521561838686466,0.019313737750053406,-0.11379089206457138,0.9932613372802734,[0. 0. 0. 0. 0. 0. 0. 0. 0.],0.1220703125,-0.6103515625,-0.244140625,[0. 0. 0. 0. 0. 0. 0. 0. 0.],-0.04052734375,0.0166015625,1.0048828125,[0. 0. 0. 0. 0. 0. 0. 0. 0.]
1.5467138290405273,0.009677654132246971,0.0197202879935503,-0.11382238566875458,0.9932582378387451,[0. 0. 0. 0. 0. 0. 0. 0. 0.],-0.1220703125,-0.91552734375,-0.1220703125,[0. 0. 0. 0. 0. 0. 0. 0. 0.],-0.04150390625,0.0146484375,1.00244140625,[0. 0. 0. 0. 0. 0. 0. 0. 0.]
1.565505027770996,0.010436071082949638,0.01892687752842903,-0.11381173878908157,0.993267297744751,[0. 0. 0. 0. 0. 0. 0. 0. 0.],-0.3662109375,-0.42724609375,-0.1220703125,[0. 0. 0. 0. 0. 0. 0. 0. 0.],-0.0400390625,0.0166015625,1.00244140625,[0. 0. 0. 0. 0. 0. 0. 0. 0.]
1.586543083190918,0.009772456251084805,0.019132403656840324,-0.11386697739362717,0.9932637214660645,[0. 0. 0. 0. 0. 0. 0. 0. 0.],-0.06103515625,-0.79345703125,-0.244140625,[0. 0. 0. 0. 0. 0. 0. 0. 0.],-0.04052734375,0.015625,1.0029296875,[0. 0. 0. 0. 0. 0. 0. 0. 0.]
1.605703353881836,0.010655418038368225,0.019272899255156517,-0.11388085037469864,0.9932503700256348,[0. 0. 0. 0. 0. 0. 0. 0. 0.],0.244140625,-0.8544921875,-0.18310546875,[0. 0. 0. 0. 0. 0. 0. 0. 0.],-0.041015625,0.01611328125,1.00341796875,[0. 0. 0. 0. 0. 0. 0. 0. 0.]
1.6258244514465332,0.009852566756308079,0.01987794041633606,-0.11393283307552338,0.9932407140731812,[0. 0. 0. 0. 0. 0. 0. 0. 0.],-0.06103515625,-0.732421875,-0.30517578125,[0. 0. 0. 0. 0. 0. 0. 0. 0.],-0.0419921875,0.01513671875,1.00341796875,[0. 0. 0. 0. 0. 0. 0. 0. 0.]
1.6458733081817627,0.011001471430063248,0.01903621107339859,-0.11393483728170395,0.993245005607605,[0. 0. 0. 0. 0. 0. 0. 0. 0.],-0.3662109375,-0.9765625,-0.18310546875,[0. 0. 0. 0. 0. 0. 0. 0. 0.],-0.04052734375,0.017578125,1.00048828125,[0. 0. 0. 0. 0. 0. 0. 0. 0.]
1.6626639366149902,0.010449306108057499,0.018890179693698883,-0.11397670954465866,0.9932489395141602,[0. 0. 0. 0. 0. 0. 0. 0. 0.],0.06103515625,-0.6103515625,-0.18310546875,[0. 0. 0. 0. 0. 0. 0. 0. 0.],-0.04052734375,0.0166015625,1.0029296875,[0. 0. 0. 0. 0. 0. 0. 0. 0.]
1.6859159469604492,0.010524764657020569,0.019073281437158585,-0.11399780213832855,0.9932422637939453,[0. 0. 0. 0. 0. 0. 0. 0. 0.],0.244140625,-0.1220703125,-0.06103515625,[0. 0. 0. 0. 0. 0. 0. 0. 0.],-0.04052734375,0.0166015625,1.00439453125,[0. 0. 0. 0. 0. 0. 0. 0. 0.]
1.7078685760498047,0.009968752041459084,0.01855604723095894,-0.11403176188468933,0.9932538270950317,[0. 0. 0. 0. 0. 0. 0. 0. 0.],-0.06103515625,-0.91552734375,-0.1220703125,[0. 0. 0. 0. 0. 0. 0. 0. 0.],-0.0400390625,0.015625,1.00439453125,[0. 0. 0. 0. 0. 0. 0. 0. 0.]
1.7205333709716797,0.010229427367448807,0.019268224015831947,-0.11406350880861282,0.9932339191436768,[0. 0. 0. 0. 0. 0. 0. 0. 0.],-0.30517578125,-1.0986328125,-0.244140625,[0. 0. 0. 0. 0. 0. 0. 0. 0.],-0.041015625,0.01611328125,1.00341796875,[0. 0. 0. 0. 0. 0. 0. 0. 0.]
1.7414681911468506,0.011003040708601475,0.019691573455929756,-0.11408377438783646,0.993215024471283,[0. 0. 0. 0. 0. 0. 0. 0. 0.],0.0,-0.54931640625,-0.244140625,[0. 0. 0. 0. 0. 0. 0. 0. 0.],-0.04150390625,0.017578125,1.00048828125,[0. 0. 0. 0. 0. 0. 0. 0. 0.]
1.7656114101409912,0.01117345504462719,0.02021929621696472,-0.11410824954509735,0.9931997656822205,[0. 0. 0. 0. 0. 0. 0. 0. 0.],0.06103515625,-0.06103515625,-0.1220703125,[0. 0. 0. 0. 0. 0. 0. 0. 0.],-0.04248046875,0.01708984375,1.001953125,[0. 0. 0. 0. 0. 0. 0. 0. 0.]
1.785733938217163,0.011028587818145752,0.019327325746417046,-0.11412957310676575,0.9932165741920471,[0. 0. 0. 0. 0. 0. 0. 0. 0.],-0.18310546875,-0.54931640625,-0.06103515625,[0. 0. 0. 0. 0. 0. 0. 0. 0.],-0.041015625,0.017578125,1.00146484375,[0. 0. 0. 0. 0. 0. 0. 0. 0.]
1.8054685592651367,0.010473250411450863,0.020017359405755997,-0.11418910324573517,0.9932021498680115,[0. 0. 0. 0. 0. 0. 0. 0. 0.],-0.06103515625,-0.91552734375,-0.3662109375,[0. 0. 0. 0. 0. 0. 0. 0. 0.],-0.0419921875,0.0166015625,1.001953125,[0. 0. 0. 0. 0. 0. 0. 0. 0.]
1.8205845355987549,0.010373561643064022,0.01944546215236187,-0.11422739923000336,0.9932101964950562,[0. 0. 0. 0. 0. 0. 0. 0. 0.],0.18310546875,-0.732421875,-0.30517578125,[0. 0. 0. 0. 0. 0. 0. 0. 0.],-0.041015625,0.01611328125,1.001953125,[0. 0. 0. 0. 0. 0. 0. 0. 0.]
1.846158742904663,0.010470961220562458,0.019193362444639206,-0.11424741894006729,0.9932117462158203,[0. 0. 0. 0. 0. 0. 0. 0. 0.],0.18310546875,-0.48828125,-0.1220703125,[0. 0. 0. 0. 0. 0. 0. 0. 0.],-0.041015625,0.0166015625,1.00439453125,[0. 0. 0. 0. 0. 0. 0. 0. 0.]
1.8655321598052979,0.011518346145749092,0.01959381438791752,-0.11425666511058807,0.9931913018226624,[0. 0. 0. 0. 0. 0. 0. 0. 0.],-0.48828125,-0.732421875,-0.30517578125,[0. 0. 0. 0. 0. 0. 0. 0. 0.],-0.04150390625,0.01806640625,1.00390625,[0. 0. 0. 0. 0. 0. 0. 0. 0.]
1.885854721069336,0.010286668315529823,0.018882164731621742,-0.11429474502801895,0.9932142496109009,[0. 0. 0. 0. 0. 0. 0. 0. 0.],0.0,-0.67138671875,-0.06103515625,[0. 0. 0. 0. 0. 0. 0. 0. 0.],-0.0400390625,0.01611328125,1.00244140625,[0. 0. 0. 0. 0. 0. 0. 0. 0.]
1.9023244380950928,0.00981148798018694,0.01934129372239113,-0.11433545500040054,0.9932055473327637,[0. 0. 0. 0. 0. 0. 0. 0. 0.],0.244140625,-0.79345703125,-0.1220703125,[0. 0. 0. 0. 0. 0. 0. 0. 0.],-0.0400390625,0.01513671875,1.00341796875,[0. 0. 0. 0. 0. 0. 0. 0. 0.]
1.9307315349578857,0.010844253934919834,0.019398842006921768,-0.11434084922075272,0.9931929111480713,[0. 0. 0. 0. 0. 0. 0. 0. 0.],-0.1220703125,-0.9765625,-0.244140625,[0. 0. 0. 0. 0. 0. 0. 0. 0.],-0.0419921875,0.0166015625,1.00244140625,[0. 0. 0. 0. 0. 0. 0. 0. 0.]
1.9456555843353271,0.011538253165781498,0.019211895763874054,-0.11434835940599442,0.9931880235671997,[0. 0. 0. 0. 0. 0. 0. 0. 0.],-0.30517578125,-1.03759765625,-0.18310546875,[0. 0. 0. 0. 0. 0. 0. 0. 0.],-0.04150390625,0.0185546875,1.0029296875,[0. 0. 0. 0. 0. 0. 0. 0. 0.]
1.9636976718902588,0.011484033428132534,0.018610531464219093,-0.11436590552330017,0.9931979775428772,[0. 0. 0. 0. 0. 0. 0. 0. 0.],-0.1220703125,-0.30517578125,-0.1220703125,[0. 0. 0. 0. 0. 0. 0. 0. 0.],-0.0400390625,0.0185546875,1.001953125,[0. 0. 0. 0. 0. 0. 0. 0. 0.]
1.9855620861053467,0.01100767869502306,0.019910963252186775,-0.11442382633686066,0.9931715130805969,[0. 0. 0. 0. 0. 0. 0. 0. 0.],0.244140625,-0.42724609375,-0.06103515625,[0. 0. 0. 0. 0. 0. 0. 0. 0.],-0.04296875,0.01708984375,1.001953125,[0. 0. 0. 0. 0. 0. 0. 0. 0.]
2.006592035293579,0.010124841704964638,0.019137049093842506,-0.11445885896682739,0.9931921362876892,[0. 0. 0. 0. 0. 0. 0. 0. 0.],-0.18310546875,-1.03759765625,-0.06103515625,[0. 0. 0. 0. 0. 0. 0. 0. 0.],-0.0400390625,0.015625,1.00244140625,[0. 0. 0. 0. 0. 0. 0. 0. 0.]
2.025698184967041,0.01077713817358017,0.01924935355782509,-0.11446535587310791,0.9931823015213013,[0. 0. 0. 0. 0. 0. 0. 0. 0.],-0.244140625,-1.0986328125,-0.244140625,[0. 0. 0. 0. 0. 0. 0. 0. 0.],-0.041015625,0.01708984375,1.00244140625,[0. 0. 0. 0. 0. 0. 0. 0. 0.]
2.0462820529937744,0.011130943894386292,0.020003819838166237,-0.11448224633932114,0.9931615591049194,[0. 0. 0. 0. 0. 0. 0. 0. 0.],0.0,-0.30517578125,-0.06103515625,[0. 0. 0. 0. 0. 0. 0. 0. 0.],-0.04248046875,0.017578125,1.0029296875,[0. 0. 0. 0. 0. 0. 0. 0. 0.]
2.065760374069214,0.010123705491423607,0.01995958387851715,-0.11454286426305771,0.9931662678718567,[0. 0. 0. 0. 0. 0. 0. 0. 0.],0.244140625,-0.1220703125,-0.06103515625,[0. 0. 0. 0. 0. 0. 0. 0. 0.],-0.0419921875,0.015625,1.00537109375,[0. 0. 0. 0. 0. 0. 0. 0. 0.]
2.0855400562286377,0.010349869728088379,0.019611379131674767,-0.1145525723695755,0.9931697249412537,[0. 0. 0. 0. 0. 0. 0. 0. 0.],-0.06103515625,-0.8544921875,-0.06103515625,[0. 0. 0. 0. 0. 0. 0. 0. 0.],-0.04150390625,0.01611328125,1.0029296875,[0. 0. 0. 0. 0. 0. 0. 0. 0.]
2.105769395828247,0.01079445332288742,0.019157087430357933,-0.11456333845853806,0.9931725859642029,[0. 0. 0. 0. 0. 0. 0. 0. 0.],-0.06103515625,-0.9765625,-0.06103515625,[0. 0. 0. 0. 0. 0. 0. 0. 0.],-0.041015625,0.01708984375,1.00341796875,[0. 0. 0. 0. 0. 0. 0. 0. 0.]
2.1254947185516357,0.010364707559347153,0.019965628162026405,-0.11460137367248535,0.9931568503379822,[0. 0. 0. 0. 0. 0. 0. 0. 0.],0.18310546875,-0.91552734375,-0.1220703125,[0. 0. 0. 0. 0. 0. 0. 0. 0.],-0.04150390625,0.01611328125,1.00244140625,[0. 0. 0. 0. 0. 0. 0. 0. 0.]
2.1456568241119385,0.011196432635188103,0.019819386303424835,-0.11460338532924652,0.993150532245636,[0. 0. 0. 0. 0. 0. 0. 0. 0.],0.0,-0.48828125,-0.06103515625,[0. 0. 0. 0. 0. 0. 0. 0. 0.],-0.04150390625,0.017578125,1.0029296875,[0. 0. 0. 0. 0. 0. 0. 0. 0.]
2.1659421920776367,0.01093269418925047,0.020374389365315437,-0.11465099453926086,0.9931367635726929,[0. 0. 0. 0. 0. 0. 0. 0. 0.],-0.54931640625,-0.79345703125,-0.30517578125,[0. 0. 0. 0. 0. 0. 0. 0. 0.],-0.04248046875,0.01708984375,1.0029296875,[0. 0. 0. 0. 0. 0. 0. 0. 0.]
2.188451051712036,0.011021962389349937,0.019089410081505775,-0.11466845124959946,0.9931592345237732,[0. 0. 0. 0. 0. 0. 0. 0. 0.],-0.1220703125,-0.244140625,-0.1220703125,[0. 0. 0. 0. 0. 0. 0. 0. 0.],-0.041015625,0.017578125,1.00146484375,[0. 0. 0. 0. 0. 0. 0. 0. 0.]
2.205861806869507,0.010330777615308762,0.0195888914167881,-0.1147165298461914,0.9931513667106628,[0. 0. 0. 0. 0. 0. 0. 0. 0.],0.244140625,-0.244140625,-0.06103515625,[0. 0. 0. 0. 0. 0. 0. 0. 0.],-0.041015625,0.0166015625,1.00341796875,[0. 0. 0. 0. 0. 0. 0. 0. 0.]
2.2257516384124756,0.010071616619825363,0.01928044855594635,-0.11474685370922089,0.9931566715240479,[0. 0. 0. 0. 0. 0. 0. 0. 0.],-0.06103515625,-0.91552734375,-0.18310546875,[0. 0. 0. 0. 0. 0. 0. 0. 0.],-0.041015625,0.015625,1.00244140625,[0. 0. 0. 0. 0. 0. 0. 0. 0.]
2.2475361824035645,0.010408538393676281,0.020328734070062637,-0.11476266384124756,0.9931303858757019,[0. 0. 0. 0. 0. 0. 0. 0. 0.],-0.54931640625,-0.8544921875,-0.1220703125,[0. 0. 0. 0. 0. 0. 0. 0. 0.],-0.04296875,0.01611328125,1.00146484375,[0. 0. 0. 0. 0. 0. 0. 0. 0.]
2.26588773727417,0.011141247116029263,0.019425861537456512,-0.11476997286081314,0.9931397438049316,[0. 0. 0. 0. 0. 0. 0. 0. 0.],-0.1220703125,-0.3662109375,-0.30517578125,[0. 0. 0. 0. 0. 0. 0. 0. 0.],-0.04150390625,0.017578125,1.00341796875,[0. 0. 0. 0. 0. 0. 0. 0. 0.]
2.2855560779571533,0.01058459747582674,0.019514771178364754,-0.11481653898954391,0.9931386113166809,[0. 0. 0. 0. 0. 0. 0. 0. 0.],0.06103515625,-0.06103515625,-0.1220703125,[0. 0. 0. 0. 0. 0. 0. 0. 0.],-0.04052734375,0.0166015625,1.00439453125,[0. 0. 0. 0. 0. 0. 0. 0. 0.]
2.30604887008667,0.01051414106041193,0.019001714885234833,-0.11483851820230484,0.9931468367576599,[0. 0. 0. 0. 0. 0. 0. 0. 0.],0.0,-1.03759765625,-0.1220703125,[0. 0. 0. 0. 0. 0. 0. 0. 0.],-0.04052734375,0.0166015625,1.00390625,[0. 0. 0. 0. 0. 0. 0. 0. 0.]
2.3262414932250977,0.01118635106831789,0.019447756931185722,-0.11484720557928085,0.9931297302246094,[0. 0. 0. 0. 0. 0. 0. 0. 0.],-0.30517578125,-1.220703125,-0.244140625,[0. 0. 0. 0. 0. 0. 0. 0. 0.],-0.041015625,0.017578125,1.00390625,[0. 0. 0. 0. 0. 0. 0. 0. 0.]
2.345670223236084,0.010675654746592045,0.018625596538186073,-0.11487582325935364,0.9931479096412659,[0. 0. 0. 0. 0. 0. 0. 0. 0.],-0.1220703125,-0.42724609375,-0.18310546875,[0. 0. 0. 0. 0. 0. 0. 0. 0.],-0.0400390625,0.01708984375,1.0048828125,[0. 0. 0. 0. 0. 0. 0. 0. 0.]
2.3661458492279053,0.010371359065175056,0.019794151186943054,-0.11492033302783966,0.9931233525276184,[0. 0. 0. 0. 0. 0. 0. 0. 0.],-0.06103515625,-0.30517578125,-0.1220703125,[0. 0. 0. 0. 0. 0. 0. 0. 0.],-0.0419921875,0.01611328125,1.00390625,[0. 0. 0. 0. 0. 0. 0. 0. 0.]
2.3907721042633057,0.011203428730368614,0.01929858885705471,-0.11491616815328598,0.9931246042251587,[0. 0. 0. 0. 0. 0. 0. 0. 0.],-0.30517578125,-0.42724609375,0.0,[0. 0. 0. 0. 0. 0. 0. 0. 0.],-0.041015625,0.01806640625,1.0029296875,[0. 0. 0. 0. 0. 0. 0. 0. 0.]
2.405658483505249,0.010892455466091633,0.01947591081261635,-0.1149454340338707,0.9931211471557617,[0. 0. 0. 0. 0. 0. 0. 0. 0.],-0.3662109375,-1.15966796875,-0.18310546875,[0. 0. 0. 0. 0. 0. 0. 0. 0.],-0.04150390625,0.01708984375,1.001953125,[0. 0. 0. 0. 0. 0. 0. 0. 0.]
2.4256515502929688,0.010003219358623028,0.019296500831842422,-0.11499211192131042,0.9931285977363586,[0. 0. 0. 0. 0. 0. 0. 0. 0.],0.06103515625,-0.732421875,-0.3662109375,[0. 0. 0. 0. 0. 0. 0. 0. 0.],-0.041015625,0.015625,1.00390625,[0. 0. 0. 0. 0. 0. 0. 0. 0.]
2.445560932159424,0.009942347183823586,0.0183548703789711,-0.11500135809183121,0.9931460618972778,[0. 0. 0. 0. 0. 0. 0. 0. 0.],-0.06103515625,-0.1220703125,-0.1220703125,[0. 0. 0. 0. 0. 0. 0. 0. 0.],-0.03955078125,0.015625,1.00390625,[0. 0. 0. 0. 0. 0. 0. 0. 0.]
2.4656267166137695,0.010536130517721176,0.01964554935693741,-0.11502181738615036,0.9931128621101379,[0. 0. 0. 0. 0. 0. 0. 0. 0.],-0.244140625,-0.42724609375,-0.06103515625,[0. 0. 0. 0. 0. 0. 0. 0. 0.],-0.04150390625,0.01611328125,1.0029296875,[0. 0. 0. 0. 0. 0. 0. 0. 0.]
2.48572039604187,0.010838720947504044,0.02007787674665451,-0.11504516750574112,0.993098258972168,[0. 0. 0. 0. 0. 0. 0. 0. 0.],-0.18310546875,-0.9765625,-0.1220703125,[0. 0. 0. 0. 0. 0. 0. 0. 0.],-0.04248046875,0.0166015625,1.0029296875,[0. 0. 0. 0. 0. 0. 0. 0. 0.]
2.5054895877838135,0.011299695819616318,0.019255558028817177,-0.11506623774766922,0.9931069612503052,[0. 0. 0. 0. 0. 0. 0. 0. 0.],0.244140625,-0.732421875,-0.244140625,[0. 0. 0. 0. 0. 0. 0. 0. 0.],-0.04150390625,0.01806640625,1.0029296875,[0. 0. 0. 0. 0. 0. 0. 0. 0.]
2.5257651805877686,0.010601664893329144,0.019500279799103737,-0.1151115819811821,0.9931045174598694,[0. 0. 0. 0. 0. 0. 0. 0. 0.],0.0,-0.91552734375,-0.18310546875,[0. 0. 0. 0. 0. 0. 0. 0. 0.],-0.04150390625,0.0166015625,1.00341796875,[0. 0. 0. 0. 0. 0. 0. 0. 0.]
2.54197096824646,0.010896958410739899,0.019661299884319305,-0.11511919647455215,0.9930973052978516,[0. 0. 0. 0. 0. 0. 0. 0. 0.],-0.42724609375,-0.8544921875,-0.18310546875,[0. 0. 0. 0. 0. 0. 0. 0. 0.],-0.0419921875,0.0166015625,1.00244140625,[0. 0. 0. 0. 0. 0. 0. 0. 0.]
2.567039966583252,0.0108454255387187,0.019884498789906502,-0.11516068875789642,0.9930886030197144,[0. 0. 0. 0. 0. 0. 0. 0. 0.],0.0,-0.6103515625,-0.30517578125,[0. 0. 0. 0. 0. 0. 0. 0. 0.],-0.04248046875,0.01708984375,1.00390625,[0. 0. 0. 0. 0. 0. 0. 0. 0.]
2.5858261585235596,0.010456142947077751,0.0200921893119812,-0.1151810809969902,0.9930862784385681,[0. 0. 0. 0. 0. 0. 0. 0. 0.],0.244140625,-0.244140625,0.06103515625,[0. 0. 0. 0. 0. 0. 0. 0. 0.],-0.04248046875,0.01611328125,1.00537109375,[0. 0. 0. 0. 0. 0. 0. 0. 0.]
2.6057300567626953,0.009531344287097454,0.019902149215340614,-0.11522700637578964,0.9930940866470337,[0. 0. 0. 0. 0. 0. 0. 0. 0.],0.0,-0.8544921875,-0.30517578125,[0. 0. 0. 0. 0. 0. 0. 0. 0.],-0.04248046875,0.0146484375,1.0048828125,[0. 0. 0. 0. 0. 0. 0. 0. 0.]
2.6273839473724365,0.010013213381171227,0.0193032156676054,-0.11522495746612549,0.9931014180183411,[0. 0. 0. 0. 0. 0. 0. 0. 0.],-0.30517578125,-1.15966796875,-0.18310546875,[0. 0. 0. 0. 0. 0. 0. 0. 0.],-0.041015625,0.015625,1.00537109375,[0. 0. 0. 0. 0. 0. 0. 0. 0.]
2.645949363708496,0.010594520717859268,0.019080225378274918,-0.11523683369159698,0.993098258972168,[0. 0. 0. 0. 0. 0. 0. 0. 0.],0.0,-0.67138671875,-0.244140625,[0. 0. 0. 0. 0. 0. 0. 0. 0.],-0.0400390625,0.0166015625,1.0009765625,[0. 0. 0. 0. 0. 0. 0. 0. 0.]
2.667353391647339,0.010736394673585892,0.019358739256858826,-0.11523842066526413,0.9930911660194397,[0. 0. 0. 0. 0. 0. 0. 0. 0.],0.06103515625,-0.18310546875,0.1220703125,[0. 0. 0. 0. 0. 0. 0. 0. 0.],-0.041015625,0.01611328125,1.001953125,[0. 0. 0. 0. 0. 0. 0. 0. 0.]
2.6864635944366455,0.010569391772150993,0.019300563260912895,-0.11526716500520706,0.993090808391571,[0. 0. 0. 0. 0. 0. 0. 0. 0.],0.0,-0.732421875,-0.1220703125,[0. 0. 0. 0. 0. 0. 0. 0. 0.],-0.041015625,0.0166015625,1.0048828125,[0. 0. 0. 0. 0. 0. 0. 0. 0.]
2.706631660461426,0.010576474480330944,0.020102299749851227,-0.115306057035923,0.9930703043937683,[0. 0. 0. 0. 0. 0. 0. 0. 0.],-0.1220703125,-1.3427734375,-0.30517578125,[0. 0. 0. 0. 0. 0. 0. 0. 0.],-0.0419921875,0.0166015625,1.0048828125,[0. 0. 0. 0. 0. 0. 0. 0. 0.]
2.7260613441467285,0.010060233063995838,0.019576678052544594,-0.11535106599330902,0.9930809140205383,[0. 0. 0. 0. 0. 0. 0. 0. 0.],0.1220703125,-0.732421875,-0.244140625,[0. 0. 0. 0. 0. 0. 0. 0. 0.],-0.04150390625,0.015625,1.001953125,[0. 0. 0. 0. 0. 0. 0. 0. 0.]
2.746654510498047,0.010679514147341251,0.019059058278799057,-0.11536873131990433,0.9930824637413025,[0. 0. 0. 0. 0. 0. 0. 0. 0.],0.06103515625,-0.732421875,-0.18310546875,[0. 0. 0. 0. 0. 0. 0. 0. 0.],-0.04052734375,0.01708984375,1.0029296875,[0. 0. 0. 0. 0. 0. 0. 0. 0.]
2.7657692432403564,0.010875864885747433,0.018408771604299545,-0.11536730825901031,0.9930927753448486,[0. 0. 0. 0. 0. 0. 0. 0. 0.],-0.3662109375,-0.42724609375,0.06103515625,[0. 0. 0. 0. 0. 0. 0. 0. 0.],-0.03955078125,0.01806640625,1.00390625,[0. 0. 0. 0. 0. 0. 0. 0. 0.]
2.7865853309631348,0.010168957524001598,0.019069617614150047,-0.11540365219116211,0.993083655834198,[0. 0. 0. 0. 0. 0. 0. 0. 0.],-0.1220703125,-0.67138671875,-0.1220703125,[0. 0. 0. 0. 0. 0. 0. 0. 0.],-0.041015625,0.01611328125,1.005859375,[0. 0. 0. 0. 0. 0. 0. 0. 0.]
2.8070218563079834,0.01091083139181137,0.019817303866147995,-0.11543943732976913,0.9930568933486938,[0. 0. 0. 0. 0. 0. 0. 0. 0.],0.244140625,-0.42724609375,-0.244140625,[0. 0. 0. 0. 0. 0. 0. 0. 0.],-0.0419921875,0.01708984375,1.00244140625,[0. 0. 0. 0. 0. 0. 0. 0. 0.]
2.8255879878997803,0.010960899293422699,0.020357633009552956,-0.11545734852552414,0.9930433630943298,[0. 0. 0. 0. 0. 0. 0. 0. 0.],0.1220703125,-0.67138671875,-0.1220703125,[0. 0. 0. 0. 0. 0. 0. 0. 0.],-0.04248046875,0.01708984375,1.00244140625,[0. 0. 0. 0. 0. 0. 0. 0. 0.]
2.8456053733825684,0.011327531188726425,0.01938544772565365,-0.11546532809734344,0.9930577278137207,[0. 0. 0. 0. 0. 0. 0. 0. 0.],-0.3662109375,-0.54931640625,-0.244140625,[0. 0. 0. 0. 0. 0. 0. 0. 0.],-0.04150390625,0.01806640625,1.00439453125,[0. 0. 0. 0. 0. 0. 0. 0. 0.]
2.865631341934204,0.010774213820695877,0.019779348745942116,-0.11550562083721161,0.9930514693260193,[0. 0. 0. 0. 0. 0. 0. 0. 0.],-0.18310546875,-0.48828125,-0.1220703125,[0. 0. 0. 0. 0. 0. 0. 0. 0.],-0.0419921875,0.017578125,1.00146484375,[0. 0. 0. 0. 0. 0. 0. 0. 0.]
2.885557174682617,0.010848837904632092,0.019937263801693916,-0.11555605381727219,0.9930415749549866,[0. 0. 0. 0. 0. 0. 0. 0. 0.],0.3662109375,-0.6103515625,-0.244140625,[0. 0. 0. 0. 0. 0. 0. 0. 0.],-0.0419921875,0.01708984375,1.00390625,[0. 0. 0. 0. 0. 0. 0. 0. 0.]
2.9083611965179443,0.011067281477153301,0.01972583867609501,-0.11557306349277496,0.9930413961410522,[0. 0. 0. 0. 0. 0. 0. 0. 0.],0.06103515625,-0.91552734375,-0.244140625,[0. 0. 0. 0. 0. 0. 0. 0. 0.],-0.04150390625,0.01708984375,1.00634765625,[0. 0. 0. 0. 0. 0. 0. 0. 0.]
2.9256985187530518,0.010991127230226994,0.019963733851909637,-0.1156061515212059,0.9930337071418762,[0. 0. 0. 0. 0. 0. 0. 0. 0.],-0.48828125,-0.9765625,-0.1220703125,[0. 0. 0. 0. 0. 0. 0. 0. 0.],-0.04248046875,0.017578125,1.00537109375,[0. 0. 0. 0. 0. 0. 0. 0. 0.]
2.9458136558532715,0.010568823665380478,0.019631296396255493,-0.1156424880027771,0.9930406808853149,[0. 0. 0. 0. 0. 0. 0. 0. 0.],-0.1220703125,-0.42724609375,-0.244140625,[0. 0. 0. 0. 0. 0. 0. 0. 0.],-0.04150390625,0.0166015625,1.00244140625,[0. 0. 0. 0. 0. 0. 0. 0. 0.]
2.9655261039733887,0.011431935243308544,0.019669784232974052,-0.11565729975700378,0.9930286407470703,[0. 0. 0. 0. 0. 0. 0. 0. 0.],0.1220703125,-0.30517578125,-0.1220703125,[0. 0. 0. 0. 0. 0. 0. 0. 0.],-0.0419921875,0.017578125,1.00146484375,[0. 0. 0. 0. 0. 0. 0. 0. 0.]
2.9855284690856934,0.009878347627818584,0.019191192463040352,-0.1157166063785553,0.9930477142333984,[0. 0. 0. 0. 0. 0. 0. 0. 0.],0.06103515625,-0.8544921875,-0.18310546875,[0. 0. 0. 0. 0. 0. 0. 0. 0.],-0.04052734375,0.01513671875,1.0009765625,[0. 0. 0. 0. 0. 0. 0. 0. 0.]
3.0055954456329346,0.009713510051369667,0.018923964351415634,-0.11574722826480865,0.9930509924888611,[0. 0. 0. 0. 0. 0. 0. 0. 0.],-0.244140625,-1.220703125,-0.30517578125,[0. 0. 0. 0. 0. 0. 0. 0. 0.],-0.04052734375,0.01416015625,1.00439453125,[0. 0. 0. 0. 0. 0. 0. 0. 0.]
3.025634288787842,0.010314321145415306,0.019753221422433853,-0.1157655343413353,0.993026614189148,[0. 0. 0. 0. 0. 0. 0. 0. 0.],-0.1220703125,-0.54931640625,-0.18310546875,[0. 0. 0. 0. 0. 0. 0. 0. 0.],-0.0419921875,0.01611328125,1.0048828125,[0. 0. 0. 0. 0. 0. 0. 0. 0.]
3.0456674098968506,0.01041883323341608,0.019585048779845238,-0.11577951908111572,0.9930272102355957,[0. 0. 0. 0. 0. 0. 0. 0. 0.],0.0,-0.42724609375,-0.1220703125,[0. 0. 0. 0. 0. 0. 0. 0. 0.],-0.04150390625,0.0166015625,1.005859375,[0. 0. 0. 0. 0. 0. 0. 0. 0.]
3.065534830093384,0.01044757291674614,0.019358264282345772,-0.11579133570194244,0.9930299520492554,[0. 0. 0. 0. 0. 0. 0. 0. 0.],-0.30517578125,-0.48828125,-0.1220703125,[0. 0. 0. 0. 0. 0. 0. 0. 0.],-0.041015625,0.0166015625,1.00146484375,[0. 0. 0. 0. 0. 0. 0. 0. 0.]
3.090345621109009,0.010964046232402325,0.01951015740633011,-0.11581142991781235,0.9930191040039062,[0. 0. 0. 0. 0. 0. 0. 0. 0.],-0.244140625,-0.42724609375,-0.244140625,[0. 0. 0. 0. 0. 0. 0. 0. 0.],-0.04052734375,0.0166015625,1.00341796875,[0. 0. 0. 0. 0. 0. 0. 0. 0.]
3.1055853366851807,0.011455263011157513,0.019490720704197884,-0.11583548784255981,0.9930111169815063,[0. 0. 0. 0. 0. 0. 0. 0. 0.],0.30517578125,-0.244140625,-0.18310546875,[0. 0. 0. 0. 0. 0. 0. 0. 0.],-0.04150390625,0.0185546875,1.0048828125,[0. 0. 0. 0. 0. 0. 0. 0. 0.]
3.128326654434204,0.011651705950498581,0.019346587359905243,-0.11584459990262985,0.9930105805397034,[0. 0. 0. 0. 0. 0. 0. 0. 0.],0.0,-0.79345703125,-0.18310546875,[0. 0. 0. 0. 0. 0. 0. 0. 0.],-0.04052734375,0.01904296875,1.00390625,[0. 0. 0. 0. 0. 0. 0. 0. 0.]
3.1464178562164307,0.010528343729674816,0.019512586295604706,-0.11590418219566345,0.9930129647254944,[0. 0. 0. 0. 0. 0. 0. 0. 0.],-0.244140625,-1.0986328125,-0.244140625,[0. 0. 0. 0. 0. 0. 0. 0. 0.],-0.041015625,0.01708984375,1.0029296875,[0. 0. 0. 0. 0. 0. 0. 0. 0.]
3.1655330657958984,0.010095803067088127,0.019573921337723732,-0.1159302219748497,0.9930132031440735,[0. 0. 0. 0. 0. 0. 0. 0. 0.],-0.1220703125,-0.42724609375,-0.06103515625,[0. 0. 0. 0. 0. 0. 0. 0. 0.],-0.04150390625,0.015625,1.0048828125,[0. 0. 0. 0. 0. 0. 0. 0. 0.]
3.1853950023651123,0.010922739282250404,0.019073110073804855,-0.11594122648239136,0.9930129647254944,[0. 0. 0. 0. 0. 0. 0. 0. 0.],0.06103515625,-0.06103515625,-0.06103515625,[0. 0. 0. 0. 0. 0. 0. 0. 0.],-0.04052734375,0.0166015625,1.00390625,[0. 0. 0. 0. 0. 0. 0. 0. 0.]
3.205915689468384,0.010373667813837528,0.019533416256308556,-0.11596821248531342,0.993006706237793,[0. 0. 0. 0. 0. 0. 0. 0. 0.],0.0,-0.91552734375,-0.1220703125,[0. 0. 0. 0. 0. 0. 0. 0. 0.],-0.04150390625,0.01611328125,1.00390625,[0. 0. 0. 0. 0. 0. 0. 0. 0.]
3.22554087638855,0.0101572684943676,0.01952151581645012,-0.11598654091358185,0.9930070042610168,[0. 0. 0. 0. 0. 0. 0. 0. 0.],-0.30517578125,-1.03759765625,-0.06103515625,[0. 0. 0. 0. 0. 0. 0. 0. 0.],-0.041015625,0.01611328125,1.00244140625,[0. 0. 0. 0. 0. 0. 0. 0. 0.]
3.2456090450286865,0.010580778121948242,0.01951451413333416,-0.11600508540868759,0.9930005669593811,[0. 0. 0. 0. 0. 0. 0. 0. 0.],0.0,-0.48828125,-0.1220703125,[0. 0. 0. 0. 0. 0. 0. 0. 0.],-0.0419921875,0.01708984375,1.0029296875,[0. 0. 0. 0. 0. 0. 0. 0. 0.]
3.2658801078796387,0.010613266378641129,0.019322732463479042,-0.11602333188056946,0.9930018782615662,[0. 0. 0. 0. 0. 0. 0. 0. 0.],0.1220703125,-0.06103515625,0.0,[0. 0. 0. 0. 0. 0. 0. 0. 0.],-0.041015625,0.0166015625,1.00439453125,[0. 0. 0. 0. 0. 0. 0. 0. 0.]
3.2870450019836426,0.010314255952835083,0.01928599551320076,-0.11605703830718994,0.9930017590522766,[0. 0. 0. 0. 0. 0. 0. 0. 0.],-0.244140625,-0.54931640625,0.0,[0. 0. 0. 0. 0. 0. 0. 0. 0.],-0.041015625,0.01611328125,1.00439453125,[0. 0. 0. 0. 0. 0. 0. 0. 0.]
3.3055691719055176,0.010010517202317715,0.019584091380238533,-0.11609440296888351,0.9929946660995483,[0. 0. 0. 0. 0. 0. 0. 0. 0.],-0.244140625,-1.03759765625,-0.30517578125,[0. 0. 0. 0. 0. 0. 0. 0. 0.],-0.04150390625,0.01513671875,1.00244140625,[0. 0. 0. 0. 0. 0. 0. 0. 0.]
3.3268609046936035,0.00967765599489212,0.018667591735720634,-0.11612231284379959,0.9930123090744019,[0. 0. 0. 0. 0. 0. 0. 0. 0.],0.244140625,-0.8544921875,-0.1220703125,[0. 0. 0. 0. 0. 0. 0. 0. 0.],-0.0400390625,0.01513671875,1.001953125,[0. 0. 0. 0. 0. 0. 0. 0. 0.]
3.3456156253814697,0.010113324970006943,0.019361624494194984,-0.11612612754106522,0.9929943084716797,[0. 0. 0. 0. 0. 0. 0. 0. 0.],0.18310546875,-0.18310546875,-0.06103515625,[0. 0. 0. 0. 0. 0. 0. 0. 0.],-0.041015625,0.015625,1.00390625,[0. 0. 0. 0. 0. 0. 0. 0. 0.]
3.365889310836792,0.010855438187718391,0.019810037687420845,-0.11614758521318436,0.9929750561714172,[0. 0. 0. 0. 0. 0. 0. 0. 0.],-0.1220703125,-0.3662109375,-0.18310546875,[0. 0. 0. 0. 0. 0. 0. 0. 0.],-0.0419921875,0.0166015625,1.0029296875,[0. 0. 0. 0. 0. 0. 0. 0. 0.]
3.3857457637786865,0.010433138348162174,0.020061951130628586,-0.11618246138095856,0.9929704070091248,[0. 0. 0. 0. 0. 0. 0. 0. 0.],-0.1220703125,-0.54931640625,-0.1220703125,[0. 0. 0. 0. 0. 0. 0. 0. 0.],-0.0419921875,0.01611328125,1.001953125,[0. 0. 0. 0. 0. 0. 0. 0. 0.]
3.4057226181030273,0.010616584680974483,0.01954817771911621,-0.11621834337711334,0.9929745197296143,[0. 0. 0. 0. 0. 0. 0. 0. 0.],0.42724609375,-0.91552734375,-0.30517578125,[0. 0. 0. 0. 0. 0. 0. 0. 0.],-0.041015625,0.0166015625,1.001953125,[0. 0. 0. 0. 0. 0. 0. 0. 0.]
3.428942918777466,0.010059471242129803,0.019165849313139915,-0.11624962091445923,0.9929841756820679,[0. 0. 0. 0. 0. 0. 0. 0. 0.],0.0,-0.54931640625,-0.244140625,[0. 0. 0. 0. 0. 0. 0. 0. 0.],-0.041015625,0.015625,1.00341796875,[0. 0. 0. 0. 0. 0. 0. 0. 0.]
3.445844888687134,0.009912319481372833,0.019466960802674294,-0.11626946926116943,0.992977499961853,[0. 0. 0. 0. 0. 0. 0. 0. 0.],-0.3662109375,-0.48828125,-0.06103515625,[0. 0. 0. 0. 0. 0. 0. 0. 0.],-0.04150390625,0.015625,1.00341796875,[0. 0. 0. 0. 0. 0. 0. 0. 0.]
3.465888738632202,0.009695528075098991,0.018805239349603653,-0.11629006266593933,0.9929899573326111,[0. 0. 0. 0. 0. 0. 0. 0. 0.],-0.1220703125,-0.54931640625,-0.06103515625,[0. 0. 0. 0. 0. 0. 0. 0. 0.],-0.0400390625,0.01513671875,1.0068359375,[0. 0. 0. 0. 0. 0. 0. 0. 0.]
3.4857852458953857,0.010838627815246582,0.01950686052441597,-0.11631999909877777,0.992961049079895,[0. 0. 0. 0. 0. 0. 0. 0. 0.],0.18310546875,-0.18310546875,-0.18310546875,[0. 0. 0. 0. 0. 0. 0. 0. 0.],-0.0419921875,0.017578125,1.00146484375,[0. 0. 0. 0. 0. 0. 0. 0. 0.]
3.506131410598755,0.010509083047509193,0.020042642951011658,-0.11636484414339066,0.9929487705230713,[0. 0. 0. 0. 0. 0. 0. 0. 0.],-0.06103515625,-0.91552734375,-0.18310546875,[0. 0. 0. 0. 0. 0. 0. 0. 0.],-0.04248046875,0.01611328125,1.00390625,[0. 0. 0. 0. 0. 0. 0. 0. 0.]
3.526172399520874,0.01045957487076521,0.01904151774942875,-0.11638440191745758,0.9929666519165039,[0. 0. 0. 0. 0. 0. 0. 0. 0.],-0.3662109375,-1.15966796875,-0.18310546875,[0. 0. 0. 0. 0. 0. 0. 0. 0.],-0.04052734375,0.0166015625,1.001953125,[0. 0. 0. 0. 0. 0. 0. 0. 0.]
3.5457353591918945,0.01155787706375122,0.01991685852408409,-0.11639141291379929,0.9929364919662476,[0. 0. 0. 0. 0. 0. 0. 0. 0.],-0.18310546875,-0.6103515625,-0.244140625,[0. 0. 0. 0. 0. 0. 0. 0. 0.],-0.0419921875,0.0185546875,1.001953125,[0. 0. 0. 0. 0. 0. 0. 0. 0.]
3.5656685829162598,0.010635371319949627,0.019570279866456985,-0.11644541472196579,0.9929473400115967,[0. 0. 0. 0. 0. 0. 0. 0. 0.],0.06103515625,-0.244140625,-0.18310546875,[0. 0. 0. 0. 0. 0. 0. 0. 0.],-0.04150390625,0.0166015625,1.0029296875,[0. 0. 0. 0. 0. 0. 0. 0. 0.]
3.5848560333251953,0.010201993398368359,0.020336348563432693,-0.11647819727659225,0.9929326176643372,[0. 0. 0. 0. 0. 0. 0. 0. 0.],-0.244140625,-0.3662109375,-0.06103515625,[0. 0. 0. 0. 0. 0. 0. 0. 0.],-0.04296875,0.015625,1.00244140625,[0. 0. 0. 0. 0. 0. 0. 0. 0.]
3.6057889461517334,0.010705992579460144,0.019625378772616386,-0.11648386716842651,0.9929409623146057,[0. 0. 0. 0. 0. 0. 0. 0. 0.],-0.18310546875,-0.79345703125,-0.1220703125,[0. 0. 0. 0. 0. 0. 0. 0. 0.],-0.04150390625,0.0166015625,1.00244140625,[0. 0. 0. 0. 0. 0. 0. 0. 0.]
3.6259353160858154,0.010072615928947926,0.019099880009889603,-0.1165306493639946,0.9929524660110474,[0. 0. 0. 0. 0. 0. 0. 0. 0.],0.244140625,-0.79345703125,-0.244140625,[0. 0. 0. 0. 0. 0. 0. 0. 0.],-0.04052734375,0.015625,1.00341796875,[0. 0. 0. 0. 0. 0. 0. 0. 0.]
3.6498725414276123,0.011796019971370697,0.019189974293112755,-0.11651357263326645,0.9929336905479431,[0. 0. 0. 0. 0. 0. 0. 0. 0.],-0.1220703125,-0.67138671875,-0.1220703125,[0. 0. 0. 0. 0. 0. 0. 0. 0.],-0.041015625,0.01953125,1.0048828125,[0. 0. 0. 0. 0. 0. 0. 0. 0.]
3.6658570766448975,0.011360729113221169,0.01888721063733101,-0.11654074490070343,0.9929414391517639,[0. 0. 0. 0. 0. 0. 0. 0. 0.],-0.30517578125,-0.42724609375,-0.18310546875,[0. 0. 0. 0. 0. 0. 0. 0. 0.],-0.04052734375,0.01806640625,1.005859375,[0. 0. 0. 0. 0. 0. 0. 0. 0.]
3.68072772026062,0.011305796913802624,0.019944842904806137,-0.11657215654850006,0.9929176568984985,[0. 0. 0. 0. 0. 0. 0. 0. 0.],-0.18310546875,-0.732421875,-0.06103515625,[0. 0. 0. 0. 0. 0. 0. 0. 0.],-0.04248046875,0.017578125,1.00341796875,[0. 0. 0. 0. 0. 0. 0. 0. 0.]
3.705871820449829,0.010266251862049103,0.01988881267607212,-0.11661075055599213,0.9929254055023193,[0. 0. 0. 0. 0. 0. 0. 0. 0.],0.18310546875,-0.54931640625,-0.06103515625,[0. 0. 0. 0. 0. 0. 0. 0. 0.],-0.04150390625,0.01611328125,1.0009765625,[0. 0. 0. 0. 0. 0. 0. 0. 0.]
3.7257237434387207,0.011046369560062885,0.01913771964609623,-0.1166059747338295,0.9929324388504028,[0. 0. 0. 0. 0. 0. 0. 0. 0.],0.0,-0.732421875,-0.1220703125,[0. 0. 0. 0. 0. 0. 0. 0. 0.],-0.04052734375,0.01708984375,1.00146484375,[0. 0. 0. 0. 0. 0. 0. 0. 0.]
3.745509147644043,0.010382374748587608,0.019597817212343216,-0.1166457086801529,0.9929260015487671,[0. 0. 0. 0. 0. 0. 0. 0. 0.],-0.42724609375,-0.54931640625,-0.1220703125,[0. 0. 0. 0. 0. 0. 0. 0. 0.],-0.04150390625,0.01611328125,1.001953125,[0. 0. 0. 0. 0. 0. 0. 0. 0.]
3.7655646800994873,0.010525190271437168,0.01986444741487503,-0.11666613817214966,0.9929167628288269,[0. 0. 0. 0. 0. 0. 0. 0. 0.],-0.244140625,-0.48828125,-0.1220703125,[0. 0. 0. 0. 0. 0. 0. 0. 0.],-0.0419921875,0.015625,1.0029296875,[0. 0. 0. 0. 0. 0. 0. 0. 0.]
3.7870476245880127,0.010527603328227997,0.019738761708140373,-0.1167040467262268,0.9929147362709045,[0. 0. 0. 0. 0. 0. 0. 0. 0.],0.244140625,-0.6103515625,-0.18310546875,[0. 0. 0. 0. 0. 0. 0. 0. 0.],-0.041015625,0.0166015625,1.00390625,[0. 0. 0. 0. 0. 0. 0. 0. 0.]
3.8057336807250977,0.010656205005943775,0.0200519897043705,-0.11674919724464417,0.9929018020629883,[0. 0. 0. 0. 0. 0. 0. 0. 0.],0.06103515625,-0.8544921875,-0.1220703125,[0. 0. 0. 0. 0. 0. 0. 0. 0.],-0.04248046875,0.01708984375,1.00146484375,[0. 0. 0. 0. 0. 0. 0. 0. 0.]
3.825521230697632,0.011058825068175793,0.019762324169278145,-0.11675653606653214,0.9929023385047913,[0. 0. 0. 0. 0. 0. 0. 0. 0.],-0.3662109375,-0.79345703125,-0.18310546875,[0. 0. 0. 0. 0. 0. 0. 0. 0.],-0.04150390625,0.017578125,1.001953125,[0. 0. 0. 0. 0. 0. 0. 0. 0.]
3.8456053733825684,0.010656563565135002,0.019746331498026848,-0.11679106950759888,0.9929029941558838,[0. 0. 0. 0. 0. 0. 0. 0. 0.],-0.244140625,-0.42724609375,-0.1220703125,[0. 0. 0. 0. 0. 0. 0. 0. 0.],-0.04150390625,0.01611328125,1.00439453125,[0. 0. 0. 0. 0. 0. 0. 0. 0.]
3.8657524585723877,0.010943485423922539,0.019972926005721092,-0.11682382225990295,0.9928914904594421,[0. 0. 0. 0. 0. 0. 0. 0. 0.],0.30517578125,-0.48828125,-0.1220703125,[0. 0. 0. 0. 0. 0. 0. 0. 0.],-0.04248046875,0.01708984375,1.00390625,[0. 0. 0. 0. 0. 0. 0. 0. 0.]
3.881591558456421,0.009940668009221554,0.018952663987874985,-0.11685629934072495,0.9929182529449463,[0. 0. 0. 0. 0. 0. 0. 0. 0.],0.1220703125,-0.79345703125,0.1220703125,[0. 0. 0. 0. 0. 0. 0. 0. 0.],-0.0400390625,0.015625,1.001953125,[0. 0. 0. 0. 0. 0. 0. 0. 0.]
3.9055590629577637,0.010520980693399906,0.018984828144311905,-0.11687904596328735,0.9929090142250061,[0. 0. 0. 0. 0. 0. 0. 0. 0.],-0.30517578125,-1.0986328125,-0.18310546875,[0. 0. 0. 0. 0. 0. 0. 0. 0.],-0.041015625,0.0166015625,1.0048828125,[0. 0. 0. 0. 0. 0. 0. 0. 0.]
3.9254043102264404,0.010428745299577713,0.01911253295838833,-0.11691772937774658,0.992902934551239,[0. 0. 0. 0. 0. 0. 0. 0. 0.],0.0,-0.91552734375,-0.3662109375,[0. 0. 0. 0. 0. 0. 0. 0. 0.],-0.04052734375,0.01611328125,1.0029296875,[0. 0. 0. 0. 0. 0. 0. 0. 0.]
3.941237688064575,0.010727343149483204,0.01942821405827999,-0.11693452298641205,0.9928917288780212,[0. 0. 0. 0. 0. 0. 0. 0. 0.],0.06103515625,-0.244140625,-0.1220703125,[0. 0. 0. 0. 0. 0. 0. 0. 0.],-0.04150390625,0.01708984375,1.00341796875,[0. 0. 0. 0. 0. 0. 0. 0. 0.]
3.965766668319702,0.010725361295044422,0.0193198062479496,-0.11696133017539978,0.9928906559944153,[0. 0. 0. 0. 0. 0. 0. 0. 0.],-0.30517578125,-0.42724609375,-0.06103515625,[0. 0. 0. 0. 0. 0. 0. 0. 0.],-0.041015625,0.0166015625,1.00244140625,[0. 0. 0. 0. 0. 0. 0. 0. 0.]
3.985537052154541,0.010111374780535698,0.01846388913691044,-0.11698845773935318,0.9929102063179016,[0. 0. 0. 0. 0. 0. 0. 0. 0.],-0.1220703125,-0.732421875,0.0,[0. 0. 0. 0. 0. 0. 0. 0. 0.],-0.0390625,0.015625,1.0048828125,[0. 0. 0. 0. 0. 0. 0. 0. 0.]
4.00553822517395,0.010597468353807926,0.019268803298473358,-0.11703203618526459,0.9928846955299377,[0. 0. 0. 0. 0. 0. 0. 0. 0.],0.30517578125,-0.79345703125,-0.30517578125,[0. 0. 0. 0. 0. 0. 0. 0. 0.],-0.041015625,0.0166015625,1.00439453125,[0. 0. 0. 0. 0. 0. 0. 0. 0.]
4.025635480880737,0.010954659432172775,0.02002563141286373,-0.11706970632076263,0.9928613901138306,[0. 0. 0. 0. 0. 0. 0. 0. 0.],0.0,-0.732421875,-0.18310546875,[0. 0. 0. 0. 0. 0. 0. 0. 0.],-0.04248046875,0.0166015625,1.00244140625,[0. 0. 0. 0. 0. 0. 0. 0. 0.]
4.046390533447266,0.010880719870328903,0.019742842763662338,-0.11708288639783859,0.9928662180900574,[0. 0. 0. 0. 0. 0. 0. 0. 0.],-0.42724609375,-0.67138671875,-0.1220703125,[0. 0. 0. 0. 0. 0. 0. 0. 0.],-0.0419921875,0.01708984375,1.00439453125,[0. 0. 0. 0. 0. 0. 0. 0. 0.]
4.065557479858398,0.01139378547668457,0.018938127905130386,-0.11708663403987885,0.9928758144378662,[0. 0. 0. 0. 0. 0. 0. 0. 0.],-0.3662109375,-0.54931640625,-0.06103515625,[0. 0. 0. 0. 0. 0. 0. 0. 0.],-0.041015625,0.01806640625,1.0029296875,[0. 0. 0. 0. 0. 0. 0. 0. 0.]
4.088568925857544,0.010373751632869244,0.019440647214651108,-0.11713287234306335,0.9928717613220215,[0. 0. 0. 0. 0. 0. 0. 0. 0.],0.244140625,-0.54931640625,0.1220703125,[0. 0. 0. 0. 0. 0. 0. 0. 0.],-0.04150390625,0.015625,1.0029296875,[0. 0. 0. 0. 0. 0. 0. 0. 0.]
4.103375434875488,0.009937199763953686,0.020159311592578888,-0.1171790063381195,0.992856502532959,[0. 0. 0. 0. 0. 0. 0. 0. 0.],0.18310546875,-0.8544921875,-0.1220703125,[0. 0. 0. 0. 0. 0. 0. 0. 0.],-0.04248046875,0.01513671875,1.00244140625,[0. 0. 0. 0. 0. 0. 0. 0. 0.]
4.126452922821045,0.010503789409995079,0.01949920877814293,-0.11718033254146576,0.9928637146949768,[0. 0. 0. 0. 0. 0. 0. 0. 0.],-0.3662109375,-1.03759765625,-0.18310546875,[0. 0. 0. 0. 0. 0. 0. 0. 0.],-0.041015625,0.0166015625,1.0029296875,[0. 0. 0. 0. 0. 0. 0. 0. 0.]
4.14582896232605,0.009959278628230095,0.019582172855734825,-0.11722242832183838,0.9928627014160156,[0. 0. 0. 0. 0. 0. 0. 0. 0.],-0.1220703125,-0.79345703125,-0.18310546875,[0. 0. 0. 0. 0. 0. 0. 0. 0.],-0.04150390625,0.015625,1.0029296875,[0. 0. 0. 0. 0. 0. 0. 0. 0.]
4.167118549346924,0.010880273766815662,0.01926998980343342,-0.11721627414226532,0.9928598403930664,[0. 0. 0. 0. 0. 0. 0. 0. 0.],0.06103515625,-0.1220703125,-0.06103515625,[0. 0. 0. 0. 0. 0. 0. 0. 0.],-0.041015625,0.01708984375,1.00390625,[0. 0. 0. 0. 0. 0. 0. 0. 0.]
4.185588121414185,0.010422316379845142,0.019502460956573486,-0.11723967641592026,0.9928574562072754,[0. 0. 0. 0. 0. 0. 0. 0. 0.],0.06103515625,-0.6103515625,0.1220703125,[0. 0. 0. 0. 0. 0. 0. 0. 0.],-0.04150390625,0.01611328125,1.00146484375,[0. 0. 0. 0. 0. 0. 0. 0. 0.]
4.20727276802063,0.011003579013049603,0.01896035484969616,-0.11726050078868866,0.9928591847419739,[0. 0. 0. 0. 0. 0. 0. 0. 0.],-0.30517578125,-1.220703125,-0.30517578125,[0. 0. 0. 0. 0. 0. 0. 0. 0.],-0.04052734375,0.017578125,1.00244140625,[0. 0. 0. 0. 0. 0. 0. 0. 0.]
4.222005844116211,0.01142947655171156,0.019263945519924164,-0.11729580909013748,0.9928444623947144,[0. 0. 0. 0. 0. 0. 0. 0. 0.],0.1220703125,-0.91552734375,-0.18310546875,[0. 0. 0. 0. 0. 0. 0. 0. 0.],-0.0419921875,0.017578125,1.00146484375,[0. 0. 0. 0. 0. 0. 0. 0. 0.]
4.2457804679870605,0.010284511372447014,0.020013364031910896,-0.1173463687300682,0.9928361177444458,[0. 0. 0. 0. 0. 0. 0. 0. 0.],0.1220703125,-0.30517578125,-0.18310546875,[0. 0. 0. 0. 0. 0. 0. 0. 0.],-0.04248046875,0.015625,1.00341796875,[0. 0. 0. 0. 0. 0. 0. 0. 0.]
4.265840530395508,0.010863730683922768,0.020373469218611717,-0.11735524237155914,0.9928215146064758,[0. 0. 0. 0. 0. 0. 0. 0. 0.],-0.1220703125,-0.42724609375,-0.06103515625,[0. 0. 0. 0. 0. 0. 0. 0. 0.],-0.04296875,0.0166015625,1.0048828125,[0. 0. 0. 0. 0. 0. 0. 0. 0.]
4.285587549209595,0.010653393343091011,0.02023705653846264,-0.11738480627536774,0.9928231239318848,[0. 0. 0. 0. 0. 0. 0. 0. 0.],-0.244140625,-0.91552734375,-0.06103515625,[0. 0. 0. 0. 0. 0. 0. 0. 0.],-0.04248046875,0.0166015625,1.0048828125,[0. 0. 0. 0. 0. 0. 0. 0. 0.]
4.3057944774627686,0.01057571079581976,0.020345395430922508,-0.11741667985916138,0.9928180575370789,[0. 0. 0. 0. 0. 0. 0. 0. 0.],0.0,-0.8544921875,-0.1220703125,[0. 0. 0. 0. 0. 0. 0. 0. 0.],-0.04296875,0.01611328125,1.00390625,[0. 0. 0. 0. 0. 0. 0. 0. 0.]
4.326011896133423,0.010949507355690002,0.019471051171422005,-0.11745233833789825,0.992827296257019,[0. 0. 0. 0. 0. 0. 0. 0. 0.],0.18310546875,-0.732421875,-0.30517578125,[0. 0. 0. 0. 0. 0. 0. 0. 0.],-0.041015625,0.01708984375,1.00439453125,[0. 0. 0. 0. 0. 0. 0. 0. 0.]
4.345844984054565,0.010425918735563755,0.01870288886129856,-0.11747608333826065,0.992844820022583,[0. 0. 0. 0. 0. 0. 0. 0. 0.],-0.18310546875,-0.42724609375,-0.1220703125,[0. 0. 0. 0. 0. 0. 0. 0. 0.],-0.0400390625,0.01611328125,1.00244140625,[0. 0. 0. 0. 0. 0. 0. 0. 0.]
4.365903377532959,0.010875940322875977,0.019632909446954727,-0.11750828474760056,0.9928182363510132,[0. 0. 0. 0. 0. 0. 0. 0. 0.],-0.18310546875,-0.48828125,-0.18310546875,[0. 0. 0. 0. 0. 0. 0. 0. 0.],-0.04150390625,0.0166015625,1.0029296875,[0. 0. 0. 0. 0. 0. 0. 0. 0.]
4.385520935058594,0.010957981459796429,0.019096780568361282,-0.1175331100821495,0.992824912071228,[0. 0. 0. 0. 0. 0. 0. 0. 0.],0.18310546875,-0.79345703125,-0.18310546875,[0. 0. 0. 0. 0. 0. 0. 0. 0.],-0.041015625,0.01708984375,1.0029296875,[0. 0. 0. 0. 0. 0. 0. 0. 0.]
4.408015489578247,0.010556956753134727,0.019692357629537582,-0.11755971610546112,0.9928144216537476,[0. 0. 0. 0. 0. 0. 0. 0. 0.],0.06103515625,-0.67138671875,-0.06103515625,[0. 0. 0. 0. 0. 0. 0. 0. 0.],-0.0419921875,0.0166015625,1.0029296875,[0. 0. 0. 0. 0. 0. 0. 0. 0.]
4.425388336181641,0.009961651638150215,0.019565511494874954,-0.11758975684642792,0.992819607257843,[0. 0. 0. 0. 0. 0. 0. 0. 0.],-0.244140625,-1.03759765625,-0.244140625,[0. 0. 0. 0. 0. 0. 0. 0. 0.],-0.04150390625,0.01611328125,1.0029296875,[0. 0. 0. 0. 0. 0. 0. 0. 0.]
4.445624589920044,0.011452271603047848,0.01928577944636345,-0.11756472289562225,0.992811918258667,[0. 0. 0. 0. 0. 0. 0. 0. 0.],-0.244140625,-0.54931640625,0.0,[0. 0. 0. 0. 0. 0. 0. 0. 0.],-0.041015625,0.017578125,1.00244140625,[0. 0. 0. 0. 0. 0. 0. 0. 0.]
4.465882301330566,0.010430837981402874,0.019886663183569908,-0.11760897189378738,0.992806077003479,[0. 0. 0. 0. 0. 0. 0. 0. 0.],0.244140625,-0.244140625,0.0,[0. 0. 0. 0. 0. 0. 0. 0. 0.],-0.0419921875,0.01611328125,1.00341796875,[0. 0. 0. 0. 0. 0. 0. 0. 0.]
4.485584259033203,0.010623827576637268,0.02014928124845028,-0.11763504147529602,0.9927956461906433,[0. 0. 0. 0. 0. 0. 0. 0. 0.],-0.06103515625,-0.48828125,-0.06103515625,[0. 0. 0. 0. 0. 0. 0. 0. 0.],-0.04248046875,0.0166015625,1.00244140625,[0. 0. 0. 0. 0. 0. 0. 0. 0.]
4.505622863769531,0.011503780260682106,0.01842525228857994,-0.11763643473386765,0.9928192496299744,[0. 0. 0. 0. 0. 0. 0. 0. 0.],-0.244140625,-1.0986328125,-0.18310546875,[0. 0. 0. 0. 0. 0. 0. 0. 0.],-0.03955078125,0.0185546875,1.001953125,[0. 0. 0. 0. 0. 0. 0. 0. 0.]
4.521175861358643,0.010322166606783867,0.019469257444143295,-0.11771330237388611,0.992803156375885,[0. 0. 0. 0. 0. 0. 0. 0. 0.],0.18310546875,-0.91552734375,-0.18310546875,[0. 0. 0. 0. 0. 0. 0. 0. 0.],-0.041015625,0.01611328125,1.00048828125,[0. 0. 0. 0. 0. 0. 0. 0. 0.]
4.545533657073975,0.010571944527328014,0.019103238359093666,-0.11771519482135773,0.9928073883056641,[0. 0. 0. 0. 0. 0. 0. 0. 0.],0.1220703125,-0.18310546875,-0.06103515625,[0. 0. 0. 0. 0. 0. 0. 0. 0.],-0.04052734375,0.0166015625,1.0029296875,[0. 0. 0. 0. 0. 0. 0. 0. 0.]
4.565917253494263,0.010191744193434715,0.020217526704072952,-0.11775758862495422,0.992784321308136,[0. 0. 0. 0. 0. 0. 0. 0. 0.],-0.3662109375,-0.54931640625,-0.06103515625,[0. 0. 0. 0. 0. 0. 0. 0. 0.],-0.04296875,0.015625,1.00390625,[0. 0. 0. 0. 0. 0. 0. 0. 0.]
4.586797714233398,0.010566380806267262,0.02012225240468979,-0.11777593940496445,0.9927800893783569,[0. 0. 0. 0. 0. 0. 0. 0. 0.],-0.06103515625,-0.8544921875,-0.18310546875,[0. 0. 0. 0. 0. 0. 0. 0. 0.],-0.04248046875,0.01708984375,1.00146484375,[0. 0. 0. 0. 0. 0. 0. 0. 0.]
4.60575008392334,0.010605107992887497,0.019249675795435905,-0.11781063675880432,0.9927928447723389,[0. 0. 0. 0. 0. 0. 0. 0. 0.],0.1220703125,-0.9765625,-0.1220703125,[0. 0. 0. 0. 0. 0. 0. 0. 0.],-0.04150390625,0.01611328125,1.001953125,[0. 0. 0. 0. 0. 0. 0. 0. 0.]
4.625561714172363,0.009916180744767189,0.019383834674954414,-0.11784432083368301,0.9927933812141418,[0. 0. 0. 0. 0. 0. 0. 0. 0.],0.1220703125,-0.67138671875,-0.18310546875,[0. 0. 0. 0. 0. 0. 0. 0. 0.],-0.04052734375,0.0146484375,1.0029296875,[0. 0. 0. 0. 0. 0. 0. 0. 0.]
4.645793199539185,0.010487166233360767,0.019618196412920952,-0.11786486208438873,0.9927805066108704,[0. 0. 0. 0. 0. 0. 0. 0. 0.],-0.42724609375,-0.79345703125,-0.18310546875,[0. 0. 0. 0. 0. 0. 0. 0. 0.],-0.04150390625,0.01611328125,1.0029296875,[0. 0. 0. 0. 0. 0. 0. 0. 0.]
4.665803670883179,0.009885103441774845,0.019380008801817894,-0.1178911104798317,0.9927881360054016,[0. 0. 0. 0. 0. 0. 0. 0. 0.],-0.244140625,-0.67138671875,-0.06103515625,[0. 0. 0. 0. 0. 0. 0. 0. 0.],-0.041015625,0.01513671875,1.0048828125,[0. 0. 0. 0. 0. 0. 0. 0. 0.]
4.685668706893921,0.010570649057626724,0.019436147063970566,-0.11791632324457169,0.9927770495414734,[0. 0. 0. 0. 0. 0. 0. 0. 0.],0.18310546875,-0.244140625,0.0,[0. 0. 0. 0. 0. 0. 0. 0. 0.],-0.04150390625,0.0166015625,1.00341796875,[0. 0. 0. 0. 0. 0. 0. 0. 0.]
4.705806732177734,0.010719501413404942,0.018891889601945877,-0.11794508248567581,0.9927825927734375,[0. 0. 0. 0. 0. 0. 0. 0. 0.],0.1220703125,-0.6103515625,-0.1220703125,[0. 0. 0. 0. 0. 0. 0. 0. 0.],-0.0400390625,0.017578125,1.00439453125,[0. 0. 0. 0. 0. 0. 0. 0. 0.]
4.726232051849365,0.011490315198898315,0.01903284154832363,-0.11794735491275787,0.9927709698677063,[0. 0. 0. 0. 0. 0. 0. 0. 0.],-0.3662109375,-1.0986328125,-0.244140625,[0. 0. 0. 0. 0. 0. 0. 0. 0.],-0.04052734375,0.0185546875,1.00341796875,[0. 0. 0. 0. 0. 0. 0. 0. 0.]
4.745597839355469,0.010699868202209473,0.020124388858675957,-0.11798399686813354,0.9927539229393005,[0. 0. 0. 0. 0. 0. 0. 0. 0.],-0.42724609375,-0.732421875,-0.06103515625,[0. 0. 0. 0. 0. 0. 0. 0. 0.],-0.04248046875,0.0166015625,0.99951171875,[0. 0. 0. 0. 0. 0. 0. 0. 0.]
4.765687942504883,0.007628566585481167,0.019798697903752327,-0.11798814684152603,0.9927883148193359,[0. 0. 0. 0. 0. 0. 0. 0. 0.],-15.68603515625,4.0283203125,1.40380859375,[0. 0. 0. 0. 0. 0. 0. 0. 0.],-0.0400390625,-0.16015625,0.8955078125,[0. 0. 0. 0. 0. 0. 0. 0. 0.]
4.786465883255005,0.005325376987457275,0.020110733807086945,-0.11790554225444794,0.9928069114685059,[0. 0. 0. 0. 0. 0. 0. 0. 0.],-6.103515625,-4.150390625,-1.708984375,[0. 0. 0. 0. 0. 0. 0. 0. 0.],-0.02734375,-0.29443359375,1.0673828125,[0. 0. 0. 0. 0. 0. 0. 0. 0.]
4.806016206741333,0.0048808506689965725,0.020175138488411903,-0.11796409636735916,0.9928009510040283,[0. 0. 0. 0. 0. 0. 0. 0. 0.],8.1787109375,1.46484375,0.9765625,[0. 0. 0. 0. 0. 0. 0. 0. 0.],-0.04541015625,-0.1064453125,1.076171875,[0. 0. 0. 0. 0. 0. 0. 0. 0.]
4.825565576553345,0.002833597594872117,0.020324626937508583,-0.11811523139476776,0.9927878379821777,[0. 0. 0. 0. 0. 0. 0. 0. 0.],-12.5732421875,6.77490234375,1.46484375,[0. 0. 0. 0. 0. 0. 0. 0. 0.],-0.0625,-0.15673828125,0.88916015625,[0. 0. 0. 0. 0. 0. 0. 0. 0.]
4.845703840255737,0.0007630581967532635,0.020135357975959778,-0.11842551827430725,0.9927584528923035,[0. 0. 0. 0. 0. 0. 0. 0. 0.],7.99560546875,-5.67626953125,-2.13623046875,[0. 0. 0. 0. 0. 0. 0. 0. 0.],-0.041015625,-0.17724609375,1.068359375,[0. 0. 0. 0. 0. 0. 0. 0. 0.]
4.865517616271973,0.00010667473543435335,0.020129479467868805,-0.11848988384008408,0.9927512407302856,[0. 0. 0. 0. 0. 0. 0. 0. 0.],5.06591796875,-3.35693359375,-2.38037109375,[0. 0. 0. 0. 0. 0. 0. 0. 0.],-0.041015625,-0.02734375,1.0341796875,[0. 0. 0. 0. 0. 0. 0. 0. 0.]
4.8846845626831055,-0.0022868087980896235,0.020280644297599792,-0.11857014149427414,0.9927358627319336,[0. 0. 0. 0. 0. 0. 0. 0. 0.],-1.77001953125,-4.21142578125,-2.5634765625,[0. 0. 0. 0. 0. 0. 0. 0. 0.],-0.02490234375,-0.099609375,0.97509765625,[0. 0. 0. 0. 0. 0. 0. 0. 0.]
4.905824899673462,-0.0017293354030698538,0.01976017840206623,-0.11880602687597275,0.9927194118499756,[0. 0. 0. 0. 0. 0. 0. 0. 0.],3.173828125,-1.03759765625,-1.220703125,[0. 0. 0. 0. 0. 0. 0. 0. 0.],-0.04345703125,0.01123046875,1.02978515625,[0. 0. 0. 0. 0. 0. 0. 0. 0.]
4.925613880157471,-0.003946737386286259,0.02078818716108799,-0.11898257583379745,0.9926708340644836,[0. 0. 0. 0. 0. 0. 0. 0. 0.],-5.67626953125,-2.62451171875,-1.64794921875,[0. 0. 0. 0. 0. 0. 0. 0. 0.],-0.05224609375,-0.11181640625,0.927734375,[0. 0. 0. 0. 0. 0. 0. 0. 0.]
4.946298122406006,-0.004021341912448406,0.020619601011276245,-0.11935846507549286,0.9926289319992065,[0. 0. 0. 0. 0. 0. 0. 0. 0.],5.0048828125,-1.15966796875,-1.28173828125,[0. 0. 0. 0. 0. 0. 0. 0. 0.],-0.0390625,-0.00830078125,1.05517578125,[0. 0. 0. 0. 0. 0. 0. 0. 0.]
4.965800046920776,-0.004906808491796255,0.019870353862643242,-0.1195506602525711,0.992617130279541,[0. 0. 0. 0. 0. 0. 0. 0. 0.],0.91552734375,-2.13623046875,-2.197265625,[0. 0. 0. 0. 0. 0. 0. 0. 0.],-0.02392578125,-0.029296875,0.95556640625,[0. 0. 0. 0. 0. 0. 0. 0. 0.]
4.98560905456543,-0.007000559009611607,0.019313884899020195,-0.11991279572248459,0.9925718903541565,[0. 0. 0. 0. 0. 0. 0. 0. 0.],-0.6103515625,3.23486328125,-0.67138671875,[0. 0. 0. 0. 0. 0. 0. 0. 0.],-0.04052734375,-0.03076171875,1.0166015625,[0. 0. 0. 0. 0. 0. 0. 0. 0.]
5.00581955909729,-0.0075457594357430935,0.020500997081398964,-0.11999252438545227,0.9925343990325928,[0. 0. 0. 0. 0. 0. 0. 0. 0.],2.50244140625,-1.28173828125,-0.9765625,[0. 0. 0. 0. 0. 0. 0. 0. 0.],-0.05517578125,-0.0234375,1.03076171875,[0. 0. 0. 0. 0. 0. 0. 0. 0.]
5.025571346282959,-0.005565473809838295,0.021453024819493294,-0.11997899413108826,0.992529034614563,[0. 0. 0. 0. 0. 0. 0. 0. 0.],1.5869140625,1.46484375,0.1220703125,[0. 0. 0. 0. 0. 0. 0. 0. 0.],-0.05126953125,-0.0009765625,0.98388671875,[0. 0. 0. 0. 0. 0. 0. 0. 0.]
5.045686960220337,-0.00585711095482111,0.022479837760329247,-0.11995808780193329,0.9925071597099304,[0. 0. 0. 0. 0. 0. 0. 0. 0.],1.40380859375,-3.60107421875,-0.48828125,[0. 0. 0. 0. 0. 0. 0. 0. 0.],-0.04248046875,-0.00927734375,0.99560546875,[0. 0. 0. 0. 0. 0. 0. 0. 0.]
5.065702199935913,-0.00455990107730031,0.021770428866147995,-0.12003785371780396,0.9925201535224915,[0. 0. 0. 0. 0. 0. 0. 0. 0.],-0.30517578125,1.64794921875,-0.48828125,[0. 0. 0. 0. 0. 0. 0. 0. 0.],-0.02978515625,0.0107421875,0.99462890625,[0. 0. 0. 0. 0. 0. 0. 0. 0.]
5.085665702819824,-0.004798069596290588,0.02220246195793152,-0.12011901289224625,0.9924996495246887,[0. 0. 0. 0. 0. 0. 0. 0. 0.],-4.69970703125,0.06103515625,-0.244140625,[0. 0. 0. 0. 0. 0. 0. 0. 0.],-0.06103515625,-0.05419921875,0.97314453125,[0. 0. 0. 0. 0. 0. 0. 0. 0.]
5.1056623458862305,-0.008159952238202095,0.02331973984837532,-0.12016225606203079,0.9924468398094177,[0. 0. 0. 0. 0. 0. 0. 0. 0.],-2.9296875,-1.0986328125,-2.13623046875,[0. 0. 0. 0. 0. 0. 0. 0. 0.],-0.076171875,-0.21240234375,1.025390625,[0. 0. 0. 0. 0. 0. 0. 0. 0.]
5.125481367111206,-0.00989436637610197,0.02463550865650177,-0.1211513802409172,0.9922789931297302,[0. 0. 0. 0. 0. 0. 0. 0. 0.],-0.732421875,6.2255859375,-9.58251953125,[0. 0. 0. 0. 0. 0. 0. 0. 0.],-0.0654296875,-0.22021484375,1.0205078125,[0. 0. 0. 0. 0. 0. 0. 0. 0.]
5.145493745803833,-0.010919124819338322,0.025415753945708275,-0.1225682720541954,0.9920745491981506,[0. 0. 0. 0. 0. 0. 0. 0. 0.],0.9765625,1.220703125,-10.25390625,[0. 0. 0. 0. 0. 0. 0. 0. 0.],-0.1376953125,-0.2216796875,0.99560546875,[0. 0. 0. 0. 0. 0. 0. 0. 0.]
5.166616439819336,-0.012770145200192928,0.026355423033237457,-0.12541082501411438,0.9916725158691406,[0. 0. 0. 0. 0. 0. 0. 0. 0.],-1.03759765625,3.23486328125,-18.5546875,[0. 0. 0. 0. 0. 0. 0. 0. 0.],-0.072265625,-0.25146484375,0.9658203125,[0. 0. 0. 0. 0. 0. 0. 0. 0.]
5.185930967330933,-0.014799896627664566,0.027101289480924606,-0.12956759333610535,0.9910897016525269,[0. 0. 0. 0. 0. 0. 0. 0. 0.],0.18310546875,6.28662109375,-25.81787109375,[0. 0. 0. 0. 0. 0. 0. 0. 0.],-0.0546875,-0.30078125,0.9990234375,[0. 0. 0. 0. 0. 0. 0. 0. 0.]
5.207701206207275,-0.01586967334151268,0.028568686917424202,-0.13608293235301971,0.9901583194732666,[0. 0. 0. 0. 0. 0. 0. 0. 0.],7.50732421875,2.8076171875,-31.79931640625,[0. 0. 0. 0. 0. 0. 0. 0. 0.],-0.11669921875,-0.24267578125,1.0439453125,[0. 0. 0. 0. 0. 0. 0. 0. 0.]
5.220843076705933,-0.016045866534113884,0.02936725877225399,-0.14045432209968567,0.9895215034484863,[0. 0. 0. 0. 0. 0. 0. 0. 0.],7.38525390625,2.74658203125,-35.0341796875,[0. 0. 0. 0. 0. 0. 0. 0. 0.],-0.13525390625,-0.1904296875,0.9765625,[0. 0. 0. 0. 0. 0. 0. 0. 0.]
5.245567798614502,-0.01708284020423889,0.03067965619266033,-0.14674608409404755,0.9885507225990295,[0. 0. 0. 0. 0. 0. 0. 0. 0.],-1.8310546875,3.7841796875,-36.4990234375,[0. 0. 0. 0. 0. 0. 0. 0. 0.],-0.14990234375,-0.15673828125,0.9208984375,[0. 0. 0. 0. 0. 0. 0. 0. 0.]
5.2658302783966064,-0.019580185413360596,0.03211404010653496,-0.1554136872291565,0.9871332049369812,[0. 0. 0. 0. 0. 0. 0. 0. 0.],1.28173828125,3.90625,-41.50390625,[0. 0. 0. 0. 0. 0. 0. 0. 0.],-0.07861328125,-0.173828125,1.01806640625,[0. 0. 0. 0. 0. 0. 0. 0. 0.]
5.285588979721069,-0.02065492980182171,0.03227668255567551,-0.16118186712265015,0.9861804842948914,[0. 0. 0. 0. 0. 0. 0. 0. 0.],7.01904296875,2.99072265625,-45.2880859375,[0. 0. 0. 0. 0. 0. 0. 0. 0.],-0.021484375,-0.17626953125,1.095703125,[0. 0. 0. 0. 0. 0. 0. 0. 0.]
5.306568145751953,-0.02162523940205574,0.033048417419195175,-0.17129875719547272,0.9844271540641785,[0. 0. 0. 0. 0. 0. 0. 0. 0.],3.5400390625,1.15966796875,-46.875,[0. 0. 0. 0. 0. 0. 0. 0. 0.],-0.09912109375,-0.13525390625,0.9736328125,[0. 0. 0. 0. 0. 0. 0. 0. 0.]
5.326229810714722,-0.022172236815094948,0.03388097137212753,-0.1770952045917511,0.9833604693412781,[0. 0. 0. 0. 0. 0. 0. 0. 0.],1.0986328125,-1.46484375,-44.25048828125,[0. 0. 0. 0. 0. 0. 0. 0. 0.],-0.162109375,-0.12353515625,0.94189453125,[0. 0. 0. 0. 0. 0. 0. 0. 0.]
5.3456621170043945,-0.023804431781172752,0.0348113588988781,-0.18599233031272888,0.9816457629203796,[0. 0. 0. 0. 0. 0. 0. 0. 0.],-2.197265625,-5.37109375,-38.6962890625,[0. 0. 0. 0. 0. 0. 0. 0. 0.],-0.1220703125,-0.12158203125,0.9775390625,[0. 0. 0. 0. 0. 0. 0. 0. 0.]
5.3660547733306885,-0.025188276544213295,0.034646518528461456,-0.19062501192092896,0.9807279706001282,[0. 0. 0. 0. 0. 0. 0. 0. 0.],0.3662109375,-7.8125,-34.7900390625,[0. 0. 0. 0. 0. 0. 0. 0. 0.],-0.0947265625,-0.12939453125,1.01611328125,[0. 0. 0. 0. 0. 0. 0. 0. 0.]
5.386163234710693,-0.027077771723270416,0.03398542478680611,-0.19582945108413696,0.9796748161315918,[0. 0. 0. 0. 0. 0. 0. 0. 0.],1.708984375,-6.04248046875,-27.28271484375,[0. 0. 0. 0. 0. 0. 0. 0. 0.],-0.05224609375,-0.1220703125,0.986328125,[0. 0. 0. 0. 0. 0. 0. 0. 0.]
5.404401540756226,-0.02863140031695366,0.03223768621683121,-0.20045389235019684,0.9787539839744568,[0. 0. 0. 0. 0. 0. 0. 0. 0.],5.06591796875,-3.2958984375,-16.05224609375,[0. 0. 0. 0. 0. 0. 0. 0. 0.],-0.01171875,-0.11181640625,0.970703125,[0. 0. 0. 0. 0. 0. 0. 0. 0.]
5.4217329025268555,-0.029851609840989113,0.030654482543468475,-0.20210139453411102,0.9784295558929443,[0. 0. 0. 0. 0. 0. 0. 0. 0.],-8.48388671875,-7.6904296875,-7.4462890625,[0. 0. 0. 0. 0. 0. 0. 0. 0.],-0.0302734375,-0.0380859375,0.869140625,[0. 0. 0. 0. 0. 0. 0. 0. 0.]
5.445761680603027,-0.02990383468568325,0.02932303585112095,-0.20265881717205048,0.9783534407615662,[0. 0. 0. 0. 0. 0. 0. 0. 0.],4.33349609375,-4.57763671875,-3.662109375,[0. 0. 0. 0. 0. 0. 0. 0. 0.],0.0,-0.064453125,1.11181640625,[0. 0. 0. 0. 0. 0. 0. 0. 0.]
5.465838432312012,-0.028211884200572968,0.02491649240255356,-0.2034682184457779,0.9783577919006348,[0. 0. 0. 0. 0. 0. 0. 0. 0.],11.23046875,-8.11767578125,-3.41796875,[0. 0. 0. 0. 0. 0. 0. 0. 0.],0.0029296875,-0.0234375,1.14404296875,[0. 0. 0. 0. 0. 0. 0. 0. 0.]
5.485605001449585,-0.02585638500750065,0.024241548031568527,-0.20401839911937714,0.9783252477645874,[0. 0. 0. 0. 0. 0. 0. 0. 0.],14.58740234375,9.94873046875,-2.86865234375,[0. 0. 0. 0. 0. 0. 0. 0. 0.],0.05224609375,0.09228515625,1.060546875,[0. 0. 0. 0. 0. 0. 0. 0. 0.]
5.507412672042847,-0.022763626649975777,0.02459290809929371,-0.20491661131381989,0.9782056212425232,[0. 0. 0. 0. 0. 0. 0. 0. 0.],1.28173828125,-2.0751953125,-3.84521484375,[0. 0. 0. 0. 0. 0. 0. 0. 0.],-0.0830078125,0.13623046875,0.869140625,[0. 0. 0. 0. 0. 0. 0. 0. 0.]
5.526119232177734,-0.02189573459327221,0.0245980117470026,-0.20528572797775269,0.9781479239463806,[0. 0. 0. 0. 0. 0. 0. 0. 0.],-3.35693359375,-1.15966796875,-3.5400390625,[0. 0. 0. 0. 0. 0. 0. 0. 0.],-0.1005859375,0.125,0.8857421875,[0. 0. 0. 0. 0. 0. 0. 0. 0.]
5.5458173751831055,-0.020128296688199043,0.024542061612010002,-0.20598328113555908,0.9780406951904297,[0. 0. 0. 0. 0. 0. 0. 0. 0.],1.5869140625,1.64794921875,-4.57763671875,[0. 0. 0. 0. 0. 0. 0. 0. 0.],-0.03076171875,0.078125,1.052734375,[0. 0. 0. 0. 0. 0. 0. 0. 0.]
5.566251754760742,-0.017809638753533363,0.023851675912737846,-0.20682217180728912,0.9779256582260132,[0. 0. 0. 0. 0. 0. 0. 0. 0.],4.8828125,-2.685546875,-5.37109375,[0. 0. 0. 0. 0. 0. 0. 0. 0.],-0.05908203125,0.10693359375,1.03369140625,[0. 0. 0. 0. 0. 0. 0. 0. 0.]
5.5857274532318115,-0.014343376271426678,0.022833680734038353,-0.207933247089386,0.9777713418006897,[0. 0. 0. 0. 0. 0. 0. 0. 0.],3.84521484375,2.86865234375,-3.11279296875,[0. 0. 0. 0. 0. 0. 0. 0. 0.],-0.04833984375,0.1640625,0.97802734375,[0. 0. 0. 0. 0. 0. 0. 0. 0.]
5.601816177368164,-0.012597006745636463,0.02210393361747265,-0.20844532549381256,0.9777030944824219,[0. 0. 0. 0. 0. 0. 0. 0. 0.],4.82177734375,-4.08935546875,-3.96728515625,[0. 0. 0. 0. 0. 0. 0. 0. 0.],-0.0458984375,0.11083984375,0.9951171875,[0. 0. 0. 0. 0. 0. 0. 0. 0.]
5.620584964752197,-0.010853340849280357,0.02156781032681465,-0.2089325487613678,0.9776319861412048,[0. 0. 0. 0. 0. 0. 0. 0. 0.],-2.197265625,-3.173828125,-3.41796875,[0. 0. 0. 0. 0. 0. 0. 0. 0.],-0.05322265625,0.1611328125,0.93798828125,[0. 0. 0. 0. 0. 0. 0. 0. 0.]
5.645732164382935,-0.009528583846986294,0.021070659160614014,-0.20954851806163788,0.9775247573852539,[0. 0. 0. 0. 0. 0. 0. 0. 0.],-1.64794921875,1.8310546875,-3.96728515625,[0. 0. 0. 0. 0. 0. 0. 0. 0.],-0.03076171875,0.1396484375,0.99951171875,[0. 0. 0. 0. 0. 0. 0. 0. 0.]
5.661841154098511,-0.006825617514550686,0.02032715268433094,-0.2106410712003708,0.9773283004760742,[0. 0. 0. 0. 0. 0. 0. 0. 0.],4.94384765625,0.732421875,-5.0048828125,[0. 0. 0. 0. 0. 0. 0. 0. 0.],-0.00634765625,0.126953125,1.0927734375,[0. 0. 0. 0. 0. 0. 0. 0. 0.]
5.680742502212524,-0.005098004825413227,0.019696509465575218,-0.21132880449295044,0.9772032499313354,[0. 0. 0. 0. 0. 0. 0. 0. 0.],4.2724609375,-1.953125,-5.2490234375,[0. 0. 0. 0. 0. 0. 0. 0. 0.],-0.03076171875,0.134765625,1.03955078125,[0. 0. 0. 0. 0. 0. 0. 0. 0.]
5.709902286529541,-0.002906689653173089,0.01888972334563732,-0.212561696767807,0.9769608378410339,[0. 0. 0. 0. 0. 0. 0. 0. 0.],-0.48828125,-1.708984375,-6.2255859375,[0. 0. 0. 0. 0. 0. 0. 0. 0.],-0.03271484375,0.14501953125,0.9228515625,[0. 0. 0. 0. 0. 0. 0. 0. 0.]
5.725635766983032,-0.002053537406027317,0.018681133165955544,-0.21325929462909698,0.976814866065979,[0. 0. 0. 0. 0. 0. 0. 0. 0.],-4.0283203125,-1.52587890625,-5.06591796875,[0. 0. 0. 0. 0. 0. 0. 0. 0.],-0.0625,0.130859375,0.9228515625,[0. 0. 0. 0. 0. 0. 0. 0. 0.]
5.745894193649292,-0.0007783437613397837,0.018532302230596542,-0.2142227590084076,0.9766086935997009,[0. 0. 0. 0. 0. 0. 0. 0. 0.],-3.23486328125,-3.11279296875,-4.45556640625,[0. 0. 0. 0. 0. 0. 0. 0. 0.],-0.080078125,0.09619140625,1.013671875,[0. 0. 0. 0. 0. 0. 0. 0. 0.]
5.76570463180542,0.00014673237456008792,0.01854814402759075,-0.21464604139328003,0.9765158295631409,[0. 0. 0. 0. 0. 0. 0. 0. 0.],-2.5634765625,-2.74658203125,-3.662109375,[0. 0. 0. 0. 0. 0. 0. 0. 0.],-0.07275390625,0.08447265625,0.98876953125,[0. 0. 0. 0. 0. 0. 0. 0. 0.]
5.785559177398682,0.0016168132424354553,0.018540402874350548,-0.215097576379776,0.9764152765274048,[0. 0. 0. 0. 0. 0. 0. 0. 0.],-1.3427734375,1.708984375,-2.62451171875,[0. 0. 0. 0. 0. 0. 0. 0. 0.],-0.041015625,0.07275390625,0.98583984375,[0. 0. 0. 0. 0. 0. 0. 0. 0.]
5.805599212646484,0.0035050061997026205,0.018240731209516525,-0.2155713587999344,0.9763115048408508,[0. 0. 0. 0. 0. 0. 0. 0. 0.],1.15966796875,1.28173828125,-3.11279296875,[0. 0. 0. 0. 0. 0. 0. 0. 0.],-0.02783203125,0.06640625,1.01611328125,[0. 0. 0. 0. 0. 0. 0. 0. 0.]
5.826896905899048,0.004261878319084644,0.018197547644376755,-0.21589764952659607,0.9762370586395264,[0. 0. 0. 0. 0. 0. 0. 0. 0.],-12.20703125,-2.44140625,-2.25830078125,[0. 0. 0. 0. 0. 0. 0. 0. 0.],-0.052734375,0.107421875,0.92041015625,[0. 0. 0. 0. 0. 0. 0. 0. 0.]
5.845988750457764,0.004528811667114496,0.017871486023068428,-0.21614094078540802,0.9761881828308105,[0. 0. 0. 0. 0. 0. 0. 0. 0.],-4.2724609375,-1.953125,-3.2958984375,[0. 0. 0. 0. 0. 0. 0. 0. 0.],-0.02587890625,0.0703125,1.08154296875,[0. 0. 0. 0. 0. 0. 0. 0. 0.]
5.866586208343506,0.006976363714784384,0.016051270067691803,-0.21696047484874725,0.9760234355926514,[0. 0. 0. 0. 0. 0. 0. 0. 0.],2.01416015625,-7.50732421875,-4.82177734375,[0. 0. 0. 0. 0. 0. 0. 0. 0.],-0.04345703125,0.0224609375,1.11962890625,[0. 0. 0. 0. 0. 0. 0. 0. 0.]
5.886169910430908,0.005092817358672619,0.015754491090774536,-0.21781693398952484,0.9758492112159729,[0. 0. 0. 0. 0. 0. 0. 0. 0.],-3.35693359375,-5.859375,-5.859375,[0. 0. 0. 0. 0. 0. 0. 0. 0.],-0.02001953125,-0.0439453125,0.97802734375,[0. 0. 0. 0. 0. 0. 0. 0. 0.]
5.905925989151001,0.004384508356451988,0.015192478895187378,-0.21833373606204987,0.9757461547851562,[0. 0. 0. 0. 0. 0. 0. 0. 0.],-0.91552734375,6.9580078125,-1.953125,[0. 0. 0. 0. 0. 0. 0. 0. 0.],-0.02197265625,-0.00634765625,0.9970703125,[0. 0. 0. 0. 0. 0. 0. 0. 0.]
5.925618886947632,0.0035430912394076586,0.01499239169061184,-0.21895116567611694,0.9756142497062683,[0. 0. 0. 0. 0. 0. 0. 0. 0.],6.04248046875,5.06591796875,-2.3193359375,[0. 0. 0. 0. 0. 0. 0. 0. 0.],-0.00537109375,-0.04052734375,1.0283203125,[0. 0. 0. 0. 0. 0. 0. 0. 0.]
5.945785999298096,0.0026058880612254143,0.016319645568728447,-0.2192549854516983,0.9755276441574097,[0. 0. 0. 0. 0. 0. 0. 0. 0.],-2.50244140625,-2.62451171875,-2.13623046875,[0. 0. 0. 0. 0. 0. 0. 0. 0.],-0.06103515625,-0.01171875,0.93212890625,[0. 0. 0. 0. 0. 0. 0. 0. 0.]
5.965648651123047,0.0013698695693165064,0.018030615523457527,-0.21943359076976776,0.9754599332809448,[0. 0. 0. 0. 0. 0. 0. 0. 0.],-5.43212890625,-3.41796875,-1.89208984375,[0. 0. 0. 0. 0. 0. 0. 0. 0.],-0.07421875,-0.0341796875,0.99267578125,[0. 0. 0. 0. 0. 0. 0. 0. 0.]
5.983423948287964,-0.0002965138992294669,0.018426701426506042,-0.21996662020683289,0.9753333926200867,[0. 0. 0. 0. 0. 0. 0. 0. 0.],1.5869140625,0.91552734375,-3.47900390625,[0. 0. 0. 0. 0. 0. 0. 0. 0.],-0.02587890625,-0.0537109375,1.08837890625,[0. 0. 0. 0. 0. 0. 0. 0. 0.]
6.005778074264526,-0.0014392549637705088,0.01869581639766693,-0.22060136497020721,0.9751838445663452,[0. 0. 0. 0. 0. 0. 0. 0. 0.],1.3427734375,-2.197265625,-3.72314453125,[0. 0. 0. 0. 0. 0. 0. 0. 0.],-0.052734375,-0.03955078125,0.98486328125,[0. 0. 0. 0. 0. 0. 0. 0. 0.]
6.020783185958862,-0.0023784697987139225,0.020064476877450943,-0.22113147377967834,0.975034773349762,[0. 0. 0. 0. 0. 0. 0. 0. 0.],1.5869140625,-1.52587890625,-2.9296875,[0. 0. 0. 0. 0. 0. 0. 0. 0.],-0.056640625,-0.03369140625,0.96826171875,[0. 0. 0. 0. 0. 0. 0. 0. 0.]
6.045751094818115,-0.003399315755814314,0.02054830826818943,-0.2215714454650879,0.974921703338623,[0. 0. 0. 0. 0. 0. 0. 0. 0.],3.96728515625,-1.953125,-2.197265625,[0. 0. 0. 0. 0. 0. 0. 0. 0.],-0.04833984375,-0.05078125,1.033203125,[0. 0. 0. 0. 0. 0. 0. 0. 0.]
6.0657875537872314,-0.003478212282061577,0.02212338335812092,-0.22176437079906464,0.9748430848121643,[0. 0. 0. 0. 0. 0. 0. 0. 0.],-0.42724609375,-3.173828125,-0.06103515625,[0. 0. 0. 0. 0. 0. 0. 0. 0.],-0.0576171875,-0.015625,0.9365234375,[0. 0. 0. 0. 0. 0. 0. 0. 0.]
6.085695505142212,-0.0033385436981916428,0.02175629884004593,-0.22200967371463776,0.9747960567474365,[0. 0. 0. 0. 0. 0. 0. 0. 0.],-4.638671875,-0.6103515625,-1.77001953125,[0. 0. 0. 0. 0. 0. 0. 0. 0.],-0.025390625,-0.0078125,0.95556640625,[0. 0. 0. 0. 0. 0. 0. 0. 0.]
6.108855962753296,-0.0037859033327549696,0.020440511405467987,-0.2224264293909073,0.9747278094291687,[0. 0. 0. 0. 0. 0. 0. 0. 0.],1.3427734375,0.6103515625,-3.5400390625,[0. 0. 0. 0. 0. 0. 0. 0. 0.],0.0185546875,-0.0263671875,1.08056640625,[0. 0. 0. 0. 0. 0. 0. 0. 0.]
6.1303277015686035,-0.0035183867439627647,0.019077027216553688,-0.22329480946063995,0.9745579957962036,[0. 0. 0. 0. 0. 0. 0. 0. 0.],6.8359375,1.28173828125,-5.0048828125,[0. 0. 0. 0. 0. 0. 0. 0. 0.],0.01171875,-0.021484375,1.13720703125,[0. 0. 0. 0. 0. 0. 0. 0. 0.]
6.145851135253906,-0.0019099473720416427,0.017785361036658287,-0.22411061823368073,0.9743995070457458,[0. 0. 0. 0. 0. 0. 0. 0. 0.],2.5634765625,-2.99072265625,-4.7607421875,[0. 0. 0. 0. 0. 0. 0. 0. 0.],-0.04345703125,0.01025390625,0.98876953125,[0. 0. 0. 0. 0. 0. 0. 0. 0.]
6.1656529903411865,-0.0002867219445761293,0.017887094989418983,-0.22492694854736328,0.9742114543914795,[0. 0. 0. 0. 0. 0. 0. 0. 0.],-2.01416015625,0.6103515625,-4.82177734375,[0. 0. 0. 0. 0. 0. 0. 0. 0.],-0.03857421875,0.0146484375,0.873046875,[0. 0. 0. 0. 0. 0. 0. 0. 0.]
6.18561315536499,9.170736120722722e-06,0.019075604155659676,-0.22560419142246246,0.9740323424339294,[0. 0. 0. 0. 0. 0. 0. 0. 0.],-1.5869140625,-1.220703125,-4.150390625,[0. 0. 0. 0. 0. 0. 0. 0. 0.],-0.08203125,-0.009765625,0.9697265625,[0. 0. 0. 0. 0. 0. 0. 0. 0.]
6.205646276473999,0.0001632716739550233,0.020463814958930016,-0.2261536866426468,0.9738767147064209,[0. 0. 0. 0. 0. 0. 0. 0. 0.],-4.8828125,-0.9765625,-3.173828125,[0. 0. 0. 0. 0. 0. 0. 0. 0.],-0.0703125,0.0048828125,0.9853515625,[0. 0. 0. 0. 0. 0. 0. 0. 0.]
6.227708339691162,0.00019476411398500204,0.022128324955701828,-0.22646233439445496,0.9737685322761536,[0. 0. 0. 0. 0. 0. 0. 0. 0.],-2.44140625,-0.9765625,-1.77001953125,[0. 0. 0. 0. 0. 0. 0. 0. 0.],-0.06689453125,-0.01123046875,0.99560546875,[0. 0. 0. 0. 0. 0. 0. 0. 0.]
6.245818853378296,-0.0009405934251844883,0.02214067243039608,-0.2268223762512207,0.9736840128898621,[0. 0. 0. 0. 0. 0. 0. 0. 0.],2.0751953125,3.72314453125,-1.64794921875,[0. 0. 0. 0. 0. 0. 0. 0. 0.],-0.0244140625,-0.0185546875,1.02294921875,[0. 0. 0. 0. 0. 0. 0. 0. 0.]
6.265880107879639,-0.0008334156009368598,0.021245108917355537,-0.22716644406318665,0.9736238718032837,[0. 0. 0. 0. 0. 0. 0. 0. 0.],-8.97216796875,-1.64794921875,-1.3427734375,[0. 0. 0. 0. 0. 0. 0. 0. 0.],-0.04833984375,0.04052734375,0.88232421875,[0. 0. 0. 0. 0. 0. 0. 0. 0.]
6.28571081161499,-0.0002994589740410447,0.020792847499251366,-0.2273184359073639,0.9735984802246094,[0. 0. 0. 0. 0. 0. 0. 0. 0.],-0.244140625,0.48828125,-1.89208984375,[0. 0. 0. 0. 0. 0. 0. 0. 0.],-0.02490234375,0.00927734375,1.189453125,[0. 0. 0. 0. 0. 0. 0. 0. 0.]
6.305783748626709,0.0007535330369137228,0.018946504220366478,-0.22789350152015686,0.9735015034675598,[0. 0. 0. 0. 0. 0. 0. 0. 0.],3.96728515625,-8.11767578125,-3.0517578125,[0. 0. 0. 0. 0. 0. 0. 0. 0.],-0.0634765625,0.01025390625,1.1318359375,[0. 0. 0. 0. 0. 0. 0. 0. 0.]
6.325745105743408,0.0028126719407737255,0.018056534230709076,-0.2287541925907135,0.9733127355575562,[0. 0. 0. 0. 0. 0. 0. 0. 0.],2.74658203125,4.150390625,-4.0283203125,[0. 0. 0. 0. 0. 0. 0. 0. 0.],0.00927734375,0.03271484375,0.98486328125,[0. 0. 0. 0. 0. 0. 0. 0. 0.]
6.3465752601623535,0.0042143273167312145,0.01689792238175869,-0.22927342355251312,0.9732062220573425,[0. 0. 0. 0. 0. 0. 0. 0. 0.],3.11279296875,3.47900390625,-2.197265625,[0. 0. 0. 0. 0. 0. 0. 0. 0.],-0.0166015625,0.01123046875,0.9521484375,[0. 0. 0. 0. 0. 0. 0. 0. 0.]
6.365900039672852,0.0036008211318403482,0.018506990745663643,-0.22924049198627472,0.9731872081756592,[0. 0. 0. 0. 0. 0. 0. 0. 0.],-10.43701171875,1.3427734375,0.79345703125,[0. 0. 0. 0. 0. 0. 0. 0. 0.],-0.095703125,-0.0390625,0.8740234375,[0. 0. 0. 0. 0. 0. 0. 0. 0.]
6.385931968688965,0.0006843885057605803,0.020066330209374428,-0.2292289435863495,0.9731653928756714,[0. 0. 0. 0. 0. 0. 0. 0. 0.],-2.38037109375,2.685546875,-1.0986328125,[0. 0. 0. 0. 0. 0. 0. 0. 0.],-0.03759765625,-0.1396484375,1.11083984375,[0. 0. 0. 0. 0. 0. 0. 0. 0.]
6.4056267738342285,-0.0010985176777467132,0.02076503075659275,-0.2294863909482956,0.9730896949768066,[0. 0. 0. 0. 0. 0. 0. 0. 0.],0.732421875,-2.50244140625,-2.685546875,[0. 0. 0. 0. 0. 0. 0. 0. 0.],-0.0478515625,-0.15673828125,1.03564453125,[0. 0. 0. 0. 0. 0. 0. 0. 0.]
6.428112030029297,-0.0017509744502604008,0.0210561566054821,-0.22968822717666626,0.9730349183082581,[0. 0. 0. 0. 0. 0. 0. 0. 0.],7.2021484375,-0.42724609375,-1.0986328125,[0. 0. 0. 0. 0. 0. 0. 0. 0.],-0.05517578125,-0.0966796875,1.017578125,[0. 0. 0. 0. 0. 0. 0. 0. 0.]
6.44575834274292,-0.002630094299092889,0.021662596613168716,-0.22983905673027039,0.9729840159416199,[0. 0. 0. 0. 0. 0. 0. 0. 0.],1.220703125,1.52587890625,0.3662109375,[0. 0. 0. 0. 0. 0. 0. 0. 0.],-0.056640625,-0.0703125,0.884765625,[0. 0. 0. 0. 0. 0. 0. 0. 0.]
6.466002702713013,-0.004199096467345953,0.021983474493026733,-0.22978287935256958,0.9729844927787781,[0. 0. 0. 0. 0. 0. 0. 0. 0.],-7.14111328125,-3.60107421875,1.15966796875,[0. 0. 0. 0. 0. 0. 0. 0. 0.],-0.0634765625,-0.04541015625,0.8857421875,[0. 0. 0. 0. 0. 0. 0. 0. 0.]
6.4858222007751465,-0.005355351604521275,0.021402772516012192,-0.2300701141357422,0.9729239344596863,[0. 0. 0. 0. 0. 0. 0. 0. 0.],-3.47900390625,4.39453125,-4.150390625,[0. 0. 0. 0. 0. 0. 0. 0. 0.],0.07177734375,-0.0556640625,1.0947265625,[0. 0. 0. 0. 0. 0. 0. 0. 0.]
6.501215696334839,-0.005674578715115786,0.02066352590918541,-0.23080739378929138,0.9727634787559509,[0. 0. 0. 0. 0. 0. 0. 0. 0.],4.8828125,-1.220703125,-4.8828125,[0. 0. 0. 0. 0. 0. 0. 0. 0.],0.0029296875,-0.07861328125,1.20068359375,[0. 0. 0. 0. 0. 0. 0. 0. 0.]
6.525784730911255,-0.006255411077290773,0.020857010036706924,-0.23159804940223694,0.9725677967071533,[0. 0. 0. 0. 0. 0. 0. 0. 0.],-0.9765625,-3.11279296875,-3.60107421875,[0. 0. 0. 0. 0. 0. 0. 0. 0.],-0.048828125,-0.029296875,0.904296875,[0. 0. 0. 0. 0. 0. 0. 0. 0.]
6.546065807342529,-0.00676091481000185,0.02215977944433689,-0.23218275606632233,0.9723962545394897,[0. 0. 0. 0. 0. 0. 0. 0. 0.],-5.0048828125,-2.5634765625,-4.150390625,[0. 0. 0. 0. 0. 0. 0. 0. 0.],-0.04541015625,-0.0244140625,0.86279296875,[0. 0. 0. 0. 0. 0. 0. 0. 0.]
6.565574407577515,-0.007819702848792076,0.023539919406175613,-0.23263446986675262,0.9722478985786438,[0. 0. 0. 0. 0. 0. 0. 0. 0.],-10.986328125,2.8076171875,-3.90625,[0. 0. 0. 0. 0. 0. 0. 0. 0.],-0.03857421875,-0.02099609375,0.88427734375,[0. 0. 0. 0. 0. 0. 0. 0. 0.]
6.586259603500366,-0.010198399424552917,0.02484055608510971,-0.23334576189517975,0.9720229506492615,[0. 0. 0. 0. 0. 0. 0. 0. 0.],-2.38037109375,0.30517578125,-2.86865234375,[0. 0. 0. 0. 0. 0. 0. 0. 0.],-0.0498046875,-0.06201171875,1.037109375,[0. 0. 0. 0. 0. 0. 0. 0. 0.]
6.605935573577881,-0.01169000193476677,0.02503637596964836,-0.23393172025680542,0.9718603491783142,[0. 0. 0. 0. 0. 0. 0. 0. 0.],-0.79345703125,7.080078125,-2.5634765625,[0. 0. 0. 0. 0. 0. 0. 0. 0.],-0.0185546875,-0.037109375,0.95556640625,[0. 0. 0. 0. 0. 0. 0. 0. 0.]
6.625727415084839,-0.0106008006259799,0.02493957057595253,-0.23422808945178986,0.9718039631843567,[0. 0. 0. 0. 0. 0. 0. 0. 0.],-2.5634765625,-0.79345703125,-2.62451171875,[0. 0. 0. 0. 0. 0. 0. 0. 0.],-0.05908203125,-0.01220703125,1.08935546875,[0. 0. 0. 0. 0. 0. 0. 0. 0.]
6.6419453620910645,-0.011258446611464024,0.026032552123069763,-0.2345982789993286,0.9716785550117493,[0. 0. 0. 0. 0. 0. 0. 0. 0.],-0.18310546875,-7.38525390625,-3.90625,[0. 0. 0. 0. 0. 0. 0. 0. 0.],-0.072265625,-0.0439453125,1.17919921875,[0. 0. 0. 0. 0. 0. 0. 0. 0.]
6.665820837020874,-0.01045580767095089,0.024755094200372696,-0.2352910041809082,0.971553385257721,[0. 0. 0. 0. 0. 0. 0. 0. 0.],6.53076171875,0.30517578125,-6.28662109375,[0. 0. 0. 0. 0. 0. 0. 0. 0.],0.0166015625,-0.03076171875,1.1416015625,[0. 0. 0. 0. 0. 0. 0. 0. 0.]
6.685789108276367,-0.00911154318600893,0.023433327674865723,-0.2361907958984375,0.971381425857544,[0. 0. 0. 0. 0. 0. 0. 0. 0.],4.33349609375,1.28173828125,-3.5400390625,[0. 0. 0. 0. 0. 0. 0. 0. 0.],-0.0419921875,-0.0048828125,0.8701171875,[0. 0. 0. 0. 0. 0. 0. 0. 0.]
6.7058868408203125,-0.007967599667608738,0.024116411805152893,-0.23658950626850128,0.97127765417099,[0. 0. 0. 0. 0. 0. 0. 0. 0.],-9.09423828125,3.5400390625,-2.50244140625,[0. 0. 0. 0. 0. 0. 0. 0. 0.],-0.05419921875,0.02783203125,0.8720703125,[0. 0. 0. 0. 0. 0. 0. 0. 0.]
6.725719928741455,-0.007291147485375404,0.024065986275672913,-0.23707014322280884,0.9711670279502869,[0. 0. 0. 0. 0. 0. 0. 0. 0.],-4.08935546875,1.52587890625,-3.72314453125,[0. 0. 0. 0. 0. 0. 0. 0. 0.],-0.0419921875,-0.01171875,1.06298828125,[0. 0. 0. 0. 0. 0. 0. 0. 0.]
6.745779514312744,-0.008278326131403446,0.023474086076021194,-0.23780988156795502,0.9709926843643188,[0. 0. 0. 0. 0. 0. 0. 0. 0.],5.55419921875,0.3662109375,-4.45556640625,[0. 0. 0. 0. 0. 0. 0. 0. 0.],-0.04345703125,-0.02978515625,1.06884765625,[0. 0. 0. 0. 0. 0. 0. 0. 0.]
6.76555871963501,-0.006415843032300472,0.0233747661113739,-0.23856759071350098,0.9708232879638672,[0. 0. 0. 0. 0. 0. 0. 0. 0.],1.708984375,-9.521484375,-4.45556640625,[0. 0. 0. 0. 0. 0. 0. 0. 0.],-0.0732421875,0.013671875,0.8388671875,[0. 0. 0. 0. 0. 0. 0. 0. 0.]
6.78567361831665,-0.005832975264638662,0.022348785772919655,-0.2395962029695511,0.9705979228019714,[0. 0. 0. 0. 0. 0. 0. 0. 0.],-1.64794921875,3.47900390625,-8.23974609375,[0. 0. 0. 0. 0. 0. 0. 0. 0.],0.05322265625,0.02001953125,1.02685546875,[0. 0. 0. 0. 0. 0. 0. 0. 0.]
6.807355642318726,-0.0044554658234119415,0.020420290529727936,-0.24129675328731537,0.9702262878417969,[0. 0. 0. 0. 0. 0. 0. 0. 0.],3.72314453125,-6.2255859375,-7.62939453125,[0. 0. 0. 0. 0. 0. 0. 0. 0.],-0.05078125,0.00048828125,1.14111328125,[0. 0. 0. 0. 0. 0. 0. 0. 0.]
6.8258514404296875,-0.0035525888670235872,0.02023693546652794,-0.24220487475395203,0.970007598400116,[0. 0. 0. 0. 0. 0. 0. 0. 0.],0.48828125,-7.32421875,-6.8359375,[0. 0. 0. 0. 0. 0. 0. 0. 0.],-0.08642578125,0.0224609375,0.9462890625,[0. 0. 0. 0. 0. 0. 0. 0. 0.]
6.8455586433410645,-0.002418502466753125,0.019600920379161835,-0.24352765083312988,0.9696928858757019,[0. 0. 0. 0. 0. 0. 0. 0. 0.],-5.43212890625,-1.03759765625,-7.4462890625,[0. 0. 0. 0. 0. 0. 0. 0. 0.],-0.02685546875,0.02685546875,0.86181640625,[0. 0. 0. 0. 0. 0. 0. 0. 0.]
6.866568088531494,-0.0020245679188519716,0.020242607221007347,-0.24505630135536194,0.9692954421043396,[0. 0. 0. 0. 0. 0. 0. 0. 0.],-8.6669921875,2.44140625,-7.38525390625,[0. 0. 0. 0. 0. 0. 0. 0. 0.],-0.04443359375,0.01171875,0.9560546875,[0. 0. 0. 0. 0. 0. 0. 0. 0.]
6.885735511779785,-0.0017651644302532077,0.02051972784101963,-0.24599024653434753,0.9690534472465515,[0. 0. 0. 0. 0. 0. 0. 0. 0.],-5.67626953125,1.15966796875,-8.36181640625,[0. 0. 0. 0. 0. 0. 0. 0. 0.],-0.037109375,-0.0087890625,0.97216796875,[0. 0. 0. 0. 0. 0. 0. 0. 0.]
6.906557321548462,-0.0011118835536763072,0.02095046266913414,-0.2474411427974701,0.9686757326126099,[0. 0. 0. 0. 0. 0. 0. 0. 0.],7.2021484375,-1.89208984375,-7.38525390625,[0. 0. 0. 0. 0. 0. 0. 0. 0.],-0.06884765625,-0.00244140625,1.16162109375,[0. 0. 0. 0. 0. 0. 0. 0. 0.]
6.9258458614349365,0.0001336861023446545,0.021270355209708214,-0.24812279641628265,0.9684950113296509,[0. 0. 0. 0. 0. 0. 0. 0. 0.],0.54931640625,-2.685546875,-4.82177734375,[0. 0. 0. 0. 0. 0. 0. 0. 0.],-0.0986328125,0.04931640625,1.12451171875,[0. 0. 0. 0. 0. 0. 0. 0. 0.]
6.945777893066406,0.001667675911448896,0.02058231085538864,-0.2492794245481491,0.9682115316390991,[0. 0. 0. 0. 0. 0. 0. 0. 0.],3.60107421875,-3.23486328125,-7.4462890625,[0. 0. 0. 0. 0. 0. 0. 0. 0.],-0.04052734375,0.03857421875,1.0986328125,[0. 0. 0. 0. 0. 0. 0. 0. 0.]
6.965662479400635,0.00325245363637805,0.018773706629872322,-0.25070324540138245,0.9678764343261719,[0. 0. 0. 0. 0. 0. 0. 0. 0.],3.2958984375,-1.220703125,-7.080078125,[0. 0. 0. 0. 0. 0. 0. 0. 0.],-0.02783203125,0.015625,0.94384765625,[0. 0. 0. 0. 0. 0. 0. 0. 0.]
6.985976696014404,0.005376442335546017,0.018879003822803497,-0.2517835795879364,0.9675844311714172,[0. 0. 0. 0. 0. 0. 0. 0. 0.],-1.953125,1.5869140625,-6.65283203125,[0. 0. 0. 0. 0. 0. 0. 0. 0.],-0.046875,0.05126953125,0.8818359375,[0. 0. 0. 0. 0. 0. 0. 0. 0.]
7.006409168243408,0.0063201067969202995,0.019430140033364296,-0.2529063820838928,0.967275083065033,[0. 0. 0. 0. 0. 0. 0. 0. 0.],-3.90625,-2.8076171875,-5.37109375,[0. 0. 0. 0. 0. 0. 0. 0. 0.],-0.06591796875,0.03369140625,1.06298828125,[0. 0. 0. 0. 0. 0. 0. 0. 0.]
7.025810718536377,0.006134832743555307,0.01968401111662388,-0.25370773673057556,0.9670612215995789,[0. 0. 0. 0. 0. 0. 0. 0. 0.],3.72314453125,-0.48828125,-6.77490234375,[0. 0. 0. 0. 0. 0. 0. 0. 0.],-0.03955078125,-0.01025390625,1.14697265625,[0. 0. 0. 0. 0. 0. 0. 0. 0.]
7.045888423919678,0.006477606948465109,0.020044345408678055,-0.2547113597393036,0.9667877554893494,[0. 0. 0. 0. 0. 0. 0. 0. 0.],5.92041015625,-6.2255859375,-5.2490234375,[0. 0. 0. 0. 0. 0. 0. 0. 0.],-0.07861328125,0.01123046875,0.91943359375,[0. 0. 0. 0. 0. 0. 0. 0. 0.]
7.0665459632873535,0.00758179510012269,0.019358966499567032,-0.25597772002220154,0.9664590954780579,[0. 0. 0. 0. 0. 0. 0. 0. 0.],-1.89208984375,1.28173828125,-7.26318359375,[0. 0. 0. 0. 0. 0. 0. 0. 0.],-0.0029296875,0.00048828125,0.9541015625,[0. 0. 0. 0. 0. 0. 0. 0. 0.]
7.086645603179932,0.006080034654587507,0.018762974068522453,-0.25734418630599976,0.9661185145378113,[0. 0. 0. 0. 0. 0. 0. 0. 0.],2.99072265625,-3.662109375,-9.1552734375,[0. 0. 0. 0. 0. 0. 0. 0. 0.],-0.0087890625,-0.0966796875,1.1650390625,[0. 0. 0. 0. 0. 0. 0. 0. 0.]
7.105863809585571,0.005577506963163614,0.01855596713721752,-0.25831300020217896,0.9658669829368591,[0. 0. 0. 0. 0. 0. 0. 0. 0.],2.9296875,-7.080078125,-6.40869140625,[0. 0. 0. 0. 0. 0. 0. 0. 0.],-0.0869140625,-0.01806640625,1.08154296875,[0. 0. 0. 0. 0. 0. 0. 0. 0.]
7.125663995742798,0.0033029974438250065,0.018861521035432816,-0.25973111391067505,0.9654911756515503,[0. 0. 0. 0. 0. 0. 0. 0. 0.],-6.77490234375,-1.220703125,-5.859375,[0. 0. 0. 0. 0. 0. 0. 0. 0.],-0.041015625,-0.06201171875,0.8125,[0. 0. 0. 0. 0. 0. 0. 0. 0.]
7.1485960483551025,0.0008366466499865055,0.01985933631658554,-0.26080557703971863,0.9651867151260376,[0. 0. 0. 0. 0. 0. 0. 0. 0.],-7.080078125,4.82177734375,-6.16455078125,[0. 0. 0. 0. 0. 0. 0. 0. 0.],-0.02734375,-0.03369140625,0.89990234375,[0. 0. 0. 0. 0. 0. 0. 0. 0.]
7.166074514389038,-0.001349844504147768,0.0207672119140625,-0.26158958673477173,0.9649548530578613,[0. 0. 0. 0. 0. 0. 0. 0. 0.],-10.07080078125,2.685546875,-5.37109375,[0. 0. 0. 0. 0. 0. 0. 0. 0.],-0.05078125,-0.037109375,0.92724609375,[0. 0. 0. 0. 0. 0. 0. 0. 0.]
7.186427593231201,-0.0021536252461373806,0.02194727025926113,-0.26241981983184814,0.9647018909454346,[0. 0. 0. 0. 0. 0. 0. 0. 0.],10.80322265625,-2.62451171875,-4.5166015625,[0. 0. 0. 0. 0. 0. 0. 0. 0.],-0.06591796875,-0.07763671875,1.22119140625,[0. 0. 0. 0. 0. 0. 0. 0. 0.]
7.206709384918213,-0.0005112895742058754,0.022121908143162727,-0.26300182938575745,0.9645415544509888,[0. 0. 0. 0. 0. 0. 0. 0. 0.],0.3662109375,-0.54931640625,-4.08935546875,[0. 0. 0. 0. 0. 0. 0. 0. 0.],-0.05078125,0.0302734375,1.087890625,[0. 0. 0. 0. 0. 0. 0. 0. 0.]
7.228118658065796,0.0006575075094588101,0.021484775468707085,-0.26374751329421997,0.9643521904945374,[0. 0. 0. 0. 0. 0. 0. 0. 0.],5.615234375,-8.7890625,-4.150390625,[0. 0. 0. 0. 0. 0. 0. 0. 0.],-0.06494140625,-0.01171875,1.0048828125,[0. 0. 0. 0. 0. 0. 0. 0. 0.]
7.245791912078857,0.00031432678224518895,0.020914878696203232,-0.26431941986083984,0.9642083644866943,[0. 0. 0. 0. 0. 0. 0. 0. 0.],5.92041015625,0.1220703125,-4.150390625,[0. 0. 0. 0. 0. 0. 0. 0. 0.],-0.0126953125,-0.02734375,0.9384765625,[0. 0. 0. 0. 0. 0. 0. 0. 0.]
7.265726566314697,0.0012924423208460212,0.020218465477228165,-0.26483914256095886,0.964079737663269,[0. 0. 0. 0. 0. 0. 0. 0. 0.],-4.39453125,-0.30517578125,-0.79345703125,[0. 0. 0. 0. 0. 0. 0. 0. 0.],-0.0673828125,0.0322265625,0.92578125,[0. 0. 0. 0. 0. 0. 0. 0. 0.]
7.285633563995361,0.002010911703109741,0.021481255069375038,-0.26493561267852783,0.9640247225761414,[0. 0. 0. 0. 0. 0. 0. 0. 0.],-2.44140625,1.40380859375,-0.18310546875,[0. 0. 0. 0. 0. 0. 0. 0. 0.],-0.0576171875,-0.0029296875,1.07275390625,[0. 0. 0. 0. 0. 0. 0. 0. 0.]
7.306533098220825,0.0014251304091885686,0.022740621119737625,-0.26494327187538147,0.9639947414398193,[0. 0. 0. 0. 0. 0. 0. 0. 0.],1.77001953125,-7.14111328125,0.1220703125,[0. 0. 0. 0. 0. 0. 0. 0. 0.],-0.0732421875,-0.02783203125,0.96728515625,[0. 0. 0. 0. 0. 0. 0. 0. 0.]
7.3258771896362305,0.0003718571679200977,0.02256021462380886,-0.26507166028022766,0.9639647006988525,[0. 0. 0. 0. 0. 0. 0. 0. 0.],0.6103515625,1.46484375,-1.953125,[0. 0. 0. 0. 0. 0. 0. 0. 0.],-0.00146484375,-0.08203125,0.95458984375,[0. 0. 0. 0. 0. 0. 0. 0. 0.]
7.350275278091431,-0.0010591921163722873,0.020828694105148315,-0.26626238226890564,0.9636749625205994,[0. 0. 0. 0. 0. 0. 0. 0. 0.],-0.79345703125,-1.64794921875,-4.150390625,[0. 0. 0. 0. 0. 0. 0. 0. 0.],-0.00732421875,-0.09228515625,1.01513671875,[0. 0. 0. 0. 0. 0. 0. 0. 0.]
7.365676403045654,-0.003204845590516925,0.020850881934165955,-0.26677900552749634,0.9635268449783325,[0. 0. 0. 0. 0. 0. 0. 0. 0.],-8.056640625,-6.16455078125,-4.82177734375,[0. 0. 0. 0. 0. 0. 0. 0. 0.],-0.05126953125,-0.12548828125,0.8916015625,[0. 0. 0. 0. 0. 0. 0. 0. 0.]
7.385749101638794,-0.005675395485013723,0.021166032180190086,-0.2672928273677826,0.9633661508560181,[0. 0. 0. 0. 0. 0. 0. 0. 0.],-10.25390625,2.197265625,-3.11279296875,[0. 0. 0. 0. 0. 0. 0. 0. 0.],-0.0205078125,-0.13525390625,0.8369140625,[0. 0. 0. 0. 0. 0. 0. 0. 0.]
7.405644655227661,-0.009198041632771492,0.02196064591407776,-0.2682056725025177,0.9630674719810486,[0. 0. 0. 0. 0. 0. 0. 0. 0.],-17.08984375,7.8125,-4.21142578125,[0. 0. 0. 0. 0. 0. 0. 0. 0.],0.03662109375,-0.15625,0.83740234375,[0. 0. 0. 0. 0. 0. 0. 0. 0.]
7.426524639129639,-0.013244563713669777,0.024249661713838577,-0.26903483271598816,0.9627341032028198,[0. 0. 0. 0. 0. 0. 0. 0. 0.],-1.40380859375,4.21142578125,-3.47900390625,[0. 0. 0. 0. 0. 0. 0. 0. 0.],-0.06884765625,-0.34130859375,1.1796875,[0. 0. 0. 0. 0. 0. 0. 0. 0.]
7.446230173110962,-0.014408588409423828,0.024152012541890144,-0.2698226273059845,0.9624993205070496,[0. 0. 0. 0. 0. 0. 0. 0. 0.],2.62451171875,-1.03759765625,-5.4931640625,[0. 0. 0. 0. 0. 0. 0. 0. 0.],-0.01611328125,-0.2900390625,1.19287109375,[0. 0. 0. 0. 0. 0. 0. 0. 0.]
7.465777397155762,-0.016187289729714394,0.023569386452436447,-0.27011218667030334,0.9624042510986328,[0. 0. 0. 0. 0. 0. 0. 0. 0.],-4.82177734375,-15.93017578125,-1.40380859375,[0. 0. 0. 0. 0. 0. 0. 0. 0.],-0.06103515625,-0.24951171875,1.03173828125,[0. 0. 0. 0. 0. 0. 0. 0. 0.]
7.485569477081299,-0.0184183232486248,0.021588487550616264,-0.2687116861343384,0.962802529335022,[0. 0. 0. 0. 0. 0. 0. 0. 0.],2.3193359375,-9.82666015625,15.380859375,[0. 0. 0. 0. 0. 0. 0. 0. 0.],0.01416015625,-0.3251953125,1.0166015625,[0. 0. 0. 0. 0. 0. 0. 0. 0.]
7.511068344116211,-0.02007787674665451,0.02079182118177414,-0.2644394338130951,0.9639691114425659,[0. 0. 0. 0. 0. 0. 0. 0. 0.],-6.16455078125,-5.79833984375,31.79931640625,[0. 0. 0. 0. 0. 0. 0. 0. 0.],0.060546875,-0.23095703125,0.890625,[0. 0. 0. 0. 0. 0. 0. 0. 0.]
7.526488304138184,-0.023213554173707962,0.019795283675193787,-0.25702112913131714,0.9659241437911987,[0. 0. 0. 0. 0. 0. 0. 0. 0.],-5.9814453125,-11.41357421875,48.52294921875,[0. 0. 0. 0. 0. 0. 0. 0. 0.],0.025390625,-0.2919921875,0.9765625,[0. 0. 0. 0. 0. 0. 0. 0. 0.]
7.5473668575286865,-0.025495659559965134,0.016219215467572212,-0.2443600445985794,0.969213604927063,[0. 0. 0. 0. 0. 0. 0. 0. 0.],5.67626953125,-21.91162109375,66.83349609375,[0. 0. 0. 0. 0. 0. 0. 0. 0.],0.044921875,-0.271484375,0.92626953125,[0. 0. 0. 0. 0. 0. 0. 0. 0.]
7.56757664680481,-0.02736128680408001,0.014746973291039467,-0.23448581993579865,0.9716225266456604,[0. 0. 0. 0. 0. 0. 0. 0. 0.],-8.4228515625,-9.1552734375,83.740234375,[0. 0. 0. 0. 0. 0. 0. 0. 0.],0.10205078125,-0.15966796875,0.74072265625,[0. 0. 0. 0. 0. 0. 0. 0. 0.]
7.585666179656982,-0.03030952624976635,0.011780227534472942,-0.21926097571849823,0.9751242399215698,[0. 0. 0. 0. 0. 0. 0. 0. 0.],-4.5166015625,-23.0712890625,92.28515625,[0. 0. 0. 0. 0. 0. 0. 0. 0.],0.158203125,-0.32568359375,1.1064453125,[0. 0. 0. 0. 0. 0. 0. 0. 0.]
7.605570077896118,-0.03145182132720947,0.009741376154124737,-0.19741836190223694,0.9797662496566772,[0. 0. 0. 0. 0. 0. 0. 0. 0.],3.84521484375,-0.91552734375,109.06982421875,[0. 0. 0. 0. 0. 0. 0. 0. 0.],0.2802734375,-0.302734375,1.193359375,[0. 0. 0. 0. 0. 0. 0. 0. 0.]
7.625676155090332,-0.03142748400568962,0.008737854659557343,-0.1833280622959137,0.982510507106781,[0. 0. 0. 0. 0. 0. 0. 0. 0.],7.32421875,-2.5634765625,113.037109375,[0. 0. 0. 0. 0. 0. 0. 0. 0.],0.26708984375,-0.27783203125,1.09130859375,[0. 0. 0. 0. 0. 0. 0. 0. 0.]
7.6449456214904785,-0.03151463344693184,0.008028429001569748,-0.16279004514217377,0.9861246347427368,[0. 0. 0. 0. 0. 0. 0. 0. 0.],12.26806640625,-16.4794921875,124.08447265625,[0. 0. 0. 0. 0. 0. 0. 0. 0.],0.14501953125,-0.2802734375,0.90478515625,[0. 0. 0. 0. 0. 0. 0. 0. 0.]
7.660810470581055,-0.03215069696307182,0.004916715901345015,-0.1397598683834076,0.9896511435508728,[0. 0. 0. 0. 0. 0. 0. 0. 0.],-4.8828125,-2.62451171875,142.15087890625,[0. 0. 0. 0. 0. 0. 0. 0. 0.],0.1953125,-0.140625,0.7685546875,[0. 0. 0. 0. 0. 0. 0. 0. 0.]
7.685547828674316,-0.034878551959991455,0.0028300003614276648,-0.11447687447071075,0.9928094148635864,[0. 0. 0. 0. 0. 0. 0. 0. 0.],0.67138671875,-26.91650390625,149.169921875,[0. 0. 0. 0. 0. 0. 0. 0. 0.],0.16650390625,-0.26171875,0.828125,[0. 0. 0. 0. 0. 0. 0. 0. 0.]
7.705542802810669,-0.03577815741300583,-0.0006069833762012422,-0.08816609531641006,0.9954628348350525,[0. 0. 0. 0. 0. 0. 0. 0. 0.],8.85009765625,-14.892578125,153.25927734375,[0. 0. 0. 0. 0. 0. 0. 0. 0.],0.35107421875,-0.41943359375,1.2373046875,[0. 0. 0. 0. 0. 0. 0. 0. 0.]
7.7255518436431885,-0.034475237131118774,-0.0013002855703234673,-0.06089288741350174,0.99754798412323,[0. 0. 0. 0. 0. 0. 0. 0. 0.],10.68115234375,3.90625,160.70556640625,[0. 0. 0. 0. 0. 0. 0. 0. 0.],0.41455078125,-0.29296875,1.05078125,[0. 0. 0. 0. 0. 0. 0. 0. 0.]
7.746734380722046,-0.033830031752586365,-0.003786036279052496,-0.032291755080223083,0.9988986849784851,[0. 0. 0. 0. 0. 0. 0. 0. 0.],4.7607421875,-8.11767578125,166.8701171875,[0. 0. 0. 0. 0. 0. 0. 0. 0.],0.30224609375,-0.2802734375,0.9697265625,[0. 0. 0. 0. 0. 0. 0. 0. 0.]
7.76622200012207,-0.03537103533744812,-0.007005719933658838,0.005410743877291679,0.9993350505828857,[0. 0. 0. 0. 0. 0. 0. 0. 0.],-7.080078125,-24.35302734375,174.1943359375,[0. 0. 0. 0. 0. 0. 0. 0. 0.],0.23779296875,-0.22607421875,0.70849609375,[0. 0. 0. 0. 0. 0. 0. 0. 0.]
7.782649993896484,-0.03611253201961517,-0.011761849746108055,0.03648635372519493,0.9986121654510498,[0. 0. 0. 0. 0. 0. 0. 0. 0.],8.72802734375,-16.2353515625,179.6875,[0. 0. 0. 0. 0. 0. 0. 0. 0.],0.40283203125,-0.3955078125,1.0908203125,[0. 0. 0. 0. 0. 0. 0. 0. 0.]
7.805666446685791,-0.03561587259173393,-0.010637125931680202,0.06806743890047073,0.9969881176948547,[0. 0. 0. 0. 0. 0. 0. 0. 0.],9.27734375,17.4560546875,183.53271484375,[0. 0. 0. 0. 0. 0. 0. 0. 0.],0.556640625,-0.35107421875,1.15576171875,[0. 0. 0. 0. 0. 0. 0. 0. 0.]
7.8258233070373535,-0.034134600311517715,-0.012011070735752583,0.09192141145467758,0.9951086044311523,[0. 0. 0. 0. 0. 0. 0. 0. 0.],17.08984375,-21.484375,182.12890625,[0. 0. 0. 0. 0. 0. 0. 0. 0.],0.3154296875,-0.34619140625,1.00927734375,[0. 0. 0. 0. 0. 0. 0. 0. 0.]
7.846545696258545,-0.03392171487212181,-0.016688862815499306,0.13335461914539337,0.9903470277786255,[0. 0. 0. 0. 0. 0. 0. 0. 0.],-2.50244140625,-22.64404296875,192.68798828125,[0. 0. 0. 0. 0. 0. 0. 0. 0.],0.29931640625,-0.20947265625,0.666015625,[0. 0. 0. 0. 0. 0. 0. 0. 0.]
7.860549449920654,-0.03432438522577286,-0.020080313086509705,0.15879015624523163,0.9865111708641052,[0. 0. 0. 0. 0. 0. 0. 0. 0.],3.0517578125,-15.9912109375,199.89013671875,[0. 0. 0. 0. 0. 0. 0. 0. 0.],0.40625,-0.3271484375,0.9404296875,[0. 0. 0. 0. 0. 0. 0. 0. 0.]
7.88569974899292,-0.033606596291065216,-0.019984569400548935,0.20140491425991058,0.9787274599075317,[0. 0. 0. 0. 0. 0. 0. 0. 0.],20.751953125,-10.68115234375,194.15283203125,[0. 0. 0. 0. 0. 0. 0. 0. 0.],0.57763671875,-0.37353515625,1.2021484375,[0. 0. 0. 0. 0. 0. 0. 0. 0.]
7.905635833740234,-0.03184264525771141,-0.02068215236067772,0.22641676664352417,0.9732901453971863,[0. 0. 0. 0. 0. 0. 0. 0. 0.],14.404296875,-0.1220703125,198.1201171875,[0. 0. 0. 0. 0. 0. 0. 0. 0.],0.5390625,-0.2412109375,1.0087890625,[0. 0. 0. 0. 0. 0. 0. 0. 0.]
7.925651550292969,-0.029622400179505348,-0.023846335709095,0.26744458079338074,0.9628226161003113,[0. 0. 0. 0. 0. 0. 0. 0. 0.],11.8408203125,-35.5224609375,194.27490234375,[0. 0. 0. 0. 0. 0. 0. 0. 0.],0.47705078125,-0.2177734375,0.845703125,[0. 0. 0. 0. 0. 0. 0. 0. 0.]
7.946840763092041,-0.02965557761490345,-0.026568185538053513,0.29177650809288025,0.9556574821472168,[0. 0. 0. 0. 0. 0. 0. 0. 0.],-5.79833984375,-14.5263671875,195.4345703125,[0. 0. 0. 0. 0. 0. 0. 0. 0.],0.580078125,-0.20263671875,0.830078125,[0. 0. 0. 0. 0. 0. 0. 0. 0.]
7.966468095779419,-0.030587447807192802,-0.026779411360621452,0.3232120871543884,0.9454529881477356,[0. 0. 0. 0. 0. 0. 0. 0. 0.],3.5400390625,5.37109375,185.1806640625,[0. 0. 0. 0. 0. 0. 0. 0. 0.],0.70556640625,-0.29443359375,1.06689453125,[0. 0. 0. 0. 0. 0. 0. 0. 0.]
7.9858996868133545,-0.028735823929309845,-0.027041645720601082,0.3526275157928467,0.9349314570426941,[0. 0. 0. 0. 0. 0. 0. 0. 0.],15.2587890625,0.06103515625,174.8046875,[0. 0. 0. 0. 0. 0. 0. 0. 0.],0.6630859375,-0.30810546875,1.1435546875,[0. 0. 0. 0. 0. 0. 0. 0. 0.]
8.005684614181519,-0.027610324323177338,-0.025366131216287613,0.3811728358268738,0.9237432479858398,[0. 0. 0. 0. 0. 0. 0. 0. 0.],5.67626953125,-1.3427734375,177.490234375,[0. 0. 0. 0. 0. 0. 0. 0. 0.],0.51025390625,-0.1591796875,0.7841796875,[0. 0. 0. 0. 0. 0. 0. 0. 0.]
8.025864124298096,-0.027596820145845413,-0.02828456461429596,0.4091513752937317,0.9116104245185852,[0. 0. 0. 0. 0. 0. 0. 0. 0.],-2.38037109375,-25.7568359375,170.10498046875,[0. 0. 0. 0. 0. 0. 0. 0. 0.],0.55908203125,-0.21826171875,0.9423828125,[0. 0. 0. 0. 0. 0. 0. 0. 0.]
8.040621995925903,-0.0278475321829319,-0.030183443799614906,0.43613147735595703,0.8989453911781311,[0. 0. 0. 0. 0. 0. 0. 0. 0.],-2.44140625,-2.99072265625,167.236328125,[0. 0. 0. 0. 0. 0. 0. 0. 0.],0.66552734375,-0.2197265625,0.97607421875,[0. 0. 0. 0. 0. 0. 0. 0. 0.]
8.065802097320557,-0.026710063219070435,-0.030854588374495506,0.46099087595939636,0.8864660859107971,[0. 0. 0. 0. 0. 0. 0. 0. 0.],8.7890625,5.0048828125,156.18896484375,[0. 0. 0. 0. 0. 0. 0. 0. 0.],0.66650390625,-0.22998046875,0.9892578125,[0. 0. 0. 0. 0. 0. 0. 0. 0.]
8.086271286010742,-0.026168502867221832,-0.028357379138469696,0.48887136578559875,0.8715021014213562,[0. 0. 0. 0. 0. 0. 0. 0. 0.],12.87841796875,0.18310546875,137.14599609375,[0. 0. 0. 0. 0. 0. 0. 0. 0.],0.65234375,-0.1982421875,1.06884765625,[0. 0. 0. 0. 0. 0. 0. 0. 0.]
8.105629920959473,-0.024852925911545753,-0.02785334549844265,0.5034014582633972,0.863245964050293,[0. 0. 0. 0. 0. 0. 0. 0. 0.],9.33837890625,4.69970703125,124.57275390625,[0. 0. 0. 0. 0. 0. 0. 0. 0.],0.62353515625,-0.1572265625,1.02197265625,[0. 0. 0. 0. 0. 0. 0. 0. 0.]
8.12556266784668,-0.023886069655418396,-0.027514105662703514,0.5202479362487793,0.8532376885414124,[0. 0. 0. 0. 0. 0. 0. 0. 0.],6.103515625,-7.32421875,98.32763671875,[0. 0. 0. 0. 0. 0. 0. 0. 0.],0.6484375,-0.10107421875,0.95458984375,[0. 0. 0. 0. 0. 0. 0. 0. 0.]
8.145838260650635,-0.02103406935930252,-0.029532181099057198,0.5326004028320312,0.8455898761749268,[0. 0. 0. 0. 0. 0. 0. 0. 0.],5.9814453125,-13.61083984375,73.974609375,[0. 0. 0. 0. 0. 0. 0. 0. 0.],0.666015625,-0.0751953125,1.0283203125,[0. 0. 0. 0. 0. 0. 0. 0. 0.]
8.166727304458618,-0.02003624476492405,-0.03022672049701214,0.5419227480888367,0.839645504951477,[0. 0. 0. 0. 0. 0. 0. 0. 0.],4.08935546875,0.732421875,56.396484375,[0. 0. 0. 0. 0. 0. 0. 0. 0.],0.6328125,-0.052734375,0.921875,[0. 0. 0. 0. 0. 0. 0. 0. 0.]
8.186235427856445,-0.01759900152683258,-0.03227978199720383,0.5503508448600769,0.8341236114501953,[0. 0. 0. 0. 0. 0. 0. 0. 0.],4.150390625,-11.41357421875,41.015625,[0. 0. 0. 0. 0. 0. 0. 0. 0.],0.6015625,-0.05322265625,0.958984375,[0. 0. 0. 0. 0. 0. 0. 0. 0.]
8.201260566711426,-0.01614367961883545,-0.03283267840743065,0.5543625354766846,0.831470787525177,[0. 0. 0. 0. 0. 0. 0. 0. 0.],8.48388671875,-0.91552734375,35.5224609375,[0. 0. 0. 0. 0. 0. 0. 0. 0.],0.69189453125,-0.07177734375,1.076171875,[0. 0. 0. 0. 0. 0. 0. 0. 0.]
8.225382804870605,-0.01426570862531662,-0.03278561681509018,0.5595045685768127,0.8280556797981262,[0. 0. 0. 0. 0. 0. 0. 0. 0.],6.77490234375,-5.67626953125,34.72900390625,[0. 0. 0. 0. 0. 0. 0. 0. 0.],0.60498046875,-0.02880859375,1.03369140625,[0. 0. 0. 0. 0. 0. 0. 0. 0.]
8.245610237121582,-0.012841792777180672,-0.0334581583738327,0.5656658411026001,0.8238555192947388,[0. 0. 0. 0. 0. 0. 0. 0. 0.],5.0048828125,-1.15966796875,32.89794921875,[0. 0. 0. 0. 0. 0. 0. 0. 0.],0.52880859375,0.0234375,0.86669921875,[0. 0. 0. 0. 0. 0. 0. 0. 0.]
8.265589475631714,-0.011005853302776814,-0.03442690148949623,0.5689491629600525,0.8215780854225159,[0. 0. 0. 0. 0. 0. 0. 0. 0.],7.62939453125,-8.85009765625,28.564453125,[0. 0. 0. 0. 0. 0. 0. 0. 0.],0.52294921875,0.03125,0.845703125,[0. 0. 0. 0. 0. 0. 0. 0. 0.]
8.285902261734009,-0.00816244538873434,-0.03516865521669388,0.5728899240493774,0.8188368678092957,[0. 0. 0. 0. 0. 0. 0. 0. 0.],12.0849609375,-8.9111328125,26.67236328125,[0. 0. 0. 0. 0. 0. 0. 0. 0.],0.650390625,0.052734375,1.03466796875,[0. 0. 0. 0. 0. 0. 0. 0. 0.]
8.305716753005981,-0.005999062210321426,-0.037333518266677856,0.5766414999961853,0.8161218762397766,[0. 0. 0. 0. 0. 0. 0. 0. 0.],-5.79833984375,-8.85009765625,26.123046875,[0. 0. 0. 0. 0. 0. 0. 0. 0.],0.5673828125,0.13525390625,0.84814453125,[0. 0. 0. 0. 0. 0. 0. 0. 0.]
8.32561707496643,-0.005497796460986137,-0.0401042178273201,0.5806153416633606,0.8131711483001709,[0. 0. 0. 0. 0. 0. 0. 0. 0.],-3.41796875,-3.35693359375,18.1884765625,[0. 0. 0. 0. 0. 0. 0. 0. 0.],0.59619140625,0.07568359375,0.9609375,[0. 0. 0. 0. 0. 0. 0. 0. 0.]
8.345764398574829,-0.00554945832118392,-0.03915073350071907,0.5820525288581848,0.8121892213821411,[0. 0. 0. 0. 0. 0. 0. 0. 0.],3.23486328125,11.41357421875,9.8876953125,[0. 0. 0. 0. 0. 0. 0. 0. 0.],0.60107421875,0.1083984375,1.091796875,[0. 0. 0. 0. 0. 0. 0. 0. 0.]
8.36665415763855,-0.0031762190628796816,-0.037055645138025284,0.5817787647247314,0.8124964237213135,[0. 0. 0. 0. 0. 0. 0. 0. 0.],9.033203125,15.9912109375,-10.6201171875,[0. 0. 0. 0. 0. 0. 0. 0. 0.],0.43212890625,0.2861328125,1.1162109375,[0. 0. 0. 0. 0. 0. 0. 0. 0.]
8.385539770126343,-0.003394282888621092,-0.033434901386499405,0.5800109505653381,0.8139152526855469,[0. 0. 0. 0. 0. 0. 0. 0. 0.],7.50732421875,35.70556640625,-21.6064453125,[0. 0. 0. 0. 0. 0. 0. 0. 0.],0.328125,0.36962890625,1.09814453125,[0. 0. 0. 0. 0. 0. 0. 0. 0.]
8.407159328460693,-0.0036036353558301926,-0.02646332047879696,0.5724099278450012,0.8195326328277588,[0. 0. 0. 0. 0. 0. 0. 0. 0.],10.7421875,24.90234375,-53.64990234375,[0. 0. 0. 0. 0. 0. 0. 0. 0.],0.01806640625,0.39013671875,1.04150390625,[0. 0. 0. 0. 0. 0. 0. 0. 0.]
8.425572872161865,-0.003252445487305522,-0.022217757999897003,0.565519392490387,0.8244293928146362,[0. 0. 0. 0. 0. 0. 0. 0. 0.],12.451171875,27.40478515625,-67.81005859375,[0. 0. 0. 0. 0. 0. 0. 0. 0.],-0.0126953125,0.3818359375,0.95947265625,[0. 0. 0. 0. 0. 0. 0. 0. 0.]
8.445817708969116,-0.0031685696449130774,-0.01678510010242462,0.5535871982574463,0.8326160311698914,[0. 0. 0. 0. 0. 0. 0. 0. 0.],4.33349609375,24.71923828125,-91.1865234375,[0. 0. 0. 0. 0. 0. 0. 0. 0.],-0.04296875,0.39892578125,0.8349609375,[0. 0. 0. 0. 0. 0. 0. 0. 0.]
8.466914415359497,-0.002505337819457054,-0.013828094117343426,0.5391073822975159,0.8421198725700378,[0. 0. 0. 0. 0. 0. 0. 0. 0.],3.11279296875,1.15966796875,-104.6142578125,[0. 0. 0. 0. 0. 0. 0. 0. 0.],-0.201171875,0.39404296875,0.9833984375,[0. 0. 0. 0. 0. 0. 0. 0. 0.]
8.486731052398682,-0.0009898662101477385,-0.010960085317492485,0.5188061594963074,0.8548210859298706,[0. 0. 0. 0. 0. 0. 0. 0. 0.],3.7841796875,7.2021484375,-112.060546875,[0. 0. 0. 0. 0. 0. 0. 0. 0.],-0.1416015625,0.38671875,1.1201171875,[0. 0. 0. 0. 0. 0. 0. 0. 0.]
8.506303310394287,-0.0008126077591441572,-0.0087111322209239,0.5063531398773193,0.8622817993164062,[0. 0. 0. 0. 0. 0. 0. 0. 0.],-0.18310546875,13.7939453125,-109.9853515625,[0. 0. 0. 0. 0. 0. 0. 0. 0.],-0.1611328125,0.37744140625,1.0810546875,[0. 0. 0. 0. 0. 0. 0. 0. 0.]
8.521457433700562,0.000368492299458012,-0.005373210180550814,0.4854958653450012,0.874222457408905,[0. 0. 0. 0. 0. 0. 0. 0. 0.],5.92041015625,-5.4931640625,-109.92431640625,[0. 0. 0. 0. 0. 0. 0. 0. 0.],-0.2587890625,0.3193359375,0.984375,[0. 0. 0. 0. 0. 0. 0. 0. 0.]
8.545647621154785,0.0014629429206252098,-0.004644325934350491,0.47288861870765686,0.881108820438385,[0. 0. 0. 0. 0. 0. 0. 0. 0.],1.3427734375,-1.77001953125,-111.572265625,[0. 0. 0. 0. 0. 0. 0. 0. 0.],-0.189453125,0.3505859375,0.9150390625,[0. 0. 0. 0. 0. 0. 0. 0. 0.]
8.565763235092163,0.0013124023098498583,-0.002441038843244314,0.455949991941452,0.8900010585784912,[0. 0. 0. 0. 0. 0. 0. 0. 0.],0.0,5.7373046875,-107.36083984375,[0. 0. 0. 0. 0. 0. 0. 0. 0.],-0.154296875,0.3125,0.97216796875,[0. 0. 0. 0. 0. 0. 0. 0. 0.]
8.585570335388184,0.0035031435545533895,-0.0022570928558707237,0.4400504529476166,0.8979634046554565,[0. 0. 0. 0. 0. 0. 0. 0. 0.],1.64794921875,-6.65283203125,-98.2666015625,[0. 0. 0. 0. 0. 0. 0. 0. 0.],-0.2392578125,0.29248046875,0.978515625,[0. 0. 0. 0. 0. 0. 0. 0. 0.]
8.606783390045166,0.004082533065229654,-0.0009949917439371347,0.42598727345466614,0.9047194123268127,[0. 0. 0. 0. 0. 0. 0. 0. 0.],-4.0283203125,3.72314453125,-82.763671875,[0. 0. 0. 0. 0. 0. 0. 0. 0.],-0.15625,0.3203125,0.99609375,[0. 0. 0. 0. 0. 0. 0. 0. 0.]
8.62580394744873,0.00473443791270256,0.0001113724138122052,0.41231662034988403,0.9110283851623535,[0. 0. 0. 0. 0. 0. 0. 0. 0.],0.9765625,-8.9111328125,-58.65478515625,[0. 0. 0. 0. 0. 0. 0. 0. 0.],-0.25341796875,0.27783203125,1.0634765625,[0. 0. 0. 0. 0. 0. 0. 0. 0.]
8.642022609710693,0.0056813801638782024,0.0004063548403792083,0.40426725149154663,0.9146232008934021,[0. 0. 0. 0. 0. 0. 0. 0. 0.],-3.90625,-2.99072265625,-43.88427734375,[0. 0. 0. 0. 0. 0. 0. 0. 0.],-0.166015625,0.302734375,0.95458984375,[0. 0. 0. 0. 0. 0. 0. 0. 0.]
8.666743755340576,0.006355653516948223,0.0009709964506328106,0.39860033988952637,0.9171022772789001,[0. 0. 0. 0. 0. 0. 0. 0. 0.],-0.54931640625,-4.5166015625,-30.21240234375,[0. 0. 0. 0. 0. 0. 0. 0. 0.],-0.1728515625,0.30517578125,1.005859375,[0. 0. 0. 0. 0. 0. 0. 0. 0.]
8.68884825706482,0.00802843738347292,0.0014648267533630133,0.3946523666381836,0.9187942743301392,[0. 0. 0. 0. 0. 0. 0. 0. 0.],4.08935546875,-3.2958984375,-21.6064453125,[0. 0. 0. 0. 0. 0. 0. 0. 0.],-0.17822265625,0.3134765625,1.044921875,[0. 0. 0. 0. 0. 0. 0. 0. 0.]
8.70560073852539,0.009163590148091316,0.002160971751436591,0.39239010214805603,0.9197507500648499,[0. 0. 0. 0. 0. 0. 0. 0. 0.],2.44140625,-3.5400390625,-17.578125,[0. 0. 0. 0. 0. 0. 0. 0. 0.],-0.15234375,0.32373046875,0.99169921875,[0. 0. 0. 0. 0. 0. 0. 0. 0.]
8.72570276260376,0.010287167504429817,0.0032324125058948994,0.38983091711997986,0.920823335647583,[0. 0. 0. 0. 0. 0. 0. 0. 0.],-0.79345703125,0.244140625,-15.07568359375,[0. 0. 0. 0. 0. 0. 0. 0. 0.],-0.13818359375,0.353515625,1.001953125,[0. 0. 0. 0. 0. 0. 0. 0. 0.]
8.7486891746521,0.011266300454735756,0.004928612615913153,0.38655030727386475,0.9221863150596619,[0. 0. 0. 0. 0. 0. 0. 0. 0.],-0.6103515625,0.79345703125,-17.51708984375,[0. 0. 0. 0. 0. 0. 0. 0. 0.],-0.15234375,0.3544921875,0.99755859375,[0. 0. 0. 0. 0. 0. 0. 0. 0.]
8.766140937805176,0.011906917206943035,0.005898186471313238,0.38376113772392273,0.9233368635177612,[0. 0. 0. 0. 0. 0. 0. 0. 0.],-0.732421875,-1.220703125,-28.74755859375,[0. 0. 0. 0. 0. 0. 0. 0. 0.],-0.12890625,0.3564453125,0.98681640625,[0. 0. 0. 0. 0. 0. 0. 0. 0.]
8.786426544189453,0.013576559722423553,0.0064539373852312565,0.3781302869319916,0.9256303906440735,[0. 0. 0. 0. 0. 0. 0. 0. 0.],1.15966796875,-4.5166015625,-26.42822265625,[0. 0. 0. 0. 0. 0. 0. 0. 0.],-0.13623046875,0.32470703125,0.9990234375,[0. 0. 0. 0. 0. 0. 0. 0. 0.]
8.807413339614868,0.01448710449039936,0.0071556782349944115,0.37527698278427124,0.9267719388008118,[0. 0. 0. 0. 0. 0. 0. 0. 0.],1.40380859375,-1.0986328125,-22.3388671875,[0. 0. 0. 0. 0. 0. 0. 0. 0.],-0.07958984375,0.3134765625,1.01025390625,[0. 0. 0. 0. 0. 0. 0. 0. 0.]
8.82562255859375,0.016077421605587006,0.007329297251999378,0.3723162114620209,0.9279377460479736,[0. 0. 0. 0. 0. 0. 0. 0. 0.],-1.220703125,-5.615234375,-14.58740234375,[0. 0. 0. 0. 0. 0. 0. 0. 0.],-0.0732421875,0.34423828125,1.04150390625,[0. 0. 0. 0. 0. 0. 0. 0. 0.]
8.845760345458984,0.017324307933449745,0.00751843536272645,0.3703821301460266,0.9286875128746033,[0. 0. 0. 0. 0. 0. 0. 0. 0.],-0.732421875,-2.5634765625,-8.9111328125,[0. 0. 0. 0. 0. 0. 0. 0. 0.],-0.0078125,0.318359375,1.03173828125,[0. 0. 0. 0. 0. 0. 0. 0. 0.]
8.86608099937439,0.018578289076685905,0.007986386306583881,0.36965078115463257,0.9289507269859314,[0. 0. 0. 0. 0. 0. 0. 0. 0.],-0.8544921875,-0.732421875,-2.01416015625,[0. 0. 0. 0. 0. 0. 0. 0. 0.],-0.02783203125,0.31689453125,1.0087890625,[0. 0. 0. 0. 0. 0. 0. 0. 0.]
8.886926412582397,0.02030993066728115,0.008425899781286716,0.3698553144931793,0.9288290739059448,[0. 0. 0. 0. 0. 0. 0. 0. 0.],-2.3193359375,-0.79345703125,2.3193359375,[0. 0. 0. 0. 0. 0. 0. 0. 0.],-0.0478515625,0.322265625,0.9736328125,[0. 0. 0. 0. 0. 0. 0. 0. 0.]
8.90346646308899,0.02117212489247322,0.008874715305864811,0.37002450227737427,0.9287384152412415,[0. 0. 0. 0. 0. 0. 0. 0. 0.],0.18310546875,-0.732421875,0.42724609375,[0. 0. 0. 0. 0. 0. 0. 0. 0.],-0.02001953125,0.3154296875,0.9912109375,[0. 0. 0. 0. 0. 0. 0. 0. 0.]
8.925977230072021,0.02254948951303959,0.009633255191147327,0.3697414696216583,0.9288110733032227,[0. 0. 0. 0. 0. 0. 0. 0. 0.],0.67138671875,0.732421875,-3.11279296875,[0. 0. 0. 0. 0. 0. 0. 0. 0.],0.0029296875,0.28662109375,1.03271484375,[0. 0. 0. 0. 0. 0. 0. 0. 0.]
8.94556975364685,0.024738499894738197,0.010620029643177986,0.36911770701408386,0.9289926886558533,[0. 0. 0. 0. 0. 0. 0. 0. 0.],0.8544921875,0.79345703125,-2.197265625,[0. 0. 0. 0. 0. 0. 0. 0. 0.],-0.0283203125,0.2626953125,0.9951171875,[0. 0. 0. 0. 0. 0. 0. 0. 0.]
8.966633081436157,0.025375671684741974,0.010924804955720901,0.36870917677879333,0.92913419008255,[0. 0. 0. 0. 0. 0. 0. 0. 0.],-9.58251953125,2.3193359375,-2.99072265625,[0. 0. 0. 0. 0. 0. 0. 0. 0.],0.0283203125,0.162109375,0.90625,[0. 0. 0. 0. 0. 0. 0. 0. 0.]
8.987314224243164,0.024728018790483475,0.009877637960016727,0.36813172698020935,0.9293922781944275,[0. 0. 0. 0. 0. 0. 0. 0. 0.],-3.35693359375,4.45556640625,-3.47900390625,[0. 0. 0. 0. 0. 0. 0. 0. 0.],0.00048828125,0.05126953125,1.05224609375,[0. 0. 0. 0. 0. 0. 0. 0. 0.]
9.00576376914978,0.021908700466156006,0.01103187631815672,0.36797356605529785,0.9295126795768738,[0. 0. 0. 0. 0. 0. 0. 0. 0.],-7.9345703125,2.50244140625,0.18310546875,[0. 0. 0. 0. 0. 0. 0. 0. 0.],-0.08935546875,-0.08056640625,1.02001953125,[0. 0. 0. 0. 0. 0. 0. 0. 0.]
9.025815725326538,0.019294416531920433,0.010524175129830837,0.3679196238517761,0.9295979142189026,[0. 0. 0. 0. 0. 0. 0. 0. 0.],-4.57763671875,-0.30517578125,0.91552734375,[0. 0. 0. 0. 0. 0. 0. 0. 0.],-0.06689453125,-0.1123046875,1.0390625,[0. 0. 0. 0. 0. 0. 0. 0. 0.]
9.045601844787598,0.017162475734949112,0.01005491055548191,0.3682473599910736,0.92951500415802,[0. 0. 0. 0. 0. 0. 0. 0. 0.],-9.09423828125,-0.91552734375,2.99072265625,[0. 0. 0. 0. 0. 0. 0. 0. 0.],-0.0595703125,-0.16015625,0.9765625,[0. 0. 0. 0. 0. 0. 0. 0. 0.]
9.065591096878052,0.01684362255036831,0.00800391472876072,0.36851924657821655,0.9294330477714539,[0. 0. 0. 0. 0. 0. 0. 0. 0.],8.544921875,-4.5166015625,1.953125,[0. 0. 0. 0. 0. 0. 0. 0. 0.],0.03466796875,0.0888671875,1.09716796875,[0. 0. 0. 0. 0. 0. 0. 0. 0.]
9.085486650466919,0.017857108265161514,0.008104565553367138,0.3687613904476166,0.9293172359466553,[0. 0. 0. 0. 0. 0. 0. 0. 0.],-5.615234375,-1.64794921875,2.5634765625,[0. 0. 0. 0. 0. 0. 0. 0. 0.],0.00390625,0.0458984375,0.9052734375,[0. 0. 0. 0. 0. 0. 0. 0. 0.]
9.105629205703735,0.014155959710478783,0.006834488827735186,0.369404673576355,0.9291356801986694,[0. 0. 0. 0. 0. 0. 0. 0. 0.],-12.39013671875,-7.01904296875,2.74658203125,[0. 0. 0. 0. 0. 0. 0. 0. 0.],-0.00634765625,-0.21875,0.947265625,[0. 0. 0. 0. 0. 0. 0. 0. 0.]
9.125635385513306,0.0113255325704813,0.005788889713585377,0.3710171580314636,0.928538978099823,[0. 0. 0. 0. 0. 0. 0. 0. 0.],-6.40869140625,-6.591796875,13.24462890625,[0. 0. 0. 0. 0. 0. 0. 0. 0.],-0.04150390625,-0.1962890625,1.10107421875,[0. 0. 0. 0. 0. 0. 0. 0. 0.]
9.145793437957764,0.009824445471167564,0.004676816985011101,0.3735007643699646,0.9275661706924438,[0. 0. 0. 0. 0. 0. 0. 0. 0.],-5.79833984375,-3.47900390625,17.08984375,[0. 0. 0. 0. 0. 0. 0. 0. 0.],0.001953125,-0.11962890625,0.970703125,[0. 0. 0. 0. 0. 0. 0. 0. 0.]
9.161834716796875,0.0068048350512981415,0.002850554184988141,0.3768240213394165,0.9262555837631226,[0. 0. 0. 0. 0. 0. 0. 0. 0.],-8.23974609375,7.2021484375,15.5029296875,[0. 0. 0. 0. 0. 0. 0. 0. 0.],0.12109375,-0.1845703125,0.9541015625,[0. 0. 0. 0. 0. 0. 0. 0. 0.]
9.186646461486816,0.004945021588355303,0.002126148669049144,0.37888142466545105,0.9254295825958252,[0. 0. 0. 0. 0. 0. 0. 0. 0.],-5.67626953125,3.23486328125,15.9912109375,[0. 0. 0. 0. 0. 0. 0. 0. 0.],0.07763671875,-0.1923828125,1.03173828125,[0. 0. 0. 0. 0. 0. 0. 0. 0.]
9.205640077590942,0.0029071620665490627,0.0020896345376968384,0.3817782998085022,0.9242470860481262,[0. 0. 0. 0. 0. 0. 0. 0. 0.],-0.244140625,1.52587890625,19.83642578125,[0. 0. 0. 0. 0. 0. 0. 0. 0.],-0.03564453125,-0.17431640625,1.08984375,[0. 0. 0. 0. 0. 0. 0. 0. 0.]
9.225611925125122,0.0016187758883461356,0.0022388931829482317,0.38501834869384766,0.9229047894477844,[0. 0. 0. 0. 0. 0. 0. 0. 0.],1.64794921875,-0.06103515625,21.66748046875,[0. 0. 0. 0. 0. 0. 0. 0. 0.],-0.0751953125,-0.15087890625,1.01171875,[0. 0. 0. 0. 0. 0. 0. 0. 0.]
