time,imu.ypr.x,imu.ypr.y,imu.ypr.z,imu.linear_acceleration.x,imu.linear_acceleration.y,imu.linear_acceleration.z,imu.angular_velocity.x,imu.angular_velocity.y,imu.angular_velocity.z,imu.compass.x,imu.compass.y,imu.compass.z,imu.orientation.x,imu.orientation.y,imu.orientation.z,imu.orientation.w
0.36742734909057617,-0.8784583767988431,2.296784083662191,12.892659100900545,-0.04052734375,0.01513671875,1.00146484375,-0.42724609375,-1.0986328125,-0.30517578125,0.0,0.0,0.0,0.009866006672382355,0.019054079428315163,-0.11239927262067795,0.9934315085411072
0.38894033432006836,-0.9181002611330682,2.3082750231670914,12.893645209461965,-0.04052734375,0.015625,1.00341796875,0.06103515625,-0.30517578125,-0.1220703125,0.0,0.0,0.0,0.010221079923212528,0.01911473087966442,-0.11241497844457626,0.9934248924255371
0.40570783615112305,-0.8587886592888229,2.359953515087877,12.898531356039463,-0.04150390625,0.01513671875,1.00390625,0.3662109375,-0.54931640625,0.0,0.0,0.0,0.0,0.009758281521499157,0.01962052658200264,-0.1124497503042221,0.9934158325195312
0.4268317222595215,-0.894050311291807,2.3434287261646776,12.899610525928326,-0.04052734375,0.015625,1.0029296875,-0.18310546875,-1.15966796875,-0.244140625,0.0,0.0,0.0,0.010047984309494495,0.019442565739154816,-0.11246436834335327,0.9934147000312805
0.4463379383087158,-0.9638884619466586,2.383998769174084,12.900458323159054,-0.04150390625,0.0166015625,1.00439453125,-0.1220703125,-1.15966796875,-0.244140625,0.0,0.0,0.0,0.010693266987800598,0.019725659862160683,-0.11248568445444107,0.993399977684021
0.4658660888671875,-1.0346982070109443,2.3987538987720156,12.900092908038458,-0.0419921875,0.017578125,1.00390625,0.06103515625,-0.244140625,-0.06103515625,0.0,0.0,0.0,0.011321492493152618,0.019784102216362953,-0.1124955266714096,0.9933907389640808
0.4869873523712158,-1.0251660376939569,2.318367694882843,12.904615347042652,-0.04052734375,0.017578125,1.00146484375,-0.06103515625,-0.3662109375,-0.18310546875,0.0,0.0,0.0,0.011160953901708126,0.019096117466688156,-0.1125284731388092,0.993402361869812
0.5057721138000488,-0.9006656696680817,2.2750378285619286,12.910911927683758,-0.03955078125,0.01611328125,1.001953125,-0.1220703125,-0.91552734375,-0.06103515625,0.0,0.0,0.0,0.01004025898873806,0.018842164427042007,-0.11256015300750732,0.9934155344963074
0.5257000923156738,-0.8988793617567118,2.368312172528092,12.914385078876709,-0.04150390625,0.01611328125,1.00390625,-0.1220703125,-1.0986328125,-0.18310546875,0.0,0.0,0.0,0.01011673454195261,0.01965225115418434,-0.11259444802999496,0.9933951497077942
0.5457158088684082,-1.0374158752486689,2.352446283416387,12.911175743740449,-0.04150390625,0.01806640625,1.00341796875,-0.1220703125,-0.48828125,-0.18310546875,0.0,0.0,0.0,0.0113016152754426,0.01937888376414776,-0.11258938163518906,0.9933884143829346
0.5664539337158203,-0.9490836000338327,2.3452410741722582,12.917050560200307,-0.041015625,0.01708984375,1.001953125,-0.18310546875,-0.6103515625,-0.1220703125,0.0,0.0,0.0,0.010529803112149239,0.01940266415476799,-0.11262496560811996,0.993392288684845
0.5856122970581055,-0.9497239302685214,2.4244979489708514,12.918398668787738,-0.04248046875,0.0166015625,1.0009765625,-0.244140625,-0.54931640625,-0.06103515625,0.0,0.0,0.0,0.010613251477479935,0.020089006051421165,-0.11264084279537201,0.9933760166168213
0.6057829856872559,-0.9495931961789391,2.3717057093285305,12.920440895349572,-0.041015625,0.01708984375,1.00341796875,-0.06103515625,-0.91552734375,-0.1220703125,0.0,0.0,0.0,0.010560735128819942,0.0196312814950943,-0.11265581846237183,0.9933839440345764
0.626007080078125,-0.8447913605236453,2.308544815639307,12.927948127021063,-0.04052734375,0.0146484375,1.00390625,0.1220703125,-0.8544921875,-0.30517578125,0.0,0.0,0.0,0.009591550566256046,0.01918611116707325,-0.11270012706518173,0.9933974742889404
0.6418592929840088,-0.8563085535681677,2.300553494310392,12.92929965070308,-0.04052734375,0.01513671875,1.0009765625,0.0,-0.48828125,0.0,0.0,0.0,0.0,0.009683779440820217,0.019105389714241028,-0.11271340399980545,0.9933966994285583
0.6653244495391846,-0.91303652963715,2.33613899332957,12.92829049025321,-0.041015625,0.015625,1.00244140625,-0.3662109375,-0.48828125,-0.06103515625,0.0,0.0,0.0,0.010210289619863033,0.019358178600668907,-0.11271584779024124,0.9933862686157227
0.6856274604797363,-0.9389801494257972,2.3421260810239093,12.930473589466674,-0.041015625,0.0166015625,1.00439453125,0.244140625,-0.6103515625,-0.18310546875,0.0,0.0,0.0,0.010441435500979424,0.019384363666176796,-0.11273946613073349,0.993380606174469
0.7066855430603027,-0.9494461336683723,2.3309687535712817,12.932380066018753,-0.041015625,0.0166015625,1.005859375,0.3662109375,-0.732421875,-0.18310546875,0.0,0.0,0.0,0.0105215385556221,0.019277168437838554,-0.11275718361139297,0.9933798313140869
0.7253818511962891,-0.8949651831146185,2.304269757549114,12.937459165440305,-0.04052734375,0.01611328125,1.0029296875,-0.18310546875,-0.732421875,-0.1220703125,0.0,0.0,0.0,0.010023900307714939,0.01909887045621872,-0.11279076337814331,0.993384599685669
0.7457294464111328,-0.8801191266233611,2.240708870906621,12.939796797683742,-0.03955078125,0.015625,1.00390625,-0.42724609375,-1.15966796875,-0.244140625,0.0,0.0,0.0,0.009833186864852905,0.018562253564596176,-0.1128055527806282,0.9933950304985046
0.7652897834777832,-0.9129368515639501,2.3162716805812953,12.943025769613865,-0.04052734375,0.01611328125,1.00439453125,0.1220703125,-0.732421875,-0.18310546875,0.0,0.0,0.0,0.010192407295107841,0.01918473280966282,-0.11284259706735611,0.9933753609657288
0.7881674766540527,-0.9775844853364151,2.3756646577261993,12.942730363932263,-0.0419921875,0.01708984375,1.0029296875,-0.18310546875,-0.3662109375,-0.06103515625,0.0,0.0,0.0,0.010811085812747478,0.01963597722351551,-0.11285403370857239,0.9933587908744812
0.805609941482544,-1.0775470786039019,2.2880348247788165,12.940906703423869,-0.04052734375,0.0185546875,1.00244140625,-0.30517578125,-0.42724609375,0.0,0.0,0.0,0.0,0.011591305956244469,0.018778039142489433,-0.11284991353750229,0.993367075920105
0.8257296085357666,-0.9368182878317823,2.3442033123052393,12.948444670946625,-0.041015625,0.0166015625,1.00390625,-0.1220703125,-1.15966796875,-0.18310546875,0.0,0.0,0.0,0.010427773930132389,0.019402863457798958,-0.11289498209953308,0.9933627247810364
0.8457889556884766,-0.9554854082768388,2.3196112161986084,12.95001476068208,-0.041015625,0.0166015625,1.00537109375,0.0,-0.732421875,-0.244140625,0.0,0.0,0.0,0.010565700009465218,0.01917113922536373,-0.11291047185659409,0.9933640956878662
0.86582350730896,-0.9705287932020861,2.237450870672525,12.953127619396314,-0.0390625,0.01708984375,1.00439453125,-0.06103515625,-0.18310546875,-0.1220703125,0.0,0.0,0.0,0.010615892708301544,0.018443768844008446,-0.11293554306030273,0.9933744668960571
0.8869011402130127,-0.973773666666371,2.4181524897884983,12.95610985074267,-0.0419921875,0.01708984375,1.00341796875,-0.54931640625,-0.6103515625,-0.06103515625,0.0,0.0,0.0,0.01082210149616003,0.020006796345114708,-0.11297162622213364,0.9933378100395203
0.9057512283325195,-0.8499856660265871,2.269466315189902,12.964221554155708,-0.0400390625,0.01513671875,1.0048828125,0.06103515625,-0.3662109375,-0.1220703125,0.0,0.0,0.0,0.009604210965335369,0.01883917674422264,-0.11301369965076447,0.9933684468269348
0.927377462387085,-0.9060606653387455,2.2917910019355,12.966132299576019,-0.0400390625,0.01513671875,1.00244140625,0.30517578125,-0.6103515625,-0.1220703125,0.0,0.0,0.0,0.010112586431205273,0.01897723600268364,-0.11304056644439697,0.9933576583862305
0.9439182281494141,-0.9593273896849709,2.2883564840000417,12.965330606122189,-0.0400390625,0.01806640625,1.0009765625,-0.06103515625,-0.6103515625,-0.06103515625,0.0,0.0,0.0,0.010570826008915901,0.018894989043474197,-0.11304222792387009,0.993354320526123
0.9662661552429199,-1.1072767576268518,2.310301668359881,12.963225200310532,-0.04052734375,0.01953125,1.0029296875,-0.42724609375,-0.732421875,-0.244140625,0.0,0.0,0.0,0.01187457051128149,0.018939483910799026,-0.1130496934056282,0.993337869644165
0.9857609272003174,-1.033373043590256,2.376233057531191,12.969156365831042,-0.04150390625,0.01806640625,1.00244140625,0.06103515625,-0.48828125,-0.1220703125,0.0,0.0,0.0,0.011299774050712585,0.019583357498049736,-0.11309269815683365,0.9933271408081055
1.0011866092681885,-1.0040401558694017,2.356485699980215,12.974889455865622,-0.04052734375,0.017578125,1.00439453125,0.244140625,-0.79345703125,-0.06103515625,0.0,0.0,0.0,0.011027051135897636,0.01944056898355484,-0.11313628405332565,0.9933280348777771
1.0257322788238525,-0.8323880571560195,2.3319324505744885,12.984784692425677,-0.041015625,0.01513671875,1.0029296875,-0.06103515625,-1.0986328125,-0.30517578125,0.0,0.0,0.0,0.009516589343547821,0.0193963460624218,-0.11319175362586975,0.9933382272720337
1.0455327033996582,-0.957883445005748,2.290504578494011,12.98206883845695,-0.04052734375,0.0166015625,1.00390625,-0.42724609375,-0.8544921875,-0.244140625,0.0,0.0,0.0,0.010563183575868607,0.018913492560386658,-0.11318720132112503,0.9933375716209412
1.0662825107574463,-0.9722517084202218,2.3926827143735205,12.986260867060047,-0.04150390625,0.0166015625,1.00390625,0.06103515625,-0.48828125,-0.244140625,0.0,0.0,0.0,0.010789083316922188,0.01978466287255287,-0.11323137581348419,0.9933130741119385
1.0879795551300049,-1.0015008196020379,2.3769600457909745,12.987178673729767,-0.0419921875,0.017578125,1.001953125,-0.06103515625,-0.06103515625,0.0,0.0,0.0,0.0,0.011027292348444462,0.019619377329945564,-0.11324349790811539,0.9933123588562012
1.1057016849517822,-1.0374664613372093,2.3036714756665027,12.988294555885417,-0.041015625,0.0185546875,1.00341796875,0.1220703125,-0.9765625,-0.06103515625,0.0,0.0,0.0,0.011267042718827724,0.018948407843708992,-0.11325506120920181,0.993321418762207
1.1258492469787598,-1.0029121074392917,2.352517146629026,12.991774537267538,-0.041015625,0.017578125,1.0048828125,-0.42724609375,-1.0986328125,-0.18310546875,0.0,0.0,0.0,0.011016225442290306,0.019405653700232506,-0.1132822334766388,0.9933122992515564
1.1474003791809082,-1.0053127054891395,2.3626192098548864,12.99589484888435,-0.0419921875,0.017578125,1.00390625,0.1220703125,-0.79345703125,-0.30517578125,0.0,0.0,0.0,0.011047691106796265,0.019490454345941544,-0.11331891268491745,0.9933061003684998
1.1657836437225342,-0.9597720990329622,2.3455518477794937,12.999878556717759,-0.0400390625,0.0166015625,1.00439453125,-0.06103515625,-0.3662109375,-0.1220703125,0.0,0.0,0.0,0.010636781342327595,0.019387168809771538,-0.11334478855133057,0.9933096766471863
1.186858892440796,-0.8828328461579718,2.3162496959099044,13.004833005186956,-0.04052734375,0.015625,1.00439453125,-0.42724609375,-0.42724609375,0.0,0.0,0.0,0.0,0.009941780008375645,0.019208824262022972,-0.11337333917617798,0.9933170080184937
1.2006149291992188,-0.9099836485215659,2.455343723592864,13.006109396788103,-0.04248046875,0.015625,1.001953125,-0.18310546875,-0.732421875,0.0,0.0,0.0,0.0,0.010314584709703922,0.02038758620619774,-0.11339565366506577,0.993287205696106
1.2223429679870605,-0.9301229948978773,2.4493903599575515,13.008101250704808,-0.04248046875,0.015625,1.00341796875,0.244140625,-0.9765625,-0.1220703125,0.0,0.0,0.0,0.01048363372683525,0.02031587064266205,-0.11341620981693268,0.9932845234870911
1.2448687553405762,-0.8971533516091085,2.439608675292447,13.013046307663897,-0.04296875,0.015625,1.00390625,-0.06103515625,-1.03759765625,-0.244140625,0.0,0.0,0.0,0.010189073160290718,0.020263271406292915,-0.11345277726650238,0.9932844638824463
1.2656147480010986,-0.8903326073100574,2.3848260758373017,13.01358076996645,-0.0419921875,0.015625,1.0029296875,-0.54931640625,-0.54931640625,0.1220703125,0.0,0.0,0.0,0.010075961239635944,0.019795097410678864,-0.11345364153385162,0.9932950139045715
1.2858572006225586,-1.0083585429721422,2.3201535759073897,13.012143868919809,-0.041015625,0.017578125,1.0048828125,0.0,-0.42724609375,0.06103515625,0.0,0.0,0.0,0.011034943163394928,0.01911776140332222,-0.11345791071653366,0.9932975172996521
1.3055860996246338,-0.9072811347660622,2.396199834909254,13.018975765637114,-0.04150390625,0.01611328125,1.00390625,0.244140625,-0.67138671875,-0.06103515625,0.0,0.0,0.0,0.010235036723315716,0.019876426085829735,-0.11350387334823608,0.9932860732078552
1.3256852626800537,-0.9300300402921418,2.266804675847713,13.020655992172937,-0.04052734375,0.0166015625,1.00244140625,-0.1220703125,-0.8544921875,-0.06103515625,0.0,0.0,0.0,0.010304702445864677,0.018732083961367607,-0.11351588368415833,0.9933062195777893
1.3468213081359863,-0.9290322990647909,2.3299201060902734,13.02498291701214,-0.04052734375,0.0166015625,1.00390625,-0.244140625,-1.46484375,-0.3662109375,0.0,0.0,0.0,0.010359128005802631,0.01927979849278927,-0.11355642229318619,0.9932904839515686
1.36527419090271,-1.0089825447858463,2.397186797244321,13.024424549047492,-0.0419921875,0.017578125,1.001953125,-0.06103515625,-0.30517578125,-0.06103515625,0.0,0.0,0.0,0.011118503287434578,0.019783711060881615,-0.11356877535581589,0.9932708740234375
1.387237310409546,-0.9904884202258616,2.4244475763257225,13.027113082259538,-0.0419921875,0.01708984375,1.00146484375,-0.06103515625,-0.18310546875,0.06103515625,0.0,0.0,0.0,0.010985597968101501,0.02003808505833149,-0.11359034478664398,0.9932648539543152
1.4066603183746338,-1.0043952189845364,2.410150069402182,13.030081653227555,-0.04150390625,0.017578125,1.00341796875,-0.18310546875,-0.54931640625,-0.18310546875,0.0,0.0,0.0,0.011092527769505978,0.01990007609128952,-0.11361771821975708,0.993263304233551
1.4256548881530762,-0.9271656297089677,2.3555190147692464,13.036086243281643,-0.04150390625,0.01611328125,1.00341796875,-0.06103515625,-1.0986328125,-0.18310546875,0.0,0.0,0.0,0.010370131582021713,0.0195025447756052,-0.11365362256765366,0.9932749271392822
1.4457929134368896,-1.0278333332865526,2.285262408306026,13.034544328076512,-0.0400390625,0.01806640625,1.00390625,0.1220703125,-0.6103515625,-0.244140625,0.0,0.0,0.0,0.011172988452017307,0.01879383809864521,-0.1136532872915268,0.9932799339294434
1.4664292335510254,-0.9857891433551871,2.308594974841024,13.040864814379713,-0.04052734375,0.01708984375,1.001953125,-0.06103515625,-0.42724609375,-0.244140625,0.0,0.0,0.0,0.010832670144736767,0.019037196412682533,-0.1137024536728859,0.9932733774185181
1.4856371879577637,-0.9340467251326381,2.3533482952736517,13.04456250804163,-0.0419921875,0.01611328125,1.0029296875,-0.244140625,-0.48828125,0.06103515625,0.0,0.0,0.0,0.010429071262478828,0.019476132467389107,-0.11372815817594528,0.9932662844657898
1.5062029361724854,-0.893819312159643,2.272938826052619,13.050301574491732,-0.0400390625,0.015625,1.00634765625,0.1220703125,-0.67138671875,-0.18310546875,0.0,0.0,0.0,0.010001747868955135,0.01881854049861431,-0.11376722902059555,0.9932789206504822
1.5255978107452393,-0.9465460780354672,2.3361202103093524,13.051658220815625,-0.04052734375,0.0166015625,1.0048828125,0.1220703125,-0.6103515625,-0.244140625,0.0,0.0,0.0,0.010521561838686466,0.019313737750053406,-0.11379089206457138,0.9932613372802734
1.54671311378479,-0.845041996449673,2.3714470159137164,13.05709163630037,-0.04150390625,0.0146484375,1.00244140625,-0.1220703125,-0.91552734375,-0.1220703125,0.0,0.0,0.0,0.009677654132246971,0.0197202879935503,-0.11382238566875458,0.9932582378387451
1.5655040740966797,-0.9417874638963781,2.290974367442861,13.054421886108543,-0.0400390625,0.0166015625,1.00244140625,-0.3662109375,-0.42724609375,-0.1220703125,0.0,0.0,0.0,0.010436071082949638,0.01892687752842903,-0.11381173878908157,0.993267297744751
1.586540699005127,-0.8633858034870645,2.3057785890254516,13.062213424404234,-0.04052734375,0.015625,1.0029296875,-0.06103515625,-0.79345703125,-0.244140625,0.0,0.0,0.0,0.009772456251084805,0.019132403656840324,-0.11386697739362717,0.9932637214660645
1.6057026386260986,-0.9621152808050998,2.3333006228426068,13.061749825314319,-0.041015625,0.01611328125,1.00341796875,0.244140625,-0.8544921875,-0.18310546875,0.0,0.0,0.0,0.010655418038368225,0.019272899255156517,-0.11388085037469864,0.9932503700256348
1.6258234977722168,-0.8626524652857873,2.391774726100732,13.06938000039087,-0.0419921875,0.01513671875,1.00341796875,-0.06103515625,-0.732421875,-0.30517578125,0.0,0.0,0.0,0.009852566756308079,0.01987794041633606,-0.11393283307552338,0.9932407140731812
1.6458725929260254,-1.004492122293386,2.310915104724713,13.067301915335893,-0.04052734375,0.017578125,1.00048828125,-0.3662109375,-0.9765625,-0.18310546875,0.0,0.0,0.0,0.011001471430063248,0.01903621107339859,-0.11393483728170395,0.993245005607605
1.662663221359253,-0.9433923449079196,2.287124702071912,13.073446524267966,-0.04052734375,0.0166015625,1.0029296875,0.06103515625,-0.6103515625,-0.18310546875,0.0,0.0,0.0,0.010449306108057499,0.018890179693698883,-0.11397670954465866,0.9932489395141602
1.6859138011932373,-0.9495556301385041,2.308979172981837,13.07563218480237,-0.04052734375,0.0166015625,1.00439453125,0.244140625,-0.1220703125,-0.06103515625,0.0,0.0,0.0,0.010524764657020569,0.019073281437158585,-0.11399780213832855,0.9932422637939453
1.7078661918640137,-0.8928752519503004,2.242856538513767,13.081004128584585,-0.0400390625,0.015625,1.00439453125,-0.06103515625,-0.91552734375,-0.1220703125,0.0,0.0,0.0,0.009968752041459084,0.01855604723095894,-0.11403176188468933,0.9932538270950317
1.7205326557159424,-0.9132172094850379,2.3273822639267907,13.083806213691583,-0.041015625,0.01611328125,1.00341796875,-0.30517578125,-1.0986328125,-0.244140625,0.0,0.0,0.0,0.010229427367448807,0.019268224015831947,-0.11406350880861282,0.9932339191436768
1.7414674758911133,-0.9957851252055007,2.385710371891407,13.084176751454056,-0.04150390625,0.017578125,1.00048828125,0.0,-0.54931640625,-0.244140625,0.0,0.0,0.0,0.011003040708601475,0.019691573455929756,-0.11408377438783646,0.993215024471283
1.7656102180480957,-1.0082646278710545,2.448051642880229,13.086357289346584,-0.04248046875,0.01708984375,1.001953125,0.06103515625,-0.06103515625,-0.1220703125,0.0,0.0,0.0,0.01117345504462719,0.02021929621696472,-0.11410824954509735,0.9931997656822205
1.7857332229614258,-1.0033331245685995,2.3446139774290864,13.089572600898366,-0.041015625,0.017578125,1.00146484375,-0.18310546875,-0.54931640625,-0.06103515625,0.0,0.0,0.0,0.011028587818145752,0.019327325746417046,-0.11412957310676575,0.9932165741920471
1.8054676055908203,-0.9309268227858232,2.415986892934781,13.09744354014316,-0.0419921875,0.0166015625,1.001953125,-0.06103515625,-0.91552734375,-0.3662109375,0.0,0.0,0.0,0.010473250411450863,0.020017359405755997,-0.11418910324573517,0.9932021498680115
1.8205835819244385,-0.926939806579534,2.3495991617495493,13.102322002757841,-0.041015625,0.01611328125,1.001953125,0.18310546875,-0.732421875,-0.30517578125,0.0,0.0,0.0,0.010373561643064022,0.01944546215236187,-0.11422739923000336,0.9932101964950562
1.846156120300293,-0.9412784013598007,2.322186410959115,13.104511932160477,-0.041015625,0.0166015625,1.00439453125,0.18310546875,-0.48828125,-0.1220703125,0.0,0.0,0.0,0.010470961220562458,0.019193362444639206,-0.11424741894006729,0.9932117462158203
1.8655054569244385,-1.055350671348653,2.3814918763052777,13.102974285823578,-0.04150390625,0.01806640625,1.00390625,-0.48828125,-0.732421875,-0.30517578125,0.0,0.0,0.0,0.011518346145749092,0.01959381438791752,-0.11425666511058807,0.9931913018226624
1.885852575302124,-0.9242373995457362,2.2843860096581485,13.11051993730915,-0.0400390625,0.01611328125,1.00244140625,0.0,-0.67138671875,-0.06103515625,0.0,0.0,0.0,0.010286668315529823,0.018882164731621742,-0.11429474502801895,0.9932142496109009
1.9023220539093018,-0.8640147144992346,2.330481462262684,13.116123253749498,-0.0400390625,0.01513671875,1.00341796875,0.244140625,-0.79345703125,-0.1220703125,0.0,0.0,0.0,0.00981148798018694,0.01934129372239113,-0.11433545500040054,0.9932055473327637
1.9307308197021484,-0.9809009690652793,2.3505577361108783,13.114349112112588,-0.0419921875,0.0166015625,1.00244140625,-0.1220703125,-0.9765625,-0.244140625,0.0,0.0,0.0,0.010844253934919834,0.019398842006921768,-0.11434084922075272,0.9931929111480713
1.9456548690795898,-1.0623848056984142,2.338363287121467,13.11371305074613,-0.04150390625,0.0185546875,1.0029296875,-0.30517578125,-1.03759765625,-0.18310546875,0.0,0.0,0.0,0.011538253165781498,0.019211895763874054,-0.11434835940599442,0.9931880235671997
1.963696002960205,-1.0640196755092801,2.2691995109254486,13.116187286772968,-0.0400390625,0.0185546875,1.001953125,-0.1220703125,-0.30517578125,-0.1220703125,0.0,0.0,0.0,0.011484033428132534,0.018610531464219093,-0.11436590552330017,0.9931979775428772
1.9855611324310303,-0.9926294710872491,2.411092635507644,13.123314589171876,-0.04296875,0.01708984375,1.001953125,0.244140625,-0.42724609375,-0.06103515625,0.0,0.0,0.0,0.01100767869502306,0.019910963252186775,-0.11442382633686066,0.9931715130805969
2.0065910816192627,-0.9020920052658508,2.311439535186923,13.12972557548158,-0.0400390625,0.015625,1.00244140625,-0.18310546875,-1.03759765625,-0.06103515625,0.0,0.0,0.0,0.010124841704964638,0.019137049093842506,-0.11445885896682739,0.9931921362876892
2.0256974697113037,-0.9749150553097036,2.332780461248628,13.128942665047965,-0.041015625,0.01708984375,1.00244140625,-0.244140625,-1.0986328125,-0.244140625,0.0,0.0,0.0,0.01077713817358017,0.01924935355782509,-0.11446535587310791,0.9931823015213013
2.046281099319458,-1.0053162273054304,2.423339378132888,13.129724721707932,-0.04248046875,0.017578125,1.0029296875,0.0,-0.30517578125,-0.06103515625,0.0,0.0,0.0,0.011130943894386292,0.020003819838166237,-0.11448224633932114,0.9931615591049194
2.065758228302002,-0.8910018591270128,2.4051563473452564,13.139124769553163,-0.0419921875,0.015625,1.00537109375,0.244140625,-0.1220703125,-0.06103515625,0.0,0.0,0.0,0.010123705491423607,0.01995958387851715,-0.11454286426305771,0.9931662678718567
2.085538864135742,-0.9212998845941018,2.368483567587577,13.13984279318966,-0.04150390625,0.01611328125,1.0029296875,-0.06103515625,-0.8544921875,-0.06103515625,0.0,0.0,0.0,0.010349869728088379,0.019611379131674767,-0.1145525723695755,0.9931697249412537
2.105767250061035,-0.9778646298140913,2.3225983567434314,13.14025260453986,-0.041015625,0.01708984375,1.00341796875,-0.06103515625,-0.9765625,-0.06103515625,0.0,0.0,0.0,0.01079445332288742,0.019157087430357933,-0.11456333845853806,0.9931725859642029
2.1254935264587402,-0.9182354775342932,2.4090587332388607,13.145305236978379,-0.04150390625,0.01611328125,1.00244140625,0.18310546875,-0.91552734375,-0.1220703125,0.0,0.0,0.0,0.010364707559347153,0.019965628162026405,-0.11460137367248535,0.9931568503379822
2.145655870437622,-1.0148946071210212,2.4033211608926384,13.143636109499957,-0.04150390625,0.017578125,1.0029296875,0.0,-0.48828125,-0.06103515625,0.0,0.0,0.0,0.011196432635188103,0.019819386303424835,-0.11460338532924652,0.993150532245636
2.1659414768218994,-0.9774671981817612,2.463101964716352,13.149515194828044,-0.04248046875,0.01708984375,1.0029296875,-0.54931640625,-0.79345703125,-0.30517578125,0.0,0.0,0.0,0.01093269418925047,0.020374389365315437,-0.11465099453926086,0.9931367635726929
2.1884500980377197,-1.0044215792458644,2.3179824295249722,13.151898077074733,-0.041015625,0.017578125,1.00146484375,-0.1220703125,-0.244140625,-0.1220703125,0.0,0.0,0.0,0.011021962389349937,0.019089410081505775,-0.11466845124959946,0.9931592345237732
2.2058610916137695,-0.9190284198082495,2.3658242761229147,13.158818766251247,-0.041015625,0.0166015625,1.00341796875,0.244140625,-0.244140625,-0.06103515625,0.0,0.0,0.0,0.010330777615308762,0.0195888914167881,-0.1147165298461914,0.9931513667106628
2.2257497310638428,-0.8934783896705243,2.3273289030738997,13.163032992969146,-0.041015625,0.015625,1.00244140625,-0.06103515625,-0.91552734375,-0.18310546875,0.0,0.0,0.0,0.010071616619825363,0.01928044855594635,-0.11474685370922089,0.9931566715240479
2.2475342750549316,-0.9180765689143847,2.4511273624408503,13.163685276034883,-0.04296875,0.01611328125,1.00146484375,-0.54931640625,-0.8544921875,-0.1220703125,0.0,0.0,0.0,0.010408538393676281,0.020328734070062637,-0.11476266384124756,0.9931303858757019
2.265885829925537,-1.0133627237562344,2.35795995362388,13.163181549583594,-0.04150390625,0.017578125,1.00341796875,-0.1220703125,-0.3662109375,-0.30517578125,0.0,0.0,0.0,0.011141247116029263,0.019425861537456512,-0.11476997286081314,0.9931397438049316
2.285555362701416,-0.9486759231177476,2.3608139054798873,13.169804271757567,-0.04052734375,0.0166015625,1.00439453125,0.06103515625,-0.06103515625,-0.1220703125,0.0,0.0,0.0,0.01058459747582674,0.019514771178364754,-0.11481653898954391,0.9931386113166809
2.306046724319458,-0.9473286683039626,2.3014937125383264,13.172718201212223,-0.04052734375,0.0166015625,1.00390625,0.0,-1.03759765625,-0.1220703125,0.0,0.0,0.0,0.01051414106041193,0.019001714885234833,-0.11483851820230484,0.9931468367576599
2.326239585876465,-1.0180298773934686,2.3611244656437114,13.171979687008216,-0.041015625,0.017578125,1.00390625,-0.30517578125,-1.220703125,-0.244140625,0.0,0.0,0.0,0.01118635106831789,0.019447756931185722,-0.11484720557928085,0.9931297302246094
2.3456695079803467,-0.9705757507526299,2.2608301813146556,13.176829121318926,-0.0400390625,0.01708984375,1.0048828125,-0.1220703125,-0.42724609375,-0.18310546875,0.0,0.0,0.0,0.010675654746592045,0.018625596538186073,-0.11487582325935364,0.9931479096412659
2.366144895553589,-0.9204705502184741,2.3899173415333115,13.182171183023522,-0.0419921875,0.01611328125,1.00390625,-0.06103515625,-0.30517578125,-0.1220703125,0.0,0.0,0.0,0.010371359065175056,0.019794151186943054,-0.11492033302783966,0.9931233525276184
2.390770673751831,-1.0217689790772275,2.344436392510666,13.179975277205363,-0.041015625,0.01806640625,1.0029296875,-0.30517578125,-0.42724609375,0.0,0.0,0.0,0.0,0.011203428730368614,0.01929858885705471,-0.11491616815328598,0.9931246042251587
2.405656576156616,-0.9839484073738686,2.360563536358124,13.183985452021806,-0.04150390625,0.01708984375,1.001953125,-0.3662109375,-1.15966796875,-0.18310546875,0.0,0.0,0.0,0.010892455466091633,0.01947591081261635,-0.1149454340338707,0.9931211471557617
2.4256508350372314,-0.884901272898575,2.3284765882978733,13.191490976146005,-0.041015625,0.015625,1.00390625,0.06103515625,-0.732421875,-0.3662109375,0.0,0.0,0.0,0.010003219358623028,0.019296500831842422,-0.11499211192131042,0.9931285977363586
2.4455599784851074,-0.8903207612007156,2.2204750758206933,13.193043990408535,-0.03955078125,0.015625,1.00390625,-0.06103515625,-0.1220703125,-0.1220703125,0.0,0.0,0.0,0.009942347183823586,0.0183548703789711,-0.11500135809183121,0.9931460618972778
2.465625762939453,-0.9409483111238186,2.37526189000858,13.19355796214358,-0.04150390625,0.01611328125,1.0029296875,-0.244140625,-0.42724609375,-0.06103515625,0.0,0.0,0.0,0.010536130517721176,0.01964554935693741,-0.11502181738615036,0.9931128621101379
2.485719680786133,-0.9696800354760062,2.428492115531428,13.195362839631755,-0.04248046875,0.0166015625,1.0029296875,-0.18310546875,-0.9765625,-0.1220703125,0.0,0.0,0.0,0.010838720947504044,0.02007787674665451,-0.11504516750574112,0.993098258972168
2.505488634109497,-1.032945729880307,2.3409593993363065,13.197096000133646,-0.04150390625,0.01806640625,1.0029296875,0.244140625,-0.732421875,-0.244140625,0.0,0.0,0.0,0.011299695819616318,0.019255558028817177,-0.11506623774766922,0.9931069612503052
2.5257623195648193,-0.9501088754612751,2.3596707025675565,13.2038254440134,-0.04150390625,0.0166015625,1.00341796875,0.0,-0.91552734375,-0.18310546875,0.0,0.0,0.0,0.010601664893329144,0.019500279799103737,-0.1151115819811821,0.9931045174598694
2.5419700145721436,-0.9816103482436086,2.3819023279857134,13.203950094965753,-0.0419921875,0.0166015625,1.00244140625,-0.42724609375,-0.8544921875,-0.18310546875,0.0,0.0,0.0,0.010896958410739899,0.019661299884319305,-0.11511919647455215,0.9930973052978516
2.567038059234619,-0.972704742061264,2.406676064435584,13.208762817009674,-0.04248046875,0.01708984375,1.00390625,0.0,-0.6103515625,-0.30517578125,0.0,0.0,0.0,0.0108454255387187,0.019884498789906502,-0.11516068875789642,0.9930886030197144
2.5858235359191895,-0.9255785712222917,2.4252095693050024,13.211956784220302,-0.04248046875,0.01611328125,1.00537109375,0.244140625,-0.244140625,0.06103515625,0.0,0.0,0.0,0.010456142947077751,0.0200921893119812,-0.1151810809969902,0.9930862784385681
2.6057276725769043,-0.8226247819851623,2.3914150739522486,13.219504997026812,-0.04248046875,0.0146484375,1.0048828125,0.0,-0.8544921875,-0.30517578125,0.0,0.0,0.0,0.009531344287097454,0.019902149215340614,-0.11522700637578964,0.9930940866470337
2.6273818016052246,-0.8854051060715692,2.329580517622477,13.218343011094262,-0.041015625,0.015625,1.00537109375,-0.30517578125,-1.15966796875,-0.18310546875,0.0,0.0,0.0,0.010013213381171227,0.0193032156676054,-0.11522495746612549,0.9931014180183411
2.6459474563598633,-0.9545270473589214,2.311872184982161,13.218477053556725,-0.0400390625,0.0166015625,1.0009765625,0.0,-0.67138671875,-0.244140625,0.0,0.0,0.0,0.010594520717859268,0.019080225378274918,-0.11523683369159698,0.993098258972168
2.667351484298706,-0.9670173289167591,2.3454547310272327,13.218216652594618,-0.041015625,0.01611328125,1.001953125,0.06103515625,-0.18310546875,0.1220703125,0.0,0.0,0.0,0.010736394673585892,0.019358739256858826,-0.11523842066526413,0.9930911660194397
2.6864614486694336,-0.9486928918689669,2.336655739828964,13.221943374560507,-0.041015625,0.0166015625,1.0048828125,0.0,-0.732421875,-0.1220703125,0.0,0.0,0.0,0.010569391772150993,0.019300563260912895,-0.11526716500520706,0.993090808391571
2.706629514694214,-0.9388472809020992,2.4280656555951254,13.226093568254935,-0.0419921875,0.0166015625,1.0048828125,-0.1220703125,-1.3427734375,-0.30517578125,0.0,0.0,0.0,0.010576474480330944,0.020102299749851227,-0.115306057035923,0.9930703043937683
2.7260594367980957,-0.8868603098907522,2.3614474055254058,13.232694092314105,-0.04150390625,0.015625,1.001953125,0.1220703125,-0.732421875,-0.244140625,0.0,0.0,0.0,0.010060233063995838,0.019576678052544594,-0.11535106599330902,0.9930809140205383
2.7466518878936768,-0.9641799189251476,2.3107116931534937,13.23351798388274,-0.04052734375,0.01708984375,1.0029296875,0.06103515625,-0.732421875,-0.18310546875,0.0,0.0,0.0,0.010679514147341251,0.019059058278799057,-0.11536873131990433,0.9930824637413025
2.7657670974731445,-0.9951176876575435,2.239269408539041,13.233216601785612,-0.03955078125,0.01806640625,1.00390625,-0.3662109375,-0.42724609375,0.06103515625,0.0,0.0,0.0,0.010875864885747433,0.018408771604299545,-0.11536730825901031,0.9930927753448486
2.786583185195923,-0.9058059206270452,2.3052025052576437,13.23870209746278,-0.041015625,0.01611328125,1.005859375,-0.1220703125,-0.67138671875,-0.1220703125,0.0,0.0,0.0,0.010168957524001598,0.019069617614150047,-0.11540365219116211,0.993083655834198
2.807020902633667,-0.9803651193805507,2.400163479061977,13.240815187237251,-0.0419921875,0.01708984375,1.00244140625,0.244140625,-0.42724609375,-0.244140625,0.0,0.0,0.0,0.01091083139181137,0.019817303866147995,-0.11543943732976913,0.9930568933486938
2.8255867958068848,-0.9788997236384656,2.462359821974348,13.242533833587157,-0.04248046875,0.01708984375,1.00244140625,0.1220703125,-0.67138671875,-0.1220703125,0.0,0.0,0.0,0.010960899293422699,0.020357633009552956,-0.11545734852552414,0.9930433630943298
2.845604419708252,-1.0334623696579952,2.3565296693229967,13.24303158362292,-0.04150390625,0.01806640625,1.00439453125,-0.3662109375,-0.54931640625,-0.244140625,0.0,0.0,0.0,0.011327531188726425,0.01938544772565365,-0.11546532809734344,0.9930577278137207
2.8656299114227295,-0.9651442562585888,2.394101045843356,13.24879199441418,-0.0419921875,0.017578125,1.00146484375,-0.18310546875,-0.48828125,-0.1220703125,0.0,0.0,0.0,0.010774213820695877,0.019779348745942116,-0.11550562083721161,0.9930514693260193
2.885556221008301,-0.9714383823004613,2.413115652162437,13.254371405192433,-0.0419921875,0.01708984375,1.00390625,0.3662109375,-0.6103515625,-0.244140625,0.0,0.0,0.0,0.010848837904632092,0.019937263801693916,-0.11555605381727219,0.9930415749549866
2.908360481262207,-0.9990700193094537,2.3919518841323293,13.255912466623919,-0.04150390625,0.01708984375,1.00634765625,0.06103515625,-0.91552734375,-0.244140625,0.0,0.0,0.0,0.011067281477153301,0.01972583867609501,-0.11557306349277496,0.9930413961410522
2.9256975650787354,-0.9871749247047592,2.4180615628951725,13.259807381998119,-0.04248046875,0.017578125,1.00537109375,-0.48828125,-0.9765625,-0.1220703125,0.0,0.0,0.0,0.010991127230226994,0.019963733851909637,-0.1156061515212059,0.9930337071418762
2.945812940597534,-0.9433751627132888,2.3746593392577378,13.265133222003435,-0.04150390625,0.0166015625,1.00244140625,-0.1220703125,-0.42724609375,-0.244140625,0.0,0.0,0.0,0.010568823665380478,0.019631296396255493,-0.1156424880027771,0.9930406808853149
2.9655253887176514,-1.0411434509882034,2.3904829665739533,13.26480878801786,-0.0419921875,0.017578125,1.00146484375,0.1220703125,-0.30517578125,-0.1220703125,0.0,0.0,0.0,0.011431935243308544,0.019669784232974052,-0.11565729975700378,0.9930286407470703
2.985527515411377,-0.8703714861824009,2.3154780979771044,13.275439977460985,-0.04052734375,0.01513671875,1.0009765625,0.06103515625,-0.8544921875,-0.18310546875,0.0,0.0,0.0,0.009878347627818584,0.019191192463040352,-0.1157166063785553,0.9930477142333984
3.005594491958618,-0.855060816745024,2.2828980956361438,13.279437345672735,-0.04052734375,0.01416015625,1.00439453125,-0.244140625,-1.220703125,-0.30517578125,0.0,0.0,0.0,0.009713510051369667,0.018923964351415634,-0.11574722826480865,0.9930509924888611
3.0256333351135254,-0.912479869219794,2.385284125398516,13.27988472306337,-0.0419921875,0.01611328125,1.0048828125,-0.1220703125,-0.54931640625,-0.18310546875,0.0,0.0,0.0,0.010314321145415306,0.019753221422433853,-0.1157655343413353,0.993026614189148
3.0456650257110596,-0.9265749250674673,2.3675365191704723,13.281318209015426,-0.04150390625,0.0166015625,1.005859375,0.0,-0.42724609375,-0.1220703125,0.0,0.0,0.0,0.01041883323341608,0.019585048779845238,-0.11577951908111572,0.9930272102355957
3.0655338764190674,-0.9328203860115035,2.342110072768042,13.282705591190586,-0.041015625,0.0166015625,1.00146484375,-0.30517578125,-0.48828125,-0.1220703125,0.0,0.0,0.0,0.01044757291674614,0.019358264282345772,-0.11579133570194244,0.9930299520492554
3.090341567993164,-0.9895898234631818,2.366268665305789,13.28376853938017,-0.04052734375,0.0166015625,1.00341796875,-0.244140625,-0.42724609375,-0.244140625,0.0,0.0,0.0,0.010964046232402325,0.01951015740633011,-0.11581142991781235,0.9930191040039062
3.105584144592285,-1.0457400615779162,2.370593455710876,13.285414614970142,-0.04150390625,0.0185546875,1.0048828125,0.30517578125,-0.244140625,-0.18310546875,0.0,0.0,0.0,0.011455263011157513,0.019490720704197884,-0.11583548784255981,0.9930111169815063
3.128324508666992,-1.0699998262927437,2.3567992483518005,13.28608482728245,-0.04052734375,0.01904296875,1.00390625,0.0,-0.79345703125,-0.18310546875,0.0,0.0,0.0,0.011651705950498581,0.019346587359905243,-0.11584459990262985,0.9930105805397034
3.146415948867798,-0.939710232615048,2.3608565941622,13.295484875127679,-0.041015625,0.01708984375,1.0029296875,-0.244140625,-1.0986328125,-0.244140625,0.0,0.0,0.0,0.010528343729674816,0.019512586295604706,-0.11590418219566345,0.9930129647254944
3.165532350540161,-0.8895701874439547,2.362122740479591,13.29946858296109,-0.04150390625,0.015625,1.0048828125,-0.1220703125,-0.42724609375,-0.06103515625,0.0,0.0,0.0,0.010095803067088127,0.019573921337723732,-0.1159302219748497,0.9930132031440735
3.185394287109375,-0.9903635558300973,2.3160953763233443,13.299047672553488,-0.04052734375,0.0166015625,1.00390625,0.06103515625,-0.06103515625,-0.06103515625,0.0,0.0,0.0,0.010922739282250404,0.019073110073804855,-0.11594122648239136,0.9930129647254944
3.205914258956909,-0.9216647661061685,2.361234815887489,13.303226040778243,-0.04150390625,0.01611328125,1.00390625,0.0,-0.91552734375,-0.1220703125,0.0,0.0,0.0,0.010373667813837528,0.019533416256308556,-0.11596821248531342,0.993006706237793
3.2255399227142334,-0.8971314736594233,2.357023363933942,13.305845418324942,-0.041015625,0.01611328125,1.00244140625,-0.30517578125,-1.03759765625,-0.06103515625,0.0,0.0,0.0,0.0101572684943676,0.01952151581645012,-0.11598654091358185,0.9930070042610168
3.24560809135437,-0.9454169623882995,2.361867889046185,13.30700996557843,-0.0419921875,0.01708984375,1.0029296875,0.0,-0.48828125,-0.1220703125,0.0,0.0,0.0,0.010580778121948242,0.01951451413333416,-0.11600508540868759,0.9930005669593811
3.2658791542053223,-0.9516157859469092,2.340484060858756,13.30912134780561,-0.041015625,0.0166015625,1.00439453125,0.1220703125,-0.06103515625,0.0,0.0,0.0,0.0,0.010613266378641129,0.019322732463479042,-0.11602333188056946,0.9930018782615662
3.287043809890747,-0.917967499331076,2.3323612583883184,13.313711234927858,-0.041015625,0.01611328125,1.00439453125,-0.244140625,-0.54931640625,0.0,0.0,0.0,0.0,0.010314255952835083,0.01928599551320076,-0.11605703830718994,0.9930017590522766
3.3055684566497803,-0.8793308267436064,2.3622939220956645,13.318616164525574,-0.04150390625,0.01513671875,1.00244140625,-0.244140625,-1.03759765625,-0.30517578125,0.0,0.0,0.0,0.010010517202317715,0.019584091380238533,-0.11609440296888351,0.9929946660995483
3.3268587589263916,-0.8535173540751597,2.2535588046129424,13.322900400682464,-0.0400390625,0.01513671875,1.001953125,0.244140625,-0.8544921875,-0.1220703125,0.0,0.0,0.0,0.00967765599489212,0.018667591735720634,-0.11612231284379959,0.9930123090744019
3.3456149101257324,-0.8939168557987274,2.338363287121467,13.322119197796145,-0.041015625,0.015625,1.00390625,0.18310546875,-0.18310546875,-0.06103515625,0.0,0.0,0.0,0.010113324970006943,0.019361624494194984,-0.11612612754106522,0.9929943084716797
3.365886926651001,-0.9724397520658087,2.399298179471501,13.322697202554657,-0.0419921875,0.0166015625,1.0029296875,-0.1220703125,-0.3662109375,-0.18310546875,0.0,0.0,0.0,0.010855438187718391,0.019810037687420845,-0.11614758521318436,0.9929750561714172
3.3857438564300537,-0.9209124848021152,2.4223933969328413,13.32762091517259,-0.0419921875,0.01611328125,1.001953125,-0.1220703125,-0.54931640625,-0.1220703125,0.0,0.0,0.0,0.010433138348162174,0.020061951130628586,-0.11618246138095856,0.9929704070091248
3.4057199954986572,-0.948540493273111,2.36637944243639,13.331532052246068,-0.041015625,0.0166015625,1.001953125,0.42724609375,-0.91552734375,-0.30517578125,0.0,0.0,0.0,0.010616584680974483,0.01954817771911621,-0.11621834337711334,0.9929745197296143
3.428941011428833,-0.8900930704414309,2.3154708409011113,13.336568462985307,-0.041015625,0.015625,1.00341796875,0.0,-0.54931640625,-0.244140625,0.0,0.0,0.0,0.010059471242129803,0.019165849313139915,-0.11624962091445923,0.9929841756820679
3.4458425045013428,-0.8692864999605737,2.347807731196302,13.339092217883627,-0.04150390625,0.015625,1.00341796875,-0.3662109375,-0.48828125,-0.06103515625,0.0,0.0,0.0,0.009912319481372833,0.019466960802674294,-0.11626946926116943,0.992977499961853
3.465886354446411,-0.8533422237559724,2.269610389492707,13.342178609614825,-0.0400390625,0.01513671875,1.0068359375,-0.1220703125,-0.54931640625,-0.06103515625,0.0,0.0,0.0,0.009695528075098991,0.018805239349603653,-0.11629006266593933,0.9929899573326111
3.4857826232910156,-0.9741365204660279,2.3647297383084203,13.342770274751677,-0.0419921875,0.017578125,1.00146484375,0.18310546875,-0.18310546875,-0.18310546875,0.0,0.0,0.0,0.010838627815246582,0.01950686052441597,-0.11631999909877777,0.992961049079895
3.506129264831543,-0.929374128688409,2.421376552520156,13.34850507233355,-0.04248046875,0.01611328125,1.00390625,-0.06103515625,-0.91552734375,-0.18310546875,0.0,0.0,0.0,0.010509083047509193,0.020042642951011658,-0.11636484414339066,0.9929487705230713
3.5261707305908203,-0.936999608009905,2.3067693933419267,13.35126788385282,-0.04052734375,0.0166015625,1.001953125,-0.3662109375,-1.15966796875,-0.18310546875,0.0,0.0,0.0,0.01045957487076521,0.01904151774942875,-0.11638440191745758,0.9929666519165039
3.5457327365875244,-1.0504359233540057,2.421055960515988,13.349137718605423,-0.0419921875,0.0185546875,1.001953125,-0.18310546875,-0.6103515625,-0.244140625,0.0,0.0,0.0,0.01155787706375122,0.01991685852408409,-0.11639141291379929,0.9929364919662476
3.5656661987304688,-0.9498449526828776,2.369362954443216,13.357694238088156,-0.04150390625,0.0166015625,1.0029296875,0.06103515625,-0.244140625,-0.18310546875,0.0,0.0,0.0,0.010635371319949627,0.019570279866456985,-0.11644541472196579,0.9929473400115967
3.584855318069458,-0.8902123853084946,2.450821711475492,13.362222653507875,-0.04296875,0.015625,1.00244140625,-0.244140625,-0.3662109375,-0.06103515625,0.0,0.0,0.0,0.010201993398368359,0.020336348563432693,-0.11647819727659225,0.9929326176643372
3.605787992477417,-0.957063075253406,2.3766136271340077,13.36194603084649,-0.04150390625,0.0166015625,1.00244140625,-0.18310546875,-0.79345703125,-0.1220703125,0.0,0.0,0.0,0.010705992579460144,0.019625378772616386,-0.11648386716842651,0.9929409623146057
3.625934600830078,-0.8918129974518048,2.3083885750620428,13.369006738900989,-0.04052734375,0.015625,1.00341796875,0.244140625,-0.79345703125,-0.244140625,0.0,0.0,0.0,0.010072615928947926,0.019099880009889603,-0.1165306493639946,0.9929524660110474
3.6498706340789795,-1.086931011471559,2.3416161647136855,13.363064474323078,-0.041015625,0.01953125,1.0048828125,-0.1220703125,-0.67138671875,-0.1220703125,0.0,0.0,0.0,0.011796019971370697,0.019189974293112755,-0.11651357263326645,0.9929336905479431
3.6658551692962646,-1.0413208224632122,2.3013746111146745,13.367354686895492,-0.04052734375,0.01806640625,1.005859375,-0.30517578125,-0.42724609375,-0.18310546875,0.0,0.0,0.0,0.011360729113221169,0.01888721063733101,-0.11654074490070343,0.9929414391517639
3.680727005004883,-1.0209116836146852,2.4210691940075053,13.37058963524114,-0.04248046875,0.017578125,1.00341796875,-0.18310546875,-0.732421875,-0.06103515625,0.0,0.0,0.0,0.011305796913802624,0.019944842904806137,-0.11657215654850006,0.9929176568984985
3.7058699131011963,-0.9031669062864816,2.4008526878379137,13.377523131022349,-0.04150390625,0.01611328125,1.0009765625,0.18310546875,-0.54931640625,-0.06103515625,0.0,0.0,0.0,0.010266251862049103,0.01988881267607212,-0.11661075055599213,0.9929254055023193
3.7257213592529297,-1.002031546644889,2.3257626553198514,13.3754732204977,-0.04052734375,0.01708984375,1.00146484375,0.0,-0.732421875,-0.1220703125,0.0,0.0,0.0,0.011046369560062885,0.01913771964609623,-0.1166059747338295,0.9929324388504028
3.7455081939697266,-0.9201861368725666,2.3693104473639717,13.381394140734454,-0.04150390625,0.01611328125,1.001953125,-0.42724609375,-0.54931640625,-0.1220703125,0.0,0.0,0.0,0.010382374748587608,0.019597817212343216,-0.1166457086801529,0.9929260015487671
3.765563726425171,-0.9328485605418297,2.401588427277571,13.383317692759459,-0.0419921875,0.015625,1.0029296875,-0.244140625,-0.48828125,-0.1220703125,0.0,0.0,0.0,0.010525190271437168,0.01986444741487503,-0.11666613817214966,0.9929167628288269
3.787045478820801,-0.9347073324914252,2.3873487635185637,13.387735971378811,-0.041015625,0.0166015625,1.00390625,0.244140625,-0.6103515625,-0.18310546875,0.0,0.0,0.0,0.010527603328227997,0.019738761708140373,-0.1167040467262268,0.9929147362709045
3.8057310581207275,-0.9450674488018652,2.424766247339186,13.392525641534283,-0.04248046875,0.01708984375,1.00146484375,0.06103515625,-0.8544921875,-0.1220703125,0.0,0.0,0.0,0.010656205005943775,0.0200519897043705,-0.11674919724464417,0.9929018020629883
3.8255205154418945,-0.9947675337408746,2.397180820828797,13.39254186323356,-0.04150390625,0.017578125,1.001953125,-0.3662109375,-0.79345703125,-0.18310546875,0.0,0.0,0.0,0.011058825068175793,0.019762324169278145,-0.11675653606653214,0.9929023385047913
3.845604419708252,-0.9490842403640675,2.3900168061631,13.397479236229834,-0.04150390625,0.01611328125,1.00439453125,-0.244140625,-0.42724609375,-0.1220703125,0.0,0.0,0.0,0.010656563565135002,0.019746331498026848,-0.11679106950759888,0.9929029941558838
3.8657517433166504,-0.9786588527485168,2.419679037067996,13.400491349653809,-0.04248046875,0.01708984375,1.00390625,0.30517578125,-0.48828125,-0.1220703125,0.0,0.0,0.0,0.010943485423922539,0.019972926005721092,-0.11682382225990295,0.9928914904594421
3.8815908432006836,-0.8779950445131929,2.290157732950221,13.406950147287702,-0.0400390625,0.015625,1.001953125,0.1220703125,-0.79345703125,0.1220703125,0.0,0.0,0.0,0.009940668009221554,0.018952663987874985,-0.11685629934072495,0.9929182529449463
3.9055581092834473,-0.9436000253473703,2.3016049165557506,13.40825812851376,-0.041015625,0.0166015625,1.0048828125,-0.30517578125,-1.0986328125,-0.18310546875,0.0,0.0,0.0,0.010520980693399906,0.018984828144311905,-0.11687904596328735,0.9929090142250061
3.925403594970703,-0.9313002420343525,2.3149434222311394,13.412881312808212,-0.04052734375,0.01611328125,1.0029296875,0.0,-0.91552734375,-0.3662109375,0.0,0.0,0.0,0.010428745299577713,0.01911253295838833,-0.11691772937774658,0.992902934551239
3.941236972808838,-0.9610492376860489,2.354890423922194,13.414008294021265,-0.04150390625,0.01708984375,1.00341796875,0.06103515625,-0.244140625,-0.1220703125,0.0,0.0,0.0,0.010727343149483204,0.01942821405827999,-0.11693452298641205,0.9928917288780212
3.965765953063965,-0.9622083421325411,2.34254955275245,13.417151888586764,-0.041015625,0.0166015625,1.00244140625,-0.30517578125,-0.42724609375,-0.06103515625,0.0,0.0,0.0,0.010725361295044422,0.0193198062479496,-0.11696133017539978,0.9928906559944153
3.9855360984802246,-0.9036646563222462,2.2369253729932574,13.422009006860288,-0.0390625,0.015625,1.0048828125,-0.1220703125,-0.732421875,0.0,0.0,0.0,0.0,0.010111374780535698,0.01846388913691044,-0.11698845773935318,0.9929102063179016
4.005537509918213,-0.9481586430098249,2.3350990970284355,13.425629860894041,-0.041015625,0.0166015625,1.00439453125,0.30517578125,-0.79345703125,-0.30517578125,0.0,0.0,0.0,0.010597468353807926,0.019268803298473358,-0.11703203618526459,0.9928846955299377
4.025634527206421,-0.9786272631236056,2.4260708134706586,13.428831512067484,-0.04248046875,0.0166015625,1.00244140625,0.0,-0.732421875,-0.18310546875,0.0,0.0,0.0,0.010954659432172775,0.02002563141286373,-0.11706970632076263,0.9928613901138306
4.046388626098633,-0.9739561607832573,2.3929029879742534,13.430645781065769,-0.0419921875,0.01708984375,1.00439453125,-0.42724609375,-0.67138671875,-0.1220703125,0.0,0.0,0.0,0.010880719870328903,0.019742842763662338,-0.11708288639783859,0.9928662180900574
4.065556526184082,-1.0431385065560819,2.308185376934235,13.430275243303296,-0.041015625,0.01806640625,1.0029296875,-0.3662109375,-0.54931640625,-0.06103515625,0.0,0.0,0.0,0.01139378547668457,0.018938127905130386,-0.11708663403987885,0.9928758144378662
4.088568210601807,-0.9201443019639003,2.351755793979981,13.437717588177671,-0.04150390625,0.015625,1.0029296875,0.244140625,-0.54931640625,0.1220703125,0.0,0.0,0.0,0.010373751632869244,0.019440647214651108,-0.11713287234306335,0.9928717613220215
4.103374242782593,-0.860695989614549,2.427745063590958,13.443825484842955,-0.04248046875,0.01513671875,1.00244140625,0.18310546875,-0.8544921875,-0.1220703125,0.0,0.0,0.0,0.009937199763953686,0.020159311592578888,-0.1171790063381195,0.992856502532959
4.12645149230957,-0.9340568636946873,2.360210074068576,13.442875234774677,-0.041015625,0.0166015625,1.0029296875,-0.3662109375,-1.03759765625,-0.18310546875,0.0,0.0,0.0,0.010503789409995079,0.01949920877814293,-0.11718033254146576,0.9928637146949768
4.14582633972168,-0.8708359924068146,2.3623852758758135,13.448966909740681,-0.04150390625,0.015625,1.0029296875,-0.1220703125,-0.79345703125,-0.18310546875,0.0,0.0,0.0,0.009959278628230095,0.019582172855734825,-0.11722242832183838,0.9928627014160156
4.167115926742554,-0.9799151806689761,2.339205107936671,13.446251909545602,-0.041015625,0.01708984375,1.00390625,0.06103515625,-0.1220703125,-0.06103515625,0.0,0.0,0.0,0.010880273766815662,0.01926998980343342,-0.11721627414226532,0.9928598403930664
4.185587167739868,-0.9245938500430463,2.3595422096337955,13.449913744714376,-0.04150390625,0.01611328125,1.00146484375,0.06103515625,-0.6103515625,0.1220703125,0.0,0.0,0.0,0.010422316379845142,0.019502460956573486,-0.11723967641592026,0.9928574562072754
4.207270622253418,-0.9980001342089947,2.305659914488623,13.451218310845848,-0.04052734375,0.017578125,1.00244140625,-0.30517578125,-1.220703125,-0.30517578125,0.0,0.0,0.0,0.011003579013049603,0.01896035484969616,-0.11726050078868866,0.9928591847419739
4.2220048904418945,-1.0423519675844726,2.345970196866157,13.454176636530109,-0.0419921875,0.017578125,1.00146484375,0.1220703125,-0.91552734375,-0.18310546875,0.0,0.0,0.0,0.01142947655171156,0.019263945519924164,-0.11729580909013748,0.9928444623947144
4.245779275894165,-0.9017963861408362,2.415943990809057,13.462370302213186,-0.04248046875,0.015625,1.00341796875,0.1220703125,-0.30517578125,-0.18310546875,0.0,0.0,0.0,0.010284511372447014,0.020013364031910896,-0.1173463687300682,0.9928361177444458
4.265838623046875,-0.9629106776782889,2.464723067427172,13.461876821045653,-0.04296875,0.0166015625,1.0048828125,-0.1220703125,-0.42724609375,-0.06103515625,0.0,0.0,0.0,0.010863730683922768,0.020373469218611717,-0.11735524237155914,0.9928215146064758
4.285586595535278,-0.94071224271063,2.44639788332744,13.465849429821661,-0.04248046875,0.0166015625,1.0048828125,-0.244140625,-0.91552734375,-0.06103515625,0.0,0.0,0.0,0.010653393343091011,0.02023705653846264,-0.11738480627536774,0.9928231239318848
4.305792331695557,-0.93033366354509,2.457715933668974,13.469677750851453,-0.04296875,0.01611328125,1.00390625,0.0,-0.8544921875,-0.1220703125,0.0,0.0,0.0,0.01057571079581976,0.020345395430922508,-0.11741667985916138,0.9928180575370789
4.326009511947632,-0.98454540859601,2.363254204004286,13.473260185071124,-0.041015625,0.01708984375,1.00439453125,0.18310546875,-0.732421875,-0.30517578125,0.0,0.0,0.0,0.010949507355690002,0.019471051171422005,-0.11745233833789825,0.992827296257019
4.345844268798828,-0.9351744533976307,2.2688025061799415,13.477515392924044,-0.0400390625,0.01611328125,1.00244140625,-0.18310546875,-0.42724609375,-0.1220703125,0.0,0.0,0.0,0.010425918735563755,0.01870288886129856,-0.11747608333826065,0.992844820022583
4.365902662277222,-0.9738618187953465,2.3807429033741037,13.479820581768923,-0.04150390625,0.0166015625,1.0029296875,-0.18310546875,-0.48828125,-0.18310546875,0.0,0.0,0.0,0.010875940322875977,0.019632909446954727,-0.11750828474760056,0.9928182363510132
4.385519981384277,-0.9903429585408815,2.320848334212027,13.482733657449932,-0.041015625,0.01708984375,1.0029296875,0.18310546875,-0.79345703125,-0.18310546875,0.0,0.0,0.0,0.010957981459796429,0.019096780568361282,-0.1175331100821495,0.992824912071228
4.408013105392456,-0.9366146628171513,2.383266871715835,13.486480869983332,-0.0419921875,0.0166015625,1.0029296875,0.06103515625,-0.67138671875,-0.06103515625,0.0,0.0,0.0,0.010556956753134727,0.019692357629537582,-0.11755971610546112,0.9928144216537476
4.425387382507324,-0.8704556896082625,2.36084293378386,13.49137811561823,-0.04150390625,0.01611328125,1.0029296875,-0.244140625,-1.03759765625,-0.244140625,0.0,0.0,0.0,0.009961651638150215,0.019565511494874954,-0.11758975684642792,0.992819607257843
4.445623397827148,-1.044018853907073,2.349044208879486,13.485161789699873,-0.041015625,0.017578125,1.00244140625,-0.244140625,-0.54931640625,0.0,0.0,0.0,0.0,0.011452271603047848,0.01928577944636345,-0.11756472289562225,0.992811918258667
4.4658801555633545,-0.919523288357958,2.4037313991296623,13.49239154493633,-0.0419921875,0.01611328125,1.00341796875,0.244140625,-0.244140625,0.0,0.0,0.0,0.0,0.010430837981402874,0.019886663183569908,-0.11760897189378738,0.992806077003479
4.485583305358887,-0.9379080231695167,2.436246087786685,13.49484699794295,-0.04248046875,0.0166015625,1.00244140625,-0.06103515625,-0.48828125,-0.06103515625,0.0,0.0,0.0,0.010623827576637268,0.02014928124845028,-0.11763504147529602,0.9927956461906433
4.505609035491943,-1.061275433566816,2.2518694000104222,13.49377465824326,-0.03955078125,0.0185546875,1.001953125,-0.244140625,-1.0986328125,-0.18310546875,0.0,0.0,0.0,0.011503780260682106,0.01842525228857994,-0.11763643473386765,0.9928192496299744
4.521175146102905,-0.9125097512974127,2.3548543519856397,13.504842979793263,-0.041015625,0.01611328125,1.00048828125,0.18310546875,-0.91552734375,-0.18310546875,0.0,0.0,0.0,0.010322166606783867,0.019469257444143295,-0.11771330237388611,0.992803156375885
4.545532464981079,-0.9458712766898111,2.3165626039512555,13.504630390155347,-0.04052734375,0.0166015625,1.0029296875,0.1220703125,-0.18310546875,-0.06103515625,0.0,0.0,0.0,0.010571944527328014,0.019103238359093666,-0.11771519482135773,0.9928073883056641
4.565916061401367,-0.887483938178486,2.4383045360477977,13.510006602805793,-0.04296875,0.015625,1.00390625,-0.3662109375,-0.54931640625,-0.06103515625,0.0,0.0,0.0,0.010191744193434715,0.020217526704072952,-0.11775758862495422,0.992784321308136
4.586796283721924,-0.9313838051299794,2.432528117000671,13.511263357613077,-0.04248046875,0.01708984375,1.00146484375,-0.06103515625,-0.8544921875,-0.18310546875,0.0,0.0,0.0,0.010566380806267262,0.02012225240468979,-0.11777593940496445,0.9927800893783569
4.605748891830444,-0.9474537461431385,2.333767850470518,13.515516004145056,-0.04150390625,0.01611328125,1.001953125,0.1220703125,-0.9765625,-0.1220703125,0.0,0.0,0.0,0.010605107992887497,0.019249675795435905,-0.11781063675880432,0.9927928447723389
4.625560522079468,-0.8671189821161526,2.3397743615153095,13.520933197930521,-0.04052734375,0.0146484375,1.0029296875,0.1220703125,-0.67138671875,-0.18310546875,0.0,0.0,0.0,0.009916180744767189,0.019383834674954414,-0.11784432083368301,0.9927933812141418
4.645791292190552,-0.9289332613218257,2.37417204794914,13.521905646113602,-0.04150390625,0.01611328125,1.0029296875,-0.42724609375,-0.79345703125,-0.18310546875,0.0,0.0,0.0,0.010487166233360767,0.019618196412920952,-0.11786486208438873,0.9927805066108704
4.665802717208862,-0.8635213934142599,2.338960074900197,13.526408448323933,-0.041015625,0.01513671875,1.0048828125,-0.244140625,-0.67138671875,-0.06103515625,0.0,0.0,0.0,0.009885103441774845,0.019380008801817894,-0.1178911104798317,0.9927881360054016
4.685667276382446,-0.9407691253798116,2.3546270347523253,13.52772325973916,-0.04150390625,0.0166015625,1.00341796875,0.18310546875,-0.244140625,0.0,0.0,0.0,0.0,0.010570649057626724,0.019436147063970566,-0.11791632324457169,0.9927770495414734
4.705805063247681,-0.9649846005867397,2.2947194455421434,13.530930033554482,-0.0400390625,0.017578125,1.00439453125,0.1220703125,-0.6103515625,-0.1220703125,0.0,0.0,0.0,0.010719501413404942,0.018891889601945877,-0.11794508248567581,0.9927825927734375
4.726231336593628,-1.050852351449965,2.321171700980545,13.529382141933828,-0.04052734375,0.0185546875,1.00341796875,-0.3662109375,-1.0986328125,-0.244140625,0.0,0.0,0.0,0.011490315198898315,0.01903284154832363,-0.11794735491275787,0.9927709698677063
4.745596885681152,-0.9460458734004695,2.4347696997089043,13.534969236674899,-0.04248046875,0.0166015625,0.99951171875,-0.42724609375,-0.732421875,-0.06103515625,0.0,0.0,0.0,0.010699868202209473,0.020124388858675957,-0.11798399686813354,0.9927539229393005
4.7656872272491455,-0.600696781369227,2.35620779665836,13.54272662402474,-0.0400390625,-0.16015625,0.8955078125,-15.68603515625,4.0283203125,1.40380859375,0.0,0.0,0.0,0.007628566585481167,0.019798697903752327,-0.11798814684152603,0.9927883148193359
4.7864649295806885,-0.33442367084527824,2.3605624691410663,13.538537156742583,-0.02734375,-0.29443359375,1.0673828125,-6.103515625,-4.150390625,-1.708984375,0.0,0.0,0.0,0.005325376987457275,0.020110733807086945,-0.11790554225444794,0.9928069114685059
4.806014776229858,-0.2827979794884278,2.361903960982739,13.546344062963907,-0.04541015625,-0.1064453125,1.076171875,8.1787109375,1.46484375,0.9765625,0.0,0.0,0.0,0.0048808506689965725,0.020175138488411903,-0.11796409636735916,0.9928009510040283
4.825564622879028,-0.04731035916293791,2.3512460911131687,13.56858059758053,-0.0625,-0.15673828125,0.88916015625,-12.5732421875,6.77490234375,1.46484375,0.0,0.0,0.0,0.002833597594872117,0.020324626937508583,-0.11811523139476776,0.9927878379821777
4.845702886581421,0.1865922170480726,2.3016074778766895,13.609011048598775,-0.041015625,-0.17724609375,1.068359375,7.99560546875,-5.67626953125,-2.13623046875,0.0,0.0,0.0,0.0007630581967532635,0.020135357975959778,-0.11842551827430725,0.9927584528923035
4.865516901016235,0.26139149961894664,2.2920076469982367,13.617915907729179,-0.041015625,-0.02734375,1.0341796875,5.06591796875,-3.35693359375,-2.38037109375,0.0,0.0,0.0,0.00010667473543435335,0.020129479467868805,-0.11848988384008408,0.9927512407302856
4.884683609008789,0.5361323905272717,2.2766367331579462,13.632681069167454,-0.02490234375,-0.099609375,0.97509765625,-1.77001953125,-4.21142578125,-2.5634765625,0.0,0.0,0.0,-0.0022868087980896235,0.020280644297599792,-0.11857014149427414,0.9927358627319336
4.905824184417725,0.4660993660376633,2.2248794806182937,13.658149990808786,-0.04345703125,0.01123046875,1.02978515625,3.173828125,-1.03759765625,-1.220703125,0.0,0.0,0.0,-0.0017293354030698538,0.01976017840206623,-0.11880602687597275,0.9927194118499756
4.925613164901733,0.7329989329745492,2.3115069833049766,13.68463831818374,-0.05224609375,-0.11181640625,0.927734375,-5.67626953125,-2.62451171875,-1.64794921875,0.0,0.0,0.0,-0.003946737386286259,0.02078818716108799,-0.11898257583379745,0.9926708340644836
4.946295738220215,0.7400513167359989,2.2910243132011665,13.727997212808628,-0.0390625,-0.00830078125,1.05517578125,5.0048828125,-1.15966796875,-1.28173828125,0.0,0.0,0.0,-0.004021341912448406,0.020619601011276245,-0.11935846507549286,0.9926289319992065
4.965799331665039,0.8309794373614101,2.193479180013041,13.751141308811217,-0.02392578125,-0.029296875,0.95556640625,0.91552734375,-2.13623046875,-2.197265625,0.0,0.0,0.0,-0.004906808491796255,0.019870353862643242,-0.1195506602525711,0.992617130279541
4.985608339309692,1.062413193672152,2.1010443089845543,13.796543283771584,-0.04052734375,-0.03076171875,1.0166015625,-0.6103515625,3.23486328125,-0.67138671875,0.0,0.0,0.0,-0.007000559009611607,0.019313884899020195,-0.11991279572248459,0.9925718903541565
5.005818605422974,1.1410546043935037,2.2285092992753324,13.808841893145837,-0.05517578125,-0.0234375,1.03076171875,2.50244140625,-1.28173828125,-0.9765625,0.0,0.0,0.0,-0.0075457594357430935,0.020500997081398964,-0.11999252438545227,0.9925343990325928
5.025570631027222,0.9287714712158611,2.364122918689347,13.804348482445615,-0.05126953125,-0.0009765625,0.98388671875,1.5869140625,1.46484375,0.1220703125,0.0,0.0,0.0,-0.005565473809838295,0.021453024819493294,-0.11997899413108826,0.992529034614563
5.0456862449646,0.9761177022121548,2.4769565765609,13.80420846356763,-0.04248046875,-0.00927734375,0.99560546875,1.40380859375,-3.60107421875,-0.48828125,0.0,0.0,0.0,-0.00585711095482111,0.022479837760329247,-0.11995808780193329,0.9925071597099304
5.065700054168701,0.8188316257574251,2.414038581474035,13.809256827137917,-0.02978515625,0.0107421875,0.99462890625,-0.30517578125,1.64794921875,-0.48828125,0.0,0.0,0.0,-0.00455990107730031,0.021770428866147995,-0.12003785371780396,0.9925201535224915
5.085664749145508,0.8521196198945401,2.4598441779256675,13.819816299594756,-0.06103515625,-0.05419921875,0.97314453125,-4.69970703125,0.06103515625,-0.244140625,0.0,0.0,0.0,-0.004798069596290588,0.02220246195793152,-0.12011901289224625,0.9924996495246887
5.1056599617004395,1.25043015883262,2.540534752119729,13.834897357282143,-0.076171875,-0.21240234375,1.025390625,-2.9296875,-1.0986328125,-2.13623046875,0.0,0.0,0.0,-0.008159952238202095,0.02331973984837532,-0.12016225606203079,0.9924468398094177
5.12548041343689,1.4688187340763137,2.664822637229393,13.956210054678033,-0.0654296875,-0.22021484375,1.0205078125,-0.732421875,6.2255859375,-9.58251953125,0.0,0.0,0.0,-0.00989436637610197,0.02463550865650177,-0.1211513802409172,0.9922789931297302
5.145492792129517,1.600327836685974,2.7370271282665364,14.12434796770259,-0.1376953125,-0.2216796875,0.99560546875,0.9765625,1.220703125,-10.25390625,0.0,0.0,0.0,-0.010919124819338322,0.025415753945708275,-0.1225682720541954,0.9920745491981506
5.166615009307861,1.8324385821373403,2.812568380156643,14.460166171077315,-0.072265625,-0.25146484375,0.9658203125,-1.03759765625,3.23486328125,-18.5546875,0.0,0.0,0.0,-0.012770145200192928,0.026355423033237457,-0.12541082501411438,0.9916725158691406
5.185928821563721,2.0862721039136978,2.859354749084407,14.948430781632139,-0.0546875,-0.30078125,0.9990234375,0.18310546875,6.28662109375,-25.81787109375,0.0,0.0,0.0,-0.014799896627664566,0.027101289480924606,-0.12956759333610535,0.9910897016525269
5.207699298858643,2.2497829906623945,2.9954046468316564,15.709733911805515,-0.11669921875,-0.24267578125,1.0439453125,7.50732421875,2.8076171875,-31.79931640625,0.0,0.0,0.0,-0.01586967334151268,0.028568686917424202,-0.13608293235301971,0.9901583194732666
5.220842123031616,2.2960319090798436,3.073194525062578,16.218985986132495,-0.13525390625,-0.1904296875,0.9765625,7.38525390625,2.74658203125,-35.0341796875,0.0,0.0,0.0,-0.016045866534113884,0.02936725877225399,-0.14045432209968567,0.9895215034484863
5.2455668449401855,2.4555966540355656,3.189763015749658,16.955679944726317,-0.14990234375,-0.15673828125,0.9208984375,-1.8310546875,3.7841796875,-36.4990234375,0.0,0.0,0.0,-0.01708284020423889,0.03067965619266033,-0.14674608409404755,0.9885507225990295
5.265829563140869,2.7924705485238803,3.2857431818442047,17.974453885852494,-0.07861328125,-0.173828125,1.01806640625,1.28173828125,3.90625,-41.50390625,0.0,0.0,0.0,-0.019580185413360596,0.03211404010653496,-0.1554136872291565,0.9871332049369812
5.285588026046753,2.936382207449226,3.267795152252704,18.6485372078721,-0.021484375,-0.17626953125,1.095703125,7.01904296875,2.99072265625,-45.2880859375,0.0,0.0,0.0,-0.02065492980182171,0.03227668255567551,-0.16118186712265015,0.9861804842948914
5.306565761566162,3.094850707043161,3.3054373919857016,19.831556707969572,-0.09912109375,-0.13525390625,0.9736328125,3.5400390625,1.15966796875,-46.875,0.0,0.0,0.0,-0.02162523940205574,0.033048417419195175,-0.17129875719547272,0.9844271540641785
5.326227426528931,3.1932129016107496,3.3698584555767925,20.51209968139672,-0.162109375,-0.12353515625,0.94189453125,1.0986328125,-1.46484375,-44.25048828125,0.0,0.0,0.0,-0.022172236815094948,0.03388097137212753,-0.1770952045917511,0.9833604693412781
5.345661163330078,3.427772056436154,3.410537354726096,21.55938283211853,-0.1220703125,-0.12158203125,0.9775390625,-2.197265625,-5.37109375,-38.6962890625,0.0,0.0,0.0,-0.023804431781172752,0.0348113588988781,-0.18599233031272888,0.9816457629203796
5.366053581237793,3.5960416640456456,3.3453720139588854,22.10401357879888,-0.0947265625,-0.12939453125,1.01611328125,0.3662109375,-7.8125,-34.7900390625,0.0,0.0,0.0,-0.025188276544213295,0.034646518528461456,-0.19062501192092896,0.9807279706001282
5.386162281036377,3.8112472644144075,3.2093295867310405,22.71480836796915,-0.05224609375,-0.1220703125,0.986328125,1.708984375,-6.04248046875,-27.28271484375,0.0,0.0,0.0,-0.027077771723270416,0.03398542478680611,-0.19582945108413696,0.9796748161315918
5.404400825500488,3.960149657188917,2.959323745654241,23.251164340470034,-0.01171875,-0.11181640625,0.970703125,5.06591796875,-3.2958984375,-16.05224609375,0.0,0.0,0.0,-0.02863140031695366,0.03223768621683121,-0.20045389235019684,0.9787539839744568
5.421732187271118,4.064961471323701,2.7466884308475197,23.438914287922636,-0.0302734375,-0.0380859375,0.869140625,-8.48388671875,-7.6904296875,-7.4462890625,0.0,0.0,0.0,-0.029851609840989113,0.030654482543468475,-0.20210139453411102,0.9784295558929443
5.445759534835815,4.041005009696705,2.5938657229328346,23.497319235515416,0.0,-0.064453125,1.11181640625,4.33349609375,-4.57763671875,-3.662109375,0.0,0.0,0.0,-0.02990383468568325,0.02932303585112095,-0.20265881717205048,0.9783534407615662
5.465837478637695,3.7491023613642236,2.136140168817607,23.56649880652389,0.0029296875,-0.0234375,1.14404296875,11.23046875,-8.11767578125,-3.41796875,0.0,0.0,0.0,-0.028211884200572968,0.02491649240255356,-0.2034682184457779,0.9783577919006348
5.4856040477752686,3.469920940360891,2.1136553995133367,23.623131320027053,0.05224609375,0.09228515625,1.060546875,14.58740234375,9.94873046875,-2.86865234375,0.0,0.0,0.0,-0.02585638500750065,0.024241548031568527,-0.20401839911937714,0.9783252477645874
5.507410526275635,3.1330694574307905,2.2227486750406613,23.723512902711438,-0.0830078125,0.13623046875,0.869140625,1.28173828125,-2.0751953125,-3.84521484375,0.0,0.0,0.0,-0.022763626649975777,0.02459290809929371,-0.20491661131381989,0.9782056212425232
5.526117324829102,3.036627826680445,2.2426266599595137,23.764946537764025,-0.1005859375,0.125,0.8857421875,-3.35693359375,-1.15966796875,-3.5400390625,0.0,0.0,0.0,-0.02189573459327221,0.0245980117470026,-0.20528572797775269,0.9781479239463806
5.5458152294158936,2.838571977543939,2.2760478427854443,23.842691165991695,-0.03076171875,0.078125,1.052734375,1.5869140625,1.64794921875,-4.57763671875,0.0,0.0,0.0,-0.020128296688199043,0.024542061612010002,-0.20598328113555908,0.9780406951904297
5.566249847412109,2.563904884695162,2.251356708935848,23.93350365364889,-0.05908203125,0.10693359375,1.03369140625,4.8828125,-2.685546875,-5.37109375,0.0,0.0,0.0,-0.017809638753533363,0.023851675912737846,-0.20682217180728912,0.9779256582260132
5.585725545883179,2.153279888209519,2.217172679356992,24.05306269997538,-0.04833984375,0.1640625,0.97802734375,3.84521484375,2.86865234375,-3.11279296875,0.0,0.0,0.0,-0.014343376271426678,0.022833680734038353,-0.207933247089386,0.9777713418006897
5.6018149852752686,1.9410718871127468,2.176077992441964,24.107297817079868,-0.0458984375,0.11083984375,0.9951171875,4.82177734375,-4.08935546875,-3.96728515625,0.0,0.0,0.0,-0.012597006745636463,0.02210393361747265,-0.20844532549381256,0.9777030944824219
5.62058424949646,1.7337493922632377,2.1568663778540107,24.159388254784968,-0.05322265625,0.1611328125,0.93798828125,-2.197265625,-3.173828125,-3.41796875,0.0,0.0,0.0,-0.010853340849280357,0.02156781032681465,-0.2089325487613678,0.9776319861412048
5.645730018615723,1.5746016090120034,2.1319398159214606,24.227659410633834,-0.03076171875,0.1396484375,0.99951171875,-1.64794921875,1.8310546875,-3.96728515625,0.0,0.0,0.0,-0.009528583846986294,0.021070659160614014,-0.20954851806163788,0.9775247573852539
5.661839962005615,1.2560296332915613,2.1122340798357393,24.348681824989995,-0.00634765625,0.126953125,1.0927734375,4.94384765625,0.732421875,-5.0048828125,0.0,0.0,0.0,-0.006825617514550686,0.02032715268433094,-0.2106410712003708,0.9773283004760742
5.680741548538208,1.0486023377269746,2.08260279822552,24.424659141769926,-0.03076171875,0.134765625,1.03955078125,4.2724609375,-1.953125,-5.2490234375,0.0,0.0,0.0,-0.005098004825413227,0.019696509465575218,-0.21132880449295044,0.9772032499313354
5.70989990234375,0.786044743389807,2.0443654782610845,24.563614217791958,-0.03271484375,0.14501953125,0.9228515625,-0.48828125,-1.708984375,-6.2255859375,0.0,0.0,0.0,-0.002906689653173089,0.01888972334563732,-0.212561696767807,0.9769608378410339
5.725633859634399,0.6868386469337519,2.0413157987966737,24.64350352541901,-0.0625,0.130859375,0.9228515625,-4.0283203125,-1.52587890625,-5.06591796875,0.0,0.0,0.0,-0.002053537406027317,0.018681133165955544,-0.21325929462909698,0.976814866065979
5.745893478393555,0.5423954605527618,2.055304453103683,24.753918655994145,-0.080078125,0.09619140625,1.013671875,-3.23486328125,-3.11279296875,-4.45556640625,0.0,0.0,0.0,-0.0007783437613397837,0.018532302230596542,-0.2142227590084076,0.9766086935997009
5.765703439712524,0.4400965157023074,2.079611815699289,24.801847800947417,-0.07275390625,0.08447265625,0.98876953125,-2.5634765625,-2.74658203125,-3.662109375,0.0,0.0,0.0,0.00014673237456008792,0.01854814402759075,-0.21464604139328003,0.9765158295631409
5.785558462142944,0.27627637613068207,2.1147981755388443,24.851976266813434,-0.041015625,0.07275390625,0.98583984375,-1.3427734375,1.708984375,-2.62451171875,0.0,0.0,0.0,0.0016168132424354553,0.018540402874350548,-0.215097576379776,0.9764152765274048
5.805598258972168,0.058505145934294595,2.127791329774324,24.903552732783492,-0.02783203125,0.06640625,1.01611328125,1.15966796875,1.28173828125,-3.11279296875,0.0,0.0,0.0,0.0035050061997026205,0.018240731209516525,-0.2155713587999344,0.9763115048408508
5.826894998550415,-0.026580431542098396,2.1416704876112016,24.94031964108567,-0.052734375,0.107421875,0.92041015625,-12.20703125,-2.44140625,-2.25830078125,0.0,0.0,0.0,0.004261878319084644,0.018197547644376755,-0.21589764952659607,0.9762370586395264
5.845988035202026,-0.0640099448999943,2.11180399136144,24.968079237419893,-0.02587890625,0.0703125,1.08154296875,-4.2724609375,-1.953125,-3.2958984375,0.0,0.0,0.0,0.004528811667114496,0.017871486023068428,-0.21614094078540802,0.9761881828308105
5.8665852546691895,-0.3814286858677622,1.969071820728391,25.058483621274185,-0.04345703125,0.0224609375,1.11962890625,2.01416015625,-7.50732421875,-4.82177734375,0.0,0.0,0.0,0.006976363714784384,0.016051270067691803,-0.21696047484874725,0.9760234355926514
5.886169195175171,-0.17636395540512564,1.8891904105075648,25.16228542118545,-0.02001953125,-0.0439453125,0.97802734375,-3.35693359375,-5.859375,-5.859375,0.0,0.0,0.0,0.005092817358672619,0.015754491090774536,-0.21781693398952484,0.9758492112159729
5.905925273895264,-0.11019310940646855,1.8087028209978997,25.22383567089102,-0.02197265625,-0.00634765625,0.9970703125,-0.91552734375,6.9580078125,-1.953125,0.0,0.0,0.0,0.004384508356451988,0.015192478895187378,-0.21833373606204987,0.9757461547851562
5.9256181716918945,-0.01995855647166442,1.7652820277836594,25.297620496947378,-0.00537109375,-0.04052734375,1.0283203125,6.04248046875,5.06591796875,-2.3193359375,0.0,0.0,0.0,0.0035430912394076586,0.01499239169061184,-0.21895116567611694,0.9756142497062683
5.945785284042358,0.11878704818729165,1.89014300845337,25.33603348083953,-0.06103515625,-0.01171875,0.93212890625,-2.50244140625,-2.62451171875,-2.13623046875,0.0,0.0,0.0,0.0026058880612254143,0.016319645568728447,-0.2192549854516983,0.9755276441574097
5.965647459030151,0.30045457878186604,2.050335917369322,25.361129303397448,-0.07421875,-0.0341796875,0.99267578125,-5.43212890625,-3.41796875,-1.89208984375,0.0,0.0,0.0,0.0013698695693165064,0.018030615523457527,-0.21943359076976776,0.9754599332809448
5.9834229946136475,0.4979348777590927,2.052424674594876,25.427455562880148,-0.02587890625,-0.0537109375,1.08837890625,1.5869140625,0.91552734375,-3.47900390625,0.0,0.0,0.0,-0.0002965138992294669,0.018426701426506042,-0.21996662020683289,0.9753333926200867
6.00577712059021,0.6338660476086602,2.053273539042662,25.504631577859417,-0.052734375,-0.03955078125,0.98486328125,1.3427734375,-2.197265625,-3.72314453125,0.0,0.0,0.0,-0.0014392549637705088,0.01869581639766693,-0.22060136497020721,0.9751838445663452
6.020782232284546,0.7747634053150615,2.182076606080528,25.571060290179666,-0.056640625,-0.03369140625,0.96826171875,1.5869140625,-1.52587890625,-2.9296875,0.0,0.0,0.0,-0.0023784697987139225,0.020064476877450943,-0.22113147377967834,0.975034773349762
6.045750379562378,0.9021983000848092,2.209850289679915,25.62574790731667,-0.04833984375,-0.05078125,1.033203125,3.96728515625,-1.953125,-2.197265625,0.0,0.0,0.0,-0.003399315755814314,0.02054830826818943,-0.2215714454650879,0.974921703338623
6.065786838531494,0.9516205884236694,2.3836743351885086,25.651704333710008,-0.0576171875,-0.015625,0.9365234375,-0.42724609375,-3.173828125,-0.06103515625,0.0,0.0,0.0,-0.003478212282061577,0.02212338335812092,-0.22176437079906464,0.9748430848121643
6.085693359375,0.9272340383223735,2.345974038847565,25.67950491117925,-0.025390625,-0.0078125,0.95556640625,-4.638671875,-0.6103515625,-1.77001953125,0.0,0.0,0.0,-0.0033385436981916428,0.02175629884004593,-0.22200967371463776,0.9747960567474365
6.108853578567505,0.9445911498289626,2.1871499425299663,25.72685861269495,0.0185546875,-0.0263671875,1.08056640625,1.3427734375,0.6103515625,-3.5400390625,0.0,0.0,0.0,-0.0037859033327549696,0.020440511405467987,-0.2224264293909073,0.9747278094291687
6.130325555801392,0.881651009988148,2.040852626593582,25.82589977075472,0.01171875,-0.021484375,1.13720703125,6.8359375,1.28173828125,-5.0048828125,0.0,0.0,0.0,-0.0035183867439627647,0.019077027216553688,-0.22329480946063995,0.9745579957962036
6.145849227905273,0.6704084134418746,1.9371963950889992,25.916719088601088,-0.04345703125,0.01025390625,0.98876953125,2.5634765625,-2.99072265625,-4.7607421875,0.0,0.0,0.0,-0.0019099473720416427,0.017785361036658287,-0.22411061823368073,0.9743995070457458
6.16565203666687,0.49334728515351844,1.9898607821277943,26.009968246244686,-0.03857421875,0.0146484375,0.873046875,-2.01416015625,0.6103515625,-4.82177734375,0.0,0.0,0.0,-0.0002867219445761293,0.017887094989418983,-0.22492694854736328,0.9742114543914795
6.185612440109253,0.49247163355758167,2.1298681341688313,26.09080353507179,-0.08203125,-0.009765625,0.9697265625,-1.5869140625,-1.220703125,-4.150390625,0.0,0.0,0.0,9.170736120722722e-06,0.019075604155659676,-0.22560419142246246,0.9740323424339294
6.205645322799683,0.5125208000925078,2.288561603118554,26.157268105885183,-0.0703125,0.0048828125,0.9853515625,-4.8828125,-0.9765625,-3.173828125,0.0,0.0,0.0,0.0001632716739550233,0.020463814958930016,-0.2261536866426468,0.9738767147064209
6.227705955505371,0.5530365217536715,2.4750276884506057,26.196241165289276,-0.06689453125,-0.01123046875,0.99560546875,-2.44140625,-0.9765625,-1.77001953125,0.0,0.0,0.0,0.00019476411398500204,0.022128324955701828,-0.22646233439445496,0.9737685322761536
6.245818138122559,0.6810632951036829,2.4466625531577777,26.241226498710272,-0.0244140625,-0.0185546875,1.02294921875,2.0751953125,3.72314453125,-1.64794921875,0.0,0.0,0.0,-0.0009405934251844883,0.02214067243039608,-0.2268223762512207,0.9736840128898621
6.265877962112427,0.6465795909749926,2.349260427055399,26.279912690169223,-0.04833984375,0.04052734375,0.88232421875,-8.97216796875,-1.64794921875,-1.3427734375,0.0,0.0,0.0,-0.0008334156009368598,0.021245108917355537,-0.22716644406318665,0.9736238718032837
6.285710096359253,0.5755160616943585,2.312605789987703,26.29590045546893,-0.02490234375,0.00927734375,1.189453125,-0.244140625,0.48828125,-1.89208984375,0.0,0.0,0.0,-0.0002994589740410447,0.020792847499251366,-0.2273184359073639,0.9735984802246094
6.305781841278076,0.41100980827626427,2.133749816051514,26.35865111092113,-0.0634765625,0.01025390625,1.1318359375,3.96728515625,-8.11767578125,-3.0517578125,0.0,0.0,0.0,0.0007535330369137228,0.018946504220366478,-0.22789350152015686,0.9735015034675598
6.325744390487671,0.15972065202765573,2.0880985391864413,26.45488164613744,0.00927734375,0.03271484375,0.98486328125,2.74658203125,4.150390625,-4.0283203125,0.0,0.0,0.0,0.0028126719407737255,0.018056534230709076,-0.2287541925907135,0.9733127355575562
6.346573352813721,-0.026047008108649614,1.9956026233422477,26.51223815969262,-0.0166015625,0.01123046875,0.9521484375,3.11279296875,3.47900390625,-2.197265625,0.0,0.0,0.0,0.0042143273167312145,0.01689792238175869,-0.22927342355251312,0.9732062220573425
6.365899085998535,0.08466060830891795,2.1589828827230684,26.511114593574156,-0.095703125,-0.0390625,0.8740234375,-10.43701171875,1.3427734375,0.79345703125,0.0,0.0,0.0,0.0036008211318403482,0.018506990745663643,-0.22924049198627472,0.9731872081756592
6.385929822921753,0.45113015269793405,2.2562881055165973,26.517686943103,-0.03759765625,-0.1396484375,1.11083984375,-2.38037109375,2.685546875,-1.0986328125,0.0,0.0,0.0,0.0006843885057605803,0.020066330209374428,-0.2292289435863495,0.9731653928756714
6.405625104904175,0.6691038473104022,2.287183825896915,26.55287095506503,-0.0478515625,-0.15673828125,1.03564453125,0.732421875,-2.50244140625,-2.685546875,0.0,0.0,0.0,-0.0010985176777467132,0.02076503075659275,-0.2294863909482956,0.9730896949768066
6.428109884262085,0.7500683227623515,2.3023282762775374,26.578545636155106,-0.05517578125,-0.0966796875,1.017578125,7.2021484375,-0.42724609375,-1.0986328125,0.0,0.0,0.0,-0.0017509744502604008,0.0210561566054821,-0.22968822717666626,0.9730349183082581
6.445756196975708,0.8645432537471173,2.3466732794638454,26.59934697727238,-0.056640625,-0.0703125,0.884765625,1.220703125,1.52587890625,0.3662109375,0.0,0.0,0.0,-0.002630094299092889,0.021662596613168716,-0.22983905673027039,0.9729840159416199
6.466000318527222,1.0479656360302825,2.341149577416009,26.596770288407992,-0.0634765625,-0.04541015625,0.8857421875,-7.14111328125,-3.60107421875,1.15966796875,0.0,0.0,0.0,-0.004199096467345953,0.021983474493026733,-0.22978287935256958,0.9729844927787781
6.485820293426514,1.1622990540331821,2.2455568111134494,26.631773300357015,0.07177734375,-0.0556640625,1.0947265625,-3.47900390625,4.39453125,-4.150390625,0.0,0.0,0.0,-0.005355351604521275,0.021402772516012192,-0.2300701141357422,0.9729239344596863
6.501214981079102,1.179985935610636,2.153795994378678,26.71764756124429,0.0029296875,-0.07861328125,1.20068359375,4.8828125,-1.220703125,-4.8828125,0.0,0.0,0.0,-0.005674578715115786,0.02066352590918541,-0.23080739378929138,0.9727634787559509
6.525784015655518,1.2516694112801543,2.1589705030051975,26.812404483147173,-0.048828125,-0.029296875,0.904296875,-0.9765625,-3.11279296875,-3.60107421875,0.0,0.0,0.0,-0.006255411077290773,0.020857010036706924,-0.23159804940223694,0.9725677967071533
6.546065092086792,1.3441417416273702,2.2899562423697057,26.885439695942118,-0.04541015625,-0.0244140625,0.86279296875,-5.0048828125,-2.5634765625,-4.150390625,0.0,0.0,0.0,-0.00676091481000185,0.02215977944433689,-0.23218275606632233,0.9723962545394897
6.565573453903198,1.5002335488335525,2.414873145213246,26.94450717188439,-0.03857421875,-0.02099609375,0.88427734375,-10.986328125,2.8076171875,-3.90625,0.0,0.0,0.0,-0.007819702848792076,0.023539919406175613,-0.23263446986675262,0.9722478985786438
6.58625864982605,1.8021834054351225,2.4949697063929275,27.03742848044783,-0.0498046875,-0.06201171875,1.037109375,-2.38037109375,0.30517578125,-2.86865234375,0.0,0.0,0.0,-0.010198399424552917,0.02484055608510971,-0.23334576189517975,0.9720229506492615
6.6059346199035645,1.975254849474545,2.475626824106863,27.110537117776353,-0.0185546875,-0.037109375,0.95556640625,-0.79345703125,7.080078125,-2.5634765625,0.0,0.0,0.0,-0.01169000193476677,0.02503637596964836,-0.23393172025680542,0.9718603491783142
6.625725269317627,1.8519786861356888,2.4935394220920446,27.142703893672525,-0.05908203125,-0.01220703125,1.08935546875,-2.5634765625,-0.79345703125,-2.62451171875,0.0,0.0,0.0,-0.0106008006259799,0.02493957057595253,-0.23422808945178986,0.9718039631843567
6.641944646835327,1.955805245482699,2.596853076921069,27.19135191603594,-0.072265625,-0.0439453125,1.17919921875,-0.18310546875,-7.38525390625,-3.90625,0.0,0.0,0.0,-0.011258446611464024,0.026032552123069763,-0.2345982789993286,0.9716785550117493
6.665819883346558,1.833542724905355,2.4748857485819165,27.2671857988433,0.0166015625,-0.03076171875,1.1416015625,6.53076171875,0.30517578125,-6.28662109375,0.0,0.0,0.0,-0.01045580767095089,0.024755094200372696,-0.2352910041809082,0.971553385257721
6.685787200927734,1.6500896067709248,2.362474281778435,27.366488211638824,-0.0419921875,-0.0048828125,0.8701171875,4.33349609375,1.28173828125,-3.5400390625,0.0,0.0,0.0,-0.00911154318600893,0.023433327674865723,-0.2361907958984375,0.971381425857544
6.705884695053101,1.5422370777950154,2.468914882586856,27.412914714974693,-0.05419921875,0.02783203125,0.8720703125,-9.09423828125,3.5400390625,-2.50244140625,0.0,0.0,0.0,-0.007967599667608738,0.024116411805152893,-0.23658950626850128,0.97127765417099
6.725718021392822,1.466731044067817,2.4809466876966564,27.467971162326872,-0.0419921875,-0.01171875,1.06298828125,-4.08935546875,1.52587890625,-3.72314453125,0.0,0.0,0.0,-0.007291147485375404,0.024065986275672913,-0.23707014322280884,0.9711670279502869
6.745778799057007,1.5623508109619393,2.3870023448615973,27.555873989397647,-0.04345703125,-0.02978515625,1.06884765625,5.55419921875,0.3662109375,-4.45556640625,0.0,0.0,0.0,-0.008278326131403446,0.023474086076021194,-0.23780988156795502,0.9709926843643188
6.7655580043792725,1.3541054935225378,2.4257290905687463,27.64096960871954,-0.0732421875,0.013671875,0.8388671875,1.708984375,-9.521484375,-4.45556640625,0.0,0.0,0.0,-0.006415843032300472,0.0233747661113739,-0.23856759071350098,0.9708232879638672
6.785672903060913,1.2635021804086726,2.3261746011041677,27.75861961717301,0.05322265625,0.02001953125,1.02685546875,-1.64794921875,3.47900390625,-8.23974609375,0.0,0.0,0.0,-0.005832975264638662,0.022348785772919655,-0.2395962029695511,0.9705979228019714
6.807354688644409,1.0607958262210342,2.1476294007752146,27.952284508446844,-0.05078125,0.00048828125,1.14111328125,3.72314453125,-6.2255859375,-7.62939453125,0.0,0.0,0.0,-0.0044554658234119415,0.020420290529727936,-0.24129675328731537,0.9702262878417969
6.8258490562438965,0.9572748111176763,2.1513347783999466,28.057436978266484,-0.08642578125,0.0224609375,0.9462890625,0.48828125,-7.32421875,-6.8359375,0.0,0.0,0.0,-0.0035525888670235872,0.02023693546652794,-0.24220487475395203,0.970007598400116
6.845557689666748,0.8163097918498095,2.1110136104084227,28.21033247038451,-0.02685546875,0.02685546875,0.86181640625,-5.43212890625,-1.03759765625,-7.4462890625,0.0,0.0,0.0,-0.002418502466753125,0.019600920379161835,-0.24352765083312988,0.9696928858757019
6.866565704345703,0.7939217657718299,2.192090730620824,28.39151006830827,-0.04443359375,0.01171875,0.9560546875,-8.6669921875,2.44140625,-7.38525390625,0.0,0.0,0.0,-0.0020245679188519716,0.020242607221007347,-0.24505630135536194,0.9692954421043396
6.885734558105469,0.775042002328004,2.2294258252845833,28.501973010207593,-0.037109375,-0.0087890625,0.97216796875,-5.67626953125,1.15966796875,-8.36181640625,0.0,0.0,0.0,-0.0017651644302532077,0.02051972784101963,-0.24599024653434753,0.9690534472465515
6.9065563678741455,0.7180592815473215,2.2946308665263446,28.673110230051435,-0.06884765625,-0.00244140625,1.16162109375,7.2021484375,-1.89208984375,-7.38525390625,0.0,0.0,0.0,-0.0011118835536763072,0.02095046266913414,-0.2474411427974701,0.9686757326126099
6.92584490776062,0.5904520845835897,2.365085335032084,28.751742782871204,-0.0986328125,0.04931640625,1.12451171875,0.54931640625,-2.685546875,-4.82177734375,0.0,0.0,0.0,0.0001336861023446545,0.021270355209708214,-0.24812279641628265,0.9684950113296509
6.945775508880615,0.4032507133791298,2.3318656427866693,28.884255282958623,-0.04052734375,0.03857421875,1.0986328125,3.60107421875,-3.23486328125,-7.4462890625,0.0,0.0,0.0,0.001667675911448896,0.02058231085538864,-0.2492794245481491,0.9682115316390991
6.965661525726318,0.17873800643066043,2.176161875702708,29.047046011636706,-0.02783203125,0.015625,0.94384765625,3.2958984375,-1.220703125,-7.080078125,0.0,0.0,0.0,0.00325245363637805,0.018773706629872322,-0.25070324540138245,0.9678764343261719
6.985974550247192,-0.051461289904147466,2.248947359706126,29.170894416761964,-0.046875,0.05126953125,0.8818359375,-1.953125,1.5869140625,-6.65283203125,0.0,0.0,0.0,0.005376442335546017,0.018879003822803497,-0.2517835795879364,0.9675844311714172
7.006408214569092,-0.13754144030725082,2.3374781372937155,29.302577048865224,-0.06591796875,0.03369140625,1.06298828125,-3.90625,-2.8076171875,-5.37109375,0.0,0.0,0.0,0.0063201067969202995,0.019430140033364296,-0.2529063820838928,0.967275083065033
7.0258097648620605,-0.10766687322848942,2.360348171955857,29.398227018002082,-0.03955078125,-0.01025390625,1.14697265625,3.72314453125,-0.48828125,-6.77490234375,0.0,0.0,0.0,0.006134832743555307,0.01968401111662388,-0.25370773673057556,0.9670612215995789
7.04588770866394,-0.13269406038937806,2.4104051342789994,29.516874234074375,-0.07861328125,0.01123046875,0.91943359375,5.92041015625,-6.2255859375,-5.2490234375,0.0,0.0,0.0,0.006477606948465109,0.020044345408678055,-0.2547113597393036,0.9667877554893494
7.066519498825073,-0.27204784870420945,2.3670368481440036,29.663996508796448,-0.0029296875,0.00048828125,0.9541015625,-1.89208984375,1.28173828125,-7.26318359375,0.0,0.0,0.0,0.00758179510012269,0.019358966499567032,-0.25597772002220154,0.9664590954780579
7.08664345741272,-0.11989762093807985,2.2571113567549954,29.828645048928777,-0.0087890625,-0.0966796875,1.1650390625,2.99072265625,-3.662109375,-9.1552734375,0.0,0.0,0.0,0.006080034654587507,0.018762974068522453,-0.25734418630599976,0.9661185145378113
7.10586142539978,-0.06810498348285413,2.2194300568776812,29.944406510076735,-0.0869140625,-0.01806640625,1.08154296875,2.9296875,-7.080078125,-6.40869140625,0.0,0.0,0.0,0.005577506963163614,0.01855596713721752,-0.25831300020217896,0.9658669829368591
7.125662088394165,0.19608417896240693,2.1856219011465874,30.117609862144505,-0.041015625,-0.06201171875,0.8125,-6.77490234375,-1.220703125,-5.859375,0.0,0.0,0.0,0.0033029974438250065,0.018861521035432816,-0.25973111391067505,0.9654911756515503
7.148595333099365,0.5013668877344655,2.222048153763912,30.251577192525136,-0.02734375,-0.03369140625,0.89990234375,-7.080078125,4.82177734375,-6.16455078125,0.0,0.0,0.0,0.0008366466499865055,0.01985933631658554,-0.26080557703971863,0.9651867151260376
7.166072368621826,0.7723993594494437,2.2564691055296024,30.35074470908455,-0.05078125,-0.037109375,0.92724609375,-10.07080078125,2.685546875,-5.37109375,0.0,0.0,0.0,-0.001349844504147768,0.0207672119140625,-0.26158958673477173,0.9649548530578613
7.186426877975464,0.8988552426512052,2.3621054515632545,30.453504905147394,-0.06591796875,-0.07763671875,1.22119140625,10.80322265625,-2.62451171875,-4.5166015625,0.0,0.0,0.0,-0.0021536252461373806,0.02194727025926113,-0.26241981983184814,0.9647018909454346
7.206708669662476,0.7238878341477224,2.4304169482169025,30.519518683475564,-0.05078125,0.0302734375,1.087890625,0.3662109375,-0.54931640625,-4.08935546875,0.0,0.0,0.0,-0.0005112895742058754,0.022121908143162727,-0.26300182938575745,0.9645415544509888
7.2281174659729,0.5771944739611834,2.394779155561891,30.60439402919673,-0.06494140625,-0.01171875,1.0048828125,5.615234375,-8.7890625,-4.150390625,0.0,0.0,0.0,0.0006575075094588101,0.021484775468707085,-0.26374751329421997,0.9643521904945374
7.2457897663116455,0.5992585996621163,2.321043208046784,30.672047052925706,-0.0126953125,-0.02734375,0.9384765625,5.92041015625,0.1220703125,-4.150390625,0.0,0.0,0.0,0.00031432678224518895,0.020914878696203232,-0.26431941986083984,0.9642083644866943
7.2657248973846436,0.4711897779600268,2.2734630430714176,30.73059884958564,-0.0673828125,0.0322265625,0.92578125,-4.39453125,-0.30517578125,-0.79345703125,0.0,0.0,0.0,0.0012924423208460212,0.020218465477228165,-0.26483914256095886,0.964079737663269
7.285632848739624,0.43040669174545426,2.4347974473524077,30.742732680646167,-0.0576171875,-0.0029296875,1.07275390625,-2.44140625,1.40380859375,-0.18310546875,0.0,0.0,0.0,0.002010911703109741,0.021481255069375038,-0.26493561267852783,0.9640247225761414
7.306530475616455,0.5335218175212988,2.556172897111296,30.747244020592962,-0.0732421875,-0.02783203125,0.96728515625,1.77001953125,-7.14111328125,0.1220703125,0.0,0.0,0.0,0.0014251304091885686,0.022740621119737625,-0.26494327187538147,0.9639947414398193
7.3258750438690186,0.6448191630772747,2.5041437176653125,30.764538059571432,-0.00146484375,-0.08203125,0.95458984375,0.6103515625,1.46484375,-1.953125,0.0,0.0,0.0,0.0003718571679200977,0.02256021462380886,-0.26507166028022766,0.9639647006988525
7.350273132324219,0.7530904146658177,2.2683672950637646,30.905752220661448,-0.00732421875,-0.09228515625,1.01513671875,-0.79345703125,-1.64794921875,-4.150390625,0.0,0.0,0.0,-0.0010591921163722873,0.020828694105148315,-0.26626238226890564,0.9636749625205994
7.365675449371338,0.9920619250559033,2.2047583836536706,30.97152694236867,-0.05126953125,-0.12548828125,0.8916015625,-8.056640625,-6.16455078125,-4.82177734375,0.0,0.0,0.0,-0.003204845590516925,0.020850881934165955,-0.26677900552749634,0.9635268449783325
7.3857481479644775,1.2758471070032358,2.1632745893993635,31.038196418857165,-0.0205078125,-0.13525390625,0.8369140625,-10.25390625,2.197265625,-3.11279296875,0.0,0.0,0.0,-0.005675395485013723,0.021166032180190086,-0.2672928273677826,0.9633661508560181
7.405643939971924,1.6914578214178706,2.1413684651838403,31.15570640843265,0.03662109375,-0.15625,0.83740234375,-17.08984375,7.8125,-4.21142578125,0.0,0.0,0.0,-0.009198041632771492,0.02196064591407776,-0.2682056725025177,0.9630674719810486
7.426523923873901,2.2110314855195043,2.2675254742485604,31.26967494492348,-0.06884765625,-0.34130859375,1.1796875,-1.40380859375,4.21142578125,-3.47900390625,0.0,0.0,0.0,-0.013244563713669777,0.024249661713838577,-0.26903483271598816,0.9627341032028198
7.446229457855225,2.338352401507477,2.218878945989026,31.365423951803304,-0.01611328125,-0.2900390625,1.19287109375,2.62451171875,-1.03759765625,-5.4931640625,0.0,0.0,0.0,-0.014408588409423828,0.024152012541890144,-0.2698226273059845,0.9624993205070496
7.465776681900024,2.517220114831302,2.0987431755644947,31.401149256257057,-0.06103515625,-0.24951171875,1.03173828125,-4.82177734375,-15.93017578125,-1.40380859375,0.0,0.0,0.0,-0.016187289729714394,0.023569386452436447,-0.27011218667030334,0.9624042510986328
7.485568523406982,2.6991825441793766,1.8150019629599439,31.23087947043781,0.01416015625,-0.3251953125,1.0166015625,2.3193359375,-9.82666015625,15.380859375,0.0,0.0,0.0,-0.0184183232486248,0.021588487550616264,-0.2687116861343384,0.962802529335022
7.51106595993042,2.8503143533876605,1.6885550977423212,30.72244018862206,0.060546875,-0.23095703125,0.890625,-6.16455078125,-5.79833984375,31.79931640625,0.0,0.0,0.0,-0.02007787674665451,0.02079182118177414,-0.2644394338130951,0.9639691114425659
7.526486396789551,3.155138652412748,1.5075534839113964,29.84247618199805,0.025390625,-0.2919921875,0.9765625,-5.9814453125,-11.41357421875,48.52294921875,0.0,0.0,0.0,-0.023213554173707962,0.019795283675193787,-0.25702112913131714,0.9659241437911987
7.5473644733428955,3.288202690275644,1.0875122178812449,28.332442592366,0.044921875,-0.271484375,0.92626953125,5.67626953125,-21.91162109375,66.83349609375,0.0,0.0,0.0,-0.025495659559965134,0.016219215467572212,-0.2443600445985794,0.969213604927063
7.5673089027404785,3.4451578760815984,0.9067617202240239,27.163262763074265,0.10205078125,-0.15966796875,0.74072265625,-8.4228515625,-9.1552734375,83.740234375,0.0,0.0,0.0,-0.02736128680408001,0.014746973291039467,-0.23448581993579865,0.9716225266456604
7.58566427230835,3.685514153965051,0.5548023924583841,25.362737812946985,0.158203125,-0.32568359375,1.1064453125,-4.5166015625,-23.0712890625,92.28515625,0.0,0.0,0.0,-0.03030952624976635,0.011780227534472942,-0.21926097571849823,0.9751242399215698
7.605569362640381,3.7543317249475145,0.3821777121597893,22.797110439920512,0.2802734375,-0.302734375,1.193359375,3.84521484375,-0.91552734375,109.06982421875,0.0,0.0,0.0,-0.03145182132720947,0.009741376154124737,-0.19741836190223694,0.9797662496566772
7.625673532485962,3.7245845435648164,0.32355030317130884,21.149241925290312,0.26708984375,-0.27783203125,1.09130859375,7.32421875,-2.5634765625,113.037109375,0.0,0.0,0.0,-0.03142748400568962,0.008737854659557343,-0.1833280622959137,0.982510507106781
7.644944667816162,3.7136255050415308,0.31934117241486204,18.758113932726612,0.14501953125,-0.2802734375,0.90478515625,12.26806640625,-16.4794921875,124.08447265625,0.0,0.0,0.0,-0.03151463344693184,0.008028429001569748,-0.16279004514217377,0.9861246347427368
7.660809516906738,3.7274434046192897,0.042680361354582044,16.07785207976523,0.1953125,-0.140625,0.7685546875,-4.8828125,-2.62451171875,142.15087890625,0.0,0.0,0.0,-0.03215069696307182,0.004916715901345015,-0.1397598683834076,0.9896511435508728
7.685546636581421,4.008452754999247,-0.13557758749810028,13.150253709032052,0.16650390625,-0.26171875,0.828125,0.67138671875,-26.91650390625,149.169921875,0.0,0.0,0.0,-0.034878551959991455,0.0028300003614276648,-0.11447687447071075,0.9928094148635864
7.7055418491363525,4.078699969952359,-0.43071359669085524,10.107388212092093,0.35107421875,-0.41943359375,1.2373046875,8.85009765625,-14.892578125,153.25927734375,0.0,0.0,0.0,-0.03577815741300583,-0.0006069833762012422,-0.08816609531641006,0.9954628348350525
7.725550889968872,3.934994924249406,-0.38920106761726647,6.972924755740385,0.41455078125,-0.29296875,1.05078125,10.68115234375,3.90625,160.70556640625,0.0,0.0,0.0,-0.034475237131118774,-0.0013002855703234673,-0.06089288741350174,0.99754798412323
7.746731996536255,3.861462815192341,-0.5585622515139175,3.6843235666153533,0.30224609375,-0.2802734375,0.9697265625,4.7607421875,-8.11767578125,166.8701171875,0.0,0.0,0.0,-0.033830031752586365,-0.003786036279052496,-0.032291755080223083,0.9988986849784851
7.766220331192017,4.0586405581336775,-0.7803557294197152,-0.648082926283483,0.23779296875,-0.22607421875,0.70849609375,-7.080078125,-24.35302734375,174.1943359375,0.0,0.0,0.0,-0.03537103533744812,-0.007005719933658838,0.005410743877291679,0.9993350505828857
7.782649278640747,4.186258373907134,-1.1950373246638168,-4.228655065632696,0.40283203125,-0.3955078125,1.0908203125,8.72802734375,-16.2353515625,179.6875,0.0,0.0,0.0,-0.03611253201961517,-0.011761849746108055,0.03648635372519493,0.9986121654510498
7.805665731430054,4.156154742027127,-0.9374933026208501,-7.84541397409146,0.556640625,-0.35107421875,1.15576171875,9.27734375,17.4560546875,183.53271484375,0.0,0.0,0.0,-0.03561587259173393,-0.010637125931680202,0.06806743890047073,0.9969881176948547
7.825822353363037,4.022850793769634,-1.0101333249392876,-10.590718864745229,0.3154296875,-0.34619140625,1.00927734375,17.08984375,-21.484375,182.12890625,0.0,0.0,0.0,-0.034134600311517715,-0.012011070735752583,0.09192141145467758,0.9951086044311523
7.846543312072754,4.1093530051737295,-1.3757063936595264,-15.38735922826467,0.29931640625,-0.20947265625,0.666015625,-2.50244140625,-22.64404296875,192.68798828125,0.0,0.0,0.0,-0.03392171487212181,-0.016688862815499306,0.13335461914539337,0.9903470277786255
7.860548734664917,4.2512625648986155,-1.6456554266174115,-18.34903341276704,0.40625,-0.3271484375,0.9404296875,3.0517578125,-15.9912109375,199.89013671875,0.0,0.0,0.0,-0.03432438522577286,-0.020080313086509705,0.15879015624523163,0.9865111708641052
7.885699033737183,4.235582584998381,-1.4658905039130823,-23.31049648624264,0.57763671875,-0.37353515625,1.2021484375,20.751953125,-10.68115234375,194.15283203125,0.0,0.0,0.0,-0.033606596291065216,-0.019984569400548935,0.20140491425991058,0.9787274599075317
7.905634880065918,4.092890114839883,-1.4806906700708535,-26.24453914045773,0.5390625,-0.2412109375,1.0087890625,14.404296875,-0.1220703125,198.1201171875,0.0,0.0,0.0,-0.03184264525771141,-0.02068215236067772,0.22641676664352417,0.9732901453971863
7.9256508350372314,4.0041638230873025,-1.7234236403420593,-31.107796046499594,0.47705078125,-0.2177734375,0.845703125,11.8408203125,-35.5224609375,194.27490234375,0.0,0.0,0.0,-0.029622400179505348,-0.023846335709095,0.26744458079338074,0.9628226161003113
7.94683837890625,4.141826712695732,-1.9183098548168562,-34.02580312409078,0.580078125,-0.20263671875,0.830078125,-5.79833984375,-14.5263671875,195.4345703125,0.0,0.0,0.0,-0.02965557761490345,-0.026568185538053513,0.29177650809288025,0.9556574821472168
7.966465950012207,4.311833109345112,-1.7687084348694786,-37.813552830213055,0.70556640625,-0.29443359375,1.06689453125,3.5400390625,5.37109375,185.1806640625,0.0,0.0,0.0,-0.030587447807192802,-0.026779411360621452,0.3232120871543884,0.9454529881477356
7.985898494720459,4.176936873237359,-1.7362181854830798,-41.39320033270337,0.6630859375,-0.30810546875,1.1435546875,15.2587890625,0.06103515625,174.8046875,0.0,0.0,0.0,-0.028735823929309845,-0.027041645720601082,0.3526275157928467,0.9349314570426941
8.005683898925781,4.035291129569166,-1.479253448859095,-44.89806409397123,0.51025390625,-0.1591796875,0.7841796875,5.67626953125,-1.3427734375,177.490234375,0.0,0.0,0.0,-0.027610324323177338,-0.025366131216287613,0.3811728358268738,0.9237432479858398
8.025861978530884,4.214542187260157,-1.661034131142224,-48.40436219496478,0.55908203125,-0.21826171875,0.9423828125,-2.38037109375,-25.7568359375,170.10498046875,0.0,0.0,0.0,-0.027596820145845413,-0.02828456461429596,0.4091513752937317,0.9116104245185852
8.040621280670166,4.383337079105505,-1.7177650420581152,-51.82727051638165,0.66552734375,-0.2197265625,0.97607421875,-2.44140625,-2.99072265625,167.236328125,0.0,0.0,0.0,-0.0278475321829319,-0.030183443799614906,0.43613147735595703,0.8989453911781311
8.06577444076538,4.3493048077922705,-1.723539540114538,-55.01722499087148,0.66650390625,-0.22998046875,0.9892578125,8.7890625,5.0048828125,156.18896484375,0.0,0.0,0.0,-0.026710063219070435,-0.030854588374495506,0.46099087595939636,0.8864660859107971
8.08626937866211,4.206933356524763,-1.3661163811780053,-58.630897080712224,0.65234375,-0.1982421875,1.06884765625,12.87841796875,0.18310546875,137.14599609375,0.0,0.0,0.0,-0.026168502867221832,-0.028357379138469696,0.48887136578559875,0.8715021014213562
8.105629205703735,4.069707599023213,-1.3217347724466144,-60.544121859692005,0.62353515625,-0.1572265625,1.02197265625,9.33837890625,4.69970703125,124.57275390625,0.0,0.0,0.0,-0.024852925911545753,-0.02785334549844265,0.5034014582633972,0.863245964050293
8.125561952590942,3.9798850619088455,-1.2662703280132317,-62.78815319074302,0.6484375,-0.10107421875,0.95458984375,6.103515625,-7.32421875,98.32763671875,0.0,0.0,0.0,-0.023886069655418396,-0.027514105662703514,0.5202479362487793,0.8532376885414124
8.145837306976318,3.8448838116426045,-1.578051815038212,-64.46306583939189,0.666015625,-0.0751953125,1.0283203125,5.9814453125,-13.61083984375,73.974609375,0.0,0.0,0.0,-0.02103406935930252,-0.029532181099057198,0.5326004028320312,0.8455898761749268
8.16672658920288,3.8092968185195457,-1.664290637272439,-65.7332419683933,0.6328125,-0.052734375,0.921875,4.08935546875,0.732421875,56.396484375,0.0,0.0,0.0,-0.02003624476492405,-0.03022672049701214,0.5419227480888367,0.839645504951477
8.186234712600708,3.722747649564906,-1.975916097163567,-66.89750235393534,0.6015625,-0.05322265625,0.958984375,4.150390625,-11.41357421875,41.015625,0.0,0.0,0.0,-0.01759900152683258,-0.03227978199720383,0.5503508448600769,0.8341236114501953
8.201259851455688,3.628735218281558,-2.1032231393297884,-67.45141703524503,0.69189453125,-0.07177734375,1.076171875,8.48388671875,-0.91552734375,35.5224609375,0.0,0.0,0.0,-0.01614367961883545,-0.03283267840743065,0.5543625354766846,0.831470787525177
8.225381851196289,3.460325591794081,-2.1968673807281904,-68.15894950117749,0.60498046875,-0.02880859375,1.03369140625,6.77490234375,-5.67626953125,34.72900390625,0.0,0.0,0.0,-0.01426570862531662,-0.03278561681509018,0.5595045685768127,0.8280556797981262
8.245609521865845,3.3858899767758706,-2.3269084195531207,-69.01639778920254,0.52880859375,0.0234375,0.86669921875,5.0048828125,-1.15966796875,32.89794921875,0.0,0.0,0.0,-0.012841792777180672,-0.0334581583738327,0.5656658411026001,0.8238555192947388
8.265588760375977,3.2856665556594535,-2.52442254931108,-69.47821419974379,0.52294921875,0.03125,0.845703125,7.62939453125,-8.85009765625,28.564453125,0.0,0.0,0.0,-0.011005853302776814,-0.03442690148949623,0.5689491629600525,0.8215780854225159
8.285900354385376,3.079728027890518,-2.765160250570996,-70.0305989186794,0.650390625,0.052734375,1.03466796875,12.0849609375,-8.9111328125,26.67236328125,0.0,0.0,0.0,-0.00816244538873434,-0.03516865521669388,0.5728899240493774,0.8188368678092957
8.30571460723877,3.033814642516046,-3.096555479571314,-70.56925495738328,0.5673828125,0.13525390625,0.84814453125,-5.79833984375,-8.85009765625,26.123046875,0.0,0.0,0.0,-0.005999062210321426,-0.037333518266677856,0.5766414999961853,0.8161218762397766
8.325616359710693,3.1877417066421576,-3.373173445201776,-71.14860526316211,0.59619140625,0.07568359375,0.9609375,-3.41796875,-3.35693359375,18.1884765625,0.0,0.0,0.0,-0.005497796460986137,-0.0401042178273201,0.5806153416633606,0.8131711483001709
8.345763444900513,3.1344568396059493,-3.2754041964315093,-71.34392818285696,0.60107421875,0.1083984375,1.091796875,3.23486328125,11.41357421875,9.8876953125,0.0,0.0,0.0,-0.00554945832118392,-0.03915073350071907,0.5820525288581848,0.8121892213821411
8.366653442382812,2.771618621318066,-3.24005199106117,-71.2866570466664,0.43212890625,0.2861328125,1.1162109375,9.033203125,15.9912109375,-10.6201171875,0.0,0.0,0.0,-0.0031762190628796816,-0.037055645138025284,0.5817787647247314,0.8124964237213135
8.385539054870605,2.5428836968639783,-2.8940320463873848,-71.0129918571915,0.328125,0.36962890625,1.09814453125,7.50732421875,35.70556640625,-21.6064453125,0.0,0.0,0.0,-0.003394282888621092,-0.033434901386499405,0.5800109505653381,0.8139152526855469
8.407158136367798,2.07629469164019,-2.2494139470038026,-69.90621434370429,0.01806640625,0.39013671875,1.04150390625,10.7421875,24.90234375,-53.64990234375,0.0,0.0,0.0,-0.0036036353558301926,-0.02646332047879696,0.5724099278450012,0.8195326328277588
8.425571918487549,1.748281900382909,-1.888541755979825,-68.92537868832295,-0.0126953125,0.3818359375,0.95947265625,12.451171875,27.40478515625,-67.81005859375,0.0,0.0,0.0,-0.003252445487305522,-0.022217757999897003,0.565519392490387,0.8244293928146362
8.445816993713379,1.3676407940233877,-1.4006159868408572,-67.25475539847285,-0.04296875,0.39892578125,0.8349609375,4.33349609375,24.71923828125,-91.1865234375,0.0,0.0,0.0,-0.0031685696449130774,-0.01678510010242462,0.5535871982574463,0.8326160311698914
8.466912269592285,1.096324229127619,-1.1797194515112996,-65.26432899130442,-0.201171875,0.39404296875,0.9833984375,3.11279296875,1.15966796875,-104.6142578125,0.0,0.0,0.0,-0.002505337819457054,-0.013828094117343426,0.5391073822975159,0.8421198725700378
8.486730337142944,0.7486872905286867,-1.0148029331757549,-62.51525298245516,-0.1416015625,0.38671875,1.1201171875,3.7841796875,7.2021484375,-112.060546875,0.0,0.0,0.0,-0.0009898662101477385,-0.010960085317492485,0.5188061594963074,0.8548210859298706
8.506301164627075,0.5858160936844435,-0.8136255808668473,-60.84917176840312,-0.1611328125,0.37744140625,1.0810546875,-0.18310546875,13.7939453125,-109.9853515625,0.0,0.0,0.0,-0.0008126077591441572,-0.0087111322209239,0.5063531398773193,0.8622817993164062
8.521456480026245,0.2620300956259164,-0.5587896754689378,-58.09213858917079,-0.2587890625,0.3193359375,0.984375,5.92041015625,-5.4931640625,-109.92431640625,0.0,0.0,0.0,0.000368492299458012,-0.005373210180550814,0.4854958653450012,0.874222457408905
8.545646667480469,0.10396651819403584,-0.5482104594965285,-56.44516141422727,-0.189453125,0.3505859375,0.9150390625,1.3427734375,-1.77001953125,-111.572265625,0.0,0.0,0.0,0.0014629429206252098,-0.004644325934350491,0.47288861870765686,0.881108820438385
8.565761089324951,-0.0063081161736081555,-0.31752532927141713,-54.25235650195136,-0.154296875,0.3125,0.97216796875,0.0,5.7373046875,-107.36083984375,0.0,0.0,0.0,0.0013124023098498583,-0.002441038843244314,0.455949991941452,0.8900010585784912
8.585569381713867,-0.24666078261121255,-0.4089058698880624,-52.2138079969856,-0.2392578125,0.29248046875,0.978515625,1.64794921875,-6.65283203125,-98.2666015625,0.0,0.0,0.0,0.0035031435545533895,-0.0022570928558707237,0.4400504529476166,0.8979634046554565
8.60678219795227,-0.37468712907440094,-0.30244240395417776,-50.425831811910925,-0.15625,0.3203125,0.99609375,-4.0283203125,3.72314453125,-82.763671875,0.0,0.0,0.0,0.004082533065229654,-0.0009949917439371347,0.42598727345466614,0.9047194123268127
8.625777959823608,-0.4995290332392031,-0.2120663680529872,-48.700549933227805,-0.25341796875,0.27783203125,1.0634765625,0.9765625,-8.9111328125,-58.65478515625,0.0,0.0,0.0,0.00473443791270256,0.0001113724138122052,0.41231662034988403,0.9110283851623535
8.642021656036377,-0.6142956346458696,-0.22060469148488493,-47.690078087037776,-0.166015625,0.302734375,0.95458984375,-3.90625,-2.99072265625,-43.88427734375,0.0,0.0,0.0,0.0056813801638782024,0.0004063548403792083,0.40426725149154663,0.9146232008934021
8.666743040084839,-0.7123031396242933,-0.18825851640129126,-46.9812752059197,-0.1728515625,0.30517578125,1.005859375,-0.54931640625,-4.5166015625,-30.21240234375,0.0,0.0,0.0,0.006355653516948223,0.0009709964506328106,0.39860033988952637,0.9171022772789001
8.688846349716187,-0.9115722011121227,-0.20885130996525494,-46.488565849762495,-0.17822265625,0.3134765625,1.044921875,4.08935546875,-3.2958984375,-21.6064453125,0.0,0.0,0.0,0.00802843738347292,0.0014648267533630133,0.3946523666381836,0.9187942743301392
8.705599784851074,-1.0630364484339156,-0.1842803714367952,-46.20705960312042,-0.15234375,0.32373046875,0.99169921875,2.44140625,-3.5400390625,-17.578125,0.0,0.0,0.0,0.009163590148091316,0.002160971751436591,0.39239010214805603,0.9197507500648499
8.725702047348022,-1.229980572457602,-0.11846197387148134,-45.88951044822819,-0.13818359375,0.353515625,1.001953125,-0.79345703125,0.244140625,-15.07568359375,0.0,0.0,0.0,0.010287167504429817,0.0032324125058948994,0.38983091711997986,0.920823335647583
8.748686790466309,-1.4090207480579693,0.021784679916924066,-45.48393723040741,-0.15234375,0.3544921875,0.99755859375,-0.6103515625,0.79345703125,-17.51708984375,0.0,0.0,0.0,0.011266300454735756,0.004928612615913153,0.38655030727386475,0.9221863150596619
8.766140222549438,-1.5193882807523245,0.10045112521591473,-45.13924148865896,-0.12890625,0.3564453125,0.98681640625,-0.732421875,-1.220703125,-28.74755859375,0.0,0.0,0.0,0.011906917206943035,0.005898186471313238,0.38376113772392273,0.9233368635177612
8.78642463684082,-1.7199714066034408,0.09628587042075733,-44.442565608412245,-0.13623046875,0.32470703125,0.9990234375,1.15966796875,-4.5166015625,-26.42822265625,0.0,0.0,0.0,0.013576559722423553,0.0064539373852312565,0.3781302869319916,0.9256303906440735
8.80741262435913,-1.8465785678231477,0.13693759555572618,-44.09113530014217,-0.07958984375,0.3134765625,1.01025390625,1.40380859375,-1.0986328125,-22.3388671875,0.0,0.0,0.0,0.01448710449039936,0.0071556782349944115,0.37527698278427124,0.9267719388008118
8.825621843338013,-2.022696062788984,0.09342045932159153,-43.72589434937032,-0.0732421875,0.34423828125,1.04150390625,-1.220703125,-5.615234375,-14.58740234375,0.0,0.0,0.0,0.016077421605587006,0.007329297251999378,0.3723162114620209,0.9279377460479736
8.845759630203247,-2.1632662651063126,0.06482022945113995,-43.48774955867407,-0.0078125,0.318359375,1.03173828125,-0.732421875,-2.5634765625,-8.9111328125,0.0,0.0,0.0,0.017324307933449745,0.00751843536272645,0.3703821301460266,0.9286875128746033
8.866079807281494,-2.3165841617358236,0.06319500461443393,-43.398765854167145,-0.02783203125,0.31689453125,1.0087890625,-0.8544921875,-0.732421875,-2.01416015625,0.0,0.0,0.0,0.018578289076685905,0.007986386306583881,0.36965078115463257,0.9289507269859314
8.88692569732666,-2.519628823730789,0.03603726533996409,-43.42521234663344,-0.0478515625,0.322265625,0.9736328125,-2.3193359375,-0.79345703125,2.3193359375,0.0,0.0,0.0,0.02030993066728115,0.008425899781286716,0.3698553144931793,0.9288290739059448
8.903465747833252,-2.6304834342903307,0.0467629468483985,-43.44736606520637,-0.02001953125,0.3154296875,0.9912109375,0.18310546875,-0.732421875,0.42724609375,0.0,0.0,0.0,0.02117212489247322,0.008874715305864811,0.37002450227737427,0.9287384152412415
8.92597484588623,-2.809311660583016,0.06990001589367166,-43.414775817581656,0.0029296875,0.28662109375,1.03271484375,0.67138671875,0.732421875,-3.11279296875,0.0,0.0,0.0,0.02254948951303959,0.009633255191147327,0.3697414696216583,0.9288110733032227
8.945569038391113,-3.084226561232618,0.08416890138974314,-43.34119418965311,-0.0283203125,0.2626953125,0.9951171875,0.8544921875,0.79345703125,-2.197265625,0.0,0.0,0.0,0.024738499894738197,0.010620029643177986,0.36911770701408386,0.9289926886558533
8.966630697250366,-3.164968361845454,0.09102773866765161,-43.291934865358975,0.0283203125,0.162109375,0.90625,-9.58251953125,2.3193359375,-2.99072265625,0.0,0.0,0.0,0.025375671684741974,0.010924804955720901,0.36870917677879333,0.92913419008255
8.987312316894531,-3.051675373752218,0.008827219923211446,-43.21721259583904,0.00048828125,0.05126953125,1.05224609375,-3.35693359375,4.45556640625,-3.47900390625,0.0,0.0,0.0,0.024728018790483475,0.009877637960016727,0.36813172698020935,0.9293922781944275
9.005761623382568,-2.7999086245300244,0.25123658246829794,-43.20118214185702,-0.08935546875,-0.08056640625,1.02001953125,-7.9345703125,2.50244140625,0.18310546875,0.0,0.0,0.0,0.021908700466156006,0.01103187631815672,0.36797356605529785,0.9295126795768738
9.025813817977905,-2.499853505092898,0.3076175529109318,-43.19241217896272,-0.06689453125,-0.1123046875,1.0390625,-4.57763671875,-0.30517578125,0.91552734375,0.0,0.0,0.0,0.019294416531920433,0.010524175129830837,0.3679196238517761,0.9295979142189026
9.045600891113281,-2.252973115891614,0.34677374676214556,-43.230931030787005,-0.0595703125,-0.16015625,0.9765625,-9.09423828125,-0.91552734375,2.99072265625,0.0,0.0,0.0,0.017162475734949112,0.01005491055548191,0.3682473599910736,0.92951500415802
9.065589904785156,-2.132430735768055,0.14116593621921364,-43.25917727809959,0.03466796875,0.0888671875,1.09716796875,8.544921875,-4.5166015625,1.953125,0.0,0.0,0.0,0.01684362255036831,0.00800391472876072,0.36851924657821655,0.9294330477714539
9.085485696792603,-2.2446900174190922,0.10848392126773897,-43.28936671423105,0.00390625,0.0458984375,0.9052734375,-5.615234375,-1.64794921875,2.5634765625,0.0,0.0,0.0,0.017857108265161514,0.008104565553367138,0.3687613904476166,0.9293172359466553
9.105628490447998,-1.7968078331149109,0.12844462884878555,-43.36545502158499,-0.00634765625,-0.21875,0.947265625,-12.39013671875,-7.01904296875,2.74658203125,0.0,0.0,0.0,0.014155959710478783,0.006834488827735186,0.369404673576355,0.9291356801986694
9.12563443183899,-1.4513440152499533,0.13444384279694427,-43.56213031873551,-0.04150390625,-0.1962890625,1.10107421875,-6.40869140625,-6.591796875,13.24462890625,0.0,0.0,0.0,0.0113255325704813,0.005788889713585377,0.3710171580314636,0.928538978099823
9.145792722702026,-1.2445195906013262,0.0766181539427205,-43.866930925541915,0.001953125,-0.11962890625,0.970703125,-5.79833984375,-3.47900390625,17.08984375,0.0,0.0,0.0,0.009824445471167564,0.004676816985011101,0.3735007643699646,0.9275661706924438
9.161833763122559,-0.8453924705314593,0.008722289141055143,-44.27552650207041,0.12109375,-0.1845703125,0.9541015625,-8.23974609375,7.2021484375,15.5029296875,0.0,0.0,0.0,0.0068048350512981415,0.002850554184988141,0.3768240213394165,0.9262555837631226
9.186645746231079,-0.6167239803392206,0.010774351608850702,-44.5295617278707,0.07763671875,-0.1923828125,1.03173828125,-5.67626953125,3.23486328125,15.9912109375,0.0,0.0,0.0,0.004945021588355303,0.002126148669049144,0.37888142466545105,0.9254295825958252
9.205639123916626,-0.39932250083272625,0.09413096574793814,-44.88839254610649,-0.03564453125,-0.17431640625,1.08984375,-0.244140625,1.52587890625,19.83642578125,0.0,0.0,0.0,0.0029071620665490627,0.0020896345376968384,0.3817782998085022,0.9242470860481262
9.225611209869385,-0.26997878163337163,0.1653589331668616,-45.29033210328882,-0.0751953125,-0.15087890625,1.01171875,1.64794921875,-0.06103515625,21.66748046875,0.0,0.0,0.0,0.0016187758883461356,0.0022388931829482317,0.38501834869384766,0.9229047894477844
9.245902061462402,-0.057506264118713284,0.13354395203358185,-45.69828564203534,-0.01806640625,-0.1474609375,0.9326171875,-4.08935546875,-0.48828125,22.15576171875,0.0,0.0,0.0,9.929357474902645e-06,0.001268808962777257,0.3883052468299866,0.9215299487113953
9.266395807266235,0.2598787728003475,0.09720052213005063,-46.272141060626886,-0.01123046875,-0.14453125,1.01123046875,-0.30517578125,0.54931640625,24.23095703125,0.0,0.0,0.0,-0.002418756717815995,-0.00011106902093160897,0.392916738986969,0.9195708632469177
9.286278009414673,0.38109766181685456,0.07619959808275226,-46.620142613933616,0.02099609375,-0.123046875,1.0966796875,3.11279296875,-0.06103515625,23.4375,0.0,0.0,0.0,-0.003317374037578702,-0.0007053146255202591,0.3957066833972931,0.91837078332901
9.305729627609253,0.4937287618908342,0.04844706539142935,-47.0936796290906,0.0224609375,-0.09228515625,1.02783203125,4.39453125,-1.03759765625,23.62060546875,0.0,0.0,0.0,-0.004118721466511488,-0.001333699095994234,0.39949655532836914,0.9167245626449585
9.32591700553894,0.6654965469332834,0.031912444731084635,-47.57076834261599,-0.01123046875,-0.0751953125,0.9296875,-0.30517578125,-2.5634765625,23.3154296875,0.0,0.0,0.0,-0.005426560062915087,-0.0020874114707112312,0.4033065438270569,0.9150465130805969
9.345837116241455,0.8459320021150374,-0.01727474402757233,-48.0135729216025,-0.0185546875,-0.0830078125,0.935546875,0.9765625,-4.2724609375,21.97265625,0.0,0.0,0.0,-0.006682181730866432,-0.0031410688534379005,0.406832754611969,0.9134728312492371
9.36587405204773,0.8125579902830626,0.06509884647440227,-48.47808042667673,-0.05322265625,0.01806640625,1.0166015625,7.75146484375,-4.7607421875,23.74267578125,0.0,0.0,0.0,-0.006698943208903074,-0.0023931085597723722,0.4105377197265625,0.911815881729126
9.385789155960083,0.5429037760373988,0.039824828683307646,-49.00329806818862,-0.05810546875,0.1240234375,0.95947265625,1.89208984375,-8.9111328125,26.30615234375,0.0,0.0,0.0,-0.004455206450074911,-0.0016485833330079913,0.4147162437438965,0.909938395023346
9.405866146087646,0.27942322570820677,-0.12738445542355264,-49.673158625753864,0.0166015625,0.109375,1.05859375,0.1220703125,-8.23974609375,25.57373046875,0.0,0.0,0.0,-0.0017459708033129573,-0.002033034572377801,0.42002758383750916,0.9075074791908264
9.425715208053589,0.12778747660522305,-0.28360644977057514,-50.082382579686005,0.0068359375,0.08935546875,1.06103515625,-0.30517578125,-11.71875,27.83203125,0.0,0.0,0.0,3.723007102962583e-05,-0.0027143051847815514,0.42326563596725464,0.906001627445221
9.442243814468384,-0.14865789334656393,-0.4972391055982505,-50.9473167550414,0.00537109375,0.1044921875,0.97265625,1.64794921875,-5.37109375,39.85595703125,0.0,0.0,0.0,0.0030374336056411266,-0.0033594160340726376,0.43009674549102783,0.9027714729309082
9.466663122177124,-0.324714850424796,-0.5446754630750766,-51.58318687620208,0.0498046875,0.111328125,1.01513671875,2.0751953125,1.03759765625,44.00634765625,0.0,0.0,0.0,0.004619447980076075,-0.003046744503080845,0.4351044297218323,0.900363028049469
9.485734939575195,-0.55870461826943,-0.6616811925907436,-52.670809124161984,0.048828125,0.103515625,0.9873046875,-1.0986328125,-0.79345703125,42.29736328125,0.0,0.0,0.0,0.006931059528142214,-0.003011969616636634,0.4436376392841339,0.896174430847168
9.505570888519287,-0.6858457081831613,-0.6685325660193541,-53.31120083055321,0.029296875,0.10009765625,1.00244140625,-0.42724609375,3.96728515625,42.29736328125,0.0,0.0,0.0,0.007966152392327785,-0.002528849756345153,0.4486421048641205,0.8936724662780762
9.52636194229126,-0.9647608051697161,-0.7416872004030699,-54.31436778942591,0.0146484375,0.10302734375,1.0693359375,-0.244140625,-4.45556640625,38.330078125,0.0,0.0,0.0,0.010444847866892815,-0.0019160191295668483,0.45645588636398315,0.8896827101707458
9.545868873596191,-1.0989623896945364,-0.8700433169371229,-54.869744131217985,0.03564453125,0.10009765625,0.9833984375,-1.64794921875,-5.126953125,36.92626953125,0.0,0.0,0.0,0.012009314261376858,-0.0023198698181658983,0.4607701897621155,0.887435257434845
9.565811395645142,-1.230883438088513,-0.963279294450058,-55.580930748356394,0.0419921875,0.1005859375,0.947265625,-3.173828125,1.5869140625,34.97314453125,0.0,0.0,0.0,0.013421054929494858,-0.002428269013762474,0.4662759006023407,0.8845342993736267
9.585825681686401,-1.4511129627569366,-1.0023662259142196,-56.494113380008756,0.00830078125,0.064453125,1.04541015625,0.42724609375,-0.06103515625,37.78076171875,0.0,0.0,0.0,0.015294097363948822,-0.001712057855911553,0.473315954208374,0.8807582855224609
9.605790376663208,-1.6235341514430326,-0.9766510972976504,-57.05896660927423,0.00927734375,0.04541015625,1.01220703125,3.23486328125,-0.48828125,37.841796875,0.0,0.0,0.0,0.016516905277967453,-0.0007208018214441836,0.4776517152786255,0.8783937692642212
9.62575650215149,-1.8674014667249892,-0.9582853589497209,-57.791159473205006,0.02001953125,0.048828125,0.947265625,1.220703125,4.45556640625,37.17041015625,0.0,0.0,0.0,0.018306536599993706,0.0005534891388379037,0.4832530617713928,0.8752892017364502
9.6457998752594,-2.0445168096398825,-0.8938924165281034,-58.452731596212445,0.0,0.05517578125,0.97900390625,-0.54931640625,3.11279296875,30.76171875,0.0,0.0,0.0,0.019377298653125763,0.001904236269183457,0.4882901608943939,0.8724641799926758
9.66658902168274,-2.0560937668396426,-0.5655761087395802,-59.08679171724307,-0.0166015625,0.04736328125,1.01318359375,-6.04248046875,6.65283203125,21.42333984375,0.0,0.0,0.0,0.018042143434286118,0.0045535387471318245,0.49307429790496826,0.8697882294654846
9.685747861862183,-1.9947469287052921,-0.34507094858554965,-59.348087434131074,-0.04931640625,0.04248046875,1.013671875,-6.103515625,2.8076171875,16.17431640625,0.0,0.0,0.0,0.01661430113017559,0.006001350469887257,0.4950333833694458,0.8686944246292114
9.706628322601318,-1.8920686949124903,-0.037955014372217065,-59.557234656706036,-0.0244140625,0.03515625,0.9736328125,-5.06591796875,5.615234375,6.34765625,0.0,0.0,0.0,0.014494922012090683,0.007912578992545605,0.4965871274471283,0.8678297996520996
9.725974321365356,-1.8788597493879204,0.2787824419062685,-59.604567867654225,-0.01318359375,0.03369140625,1.05078125,-0.18310546875,4.08935546875,-0.06103515625,0.0,0.0,0.0,0.013018026947975159,0.010259431786835194,0.49690568447113037,0.8676462769508362
9.745280265808105,-1.9336180162941472,0.5305000991438028,-59.58626979086776,-0.04150390625,0.03662109375,1.08447265625,3.662109375,2.01416015625,-1.89208984375,0.0,0.0,0.0,0.012342910282313824,0.012400694191455841,0.4967261254787445,0.867730975151062
9.765790224075317,-2.0311475681132287,0.7222683856233418,-59.56920797832107,-0.0517578125,0.0498046875,0.986328125,0.3662109375,2.0751953125,0.79345703125,0.0,0.0,0.0,0.01225205510854721,0.014273601584136486,0.496555894613266,0.8678008913993835
9.78576135635376,-2.065312387785044,0.8892275574075433,-59.60837228302192,-0.0771484375,0.03662109375,0.9326171875,-0.9765625,-2.62451171875,2.9296875,0.0,0.0,0.0,0.011781650595366955,0.015689866617321968,0.49682027101516724,0.8676316738128662
9.806239128112793,-2.0529845366634056,1.0178721427123236,-59.68121625052011,-0.06640625,0.03369140625,0.97216796875,0.244140625,-4.0283203125,4.638671875,0.0,0.0,0.0,0.011119718663394451,0.016617359593510628,0.49735134840011597,0.867318868637085
9.825824499130249,-2.0192389198519,1.1280734029890713,-59.750385576244824,-0.03271484375,0.0322265625,1.01416015625,-0.30517578125,-3.35693359375,2.9296875,0.0,0.0,0.0,0.010375291109085083,0.01731109991669655,0.49786049127578735,0.8670222759246826
9.84574270248413,-1.9220162996586458,1.2563993172803882,-59.79819690043492,-0.0283203125,0.03369140625,1.00341796875,-0.8544921875,-4.69970703125,1.77001953125,0.0,0.0,0.0,0.009074356406927109,0.017863238230347633,0.49821463227272034,0.8668221831321716
9.866610050201416,-2.1891631407878274,1.2068707341225695,-59.86767358467228,-0.0361328125,0.09326171875,1.0166015625,0.06103515625,-6.103515625,4.7607421875,0.0,0.0,0.0,0.011299313977360725,0.01865696907043457,0.49870654940605164,0.8664963841438293
9.886138200759888,-2.3181487019425795,1.0767534959997112,-59.9656116671811,-0.00537109375,0.0546875,1.0302734375,-1.220703125,-7.99560546875,7.568359375,0.0,0.0,0.0,0.012825718149542809,0.018245624378323555,0.4994511306285858,0.8660549521446228
9.905676126480103,-2.387922926295668,0.7177828189684946,-60.23493285634387,0.00634765625,0.052734375,0.99267578125,0.06103515625,-9.70458984375,17.822265625,0.0,0.0,0.0,0.014881334267556667,0.01587229035794735,0.5015427470207214,0.8648592829704285
