time,imu.ypr.x,imu.ypr.y,imu.ypr.z,imu.linear_acceleration.x,imu.linear_acceleration.y,imu.linear_acceleration.z,imu.angular_velocity.x,imu.angular_velocity.y,imu.angular_velocity.z,imu.compass.x,imu.compass.y,imu.compass.z,imu.orientation.x,imu.orientation.y,imu.orientation.z,imu.orientation.w
0.3794984817504883,-1.4949890307680407,2.2108771659329443,15.076959573886146,-0.0390625,0.02587890625,1.00244140625,0.18310546875,-0.54931640625,-0.06103515625,0.0,0.0,0.0,-0.015461493283510208,-0.017412777990102768,0.13140594959259033,-0.9910551309585571
0.4004940986633301,-1.5046363528055662,2.2267037814569215,15.079782149560653,-0.03857421875,0.02587890625,1.00390625,0.3662109375,-0.79345703125,-0.244140625,0.0,0.0,0.0,-0.015563441440463066,-0.017538219690322876,0.13143326342105865,-0.9910476803779602
0.4199411869049072,-1.5732717498362607,2.0477918853469035,15.080226111856705,-0.0361328125,0.02734375,1.00537109375,-0.42724609375,-1.03759765625,-0.244140625,0.0,0.0,0.0,-0.01595267653465271,-0.015911994501948357,0.13143014907836914,-0.9910693764686584
0.43961429595947266,-1.4545549512118,2.2127174750274397,15.088154253935798,-0.0390625,0.025390625,1.00390625,-0.48828125,-0.6103515625,-0.1220703125,0.0,0.0,0.0,-0.015115605667233467,-0.017473585903644562,0.13149678707122803,-0.9910473227500916
0.45946764945983887,-1.5020620118187062,2.1819180176257365,15.09070703713809,-0.03857421875,0.0263671875,1.0048828125,0.18310546875,-0.18310546875,-0.1220703125,0.0,0.0,0.0,-0.015491639263927937,-0.017152337357401848,0.1315232515335083,-0.9910436272621155
0.4763331413269043,-1.4129785225168745,2.2636171119394324,15.096591245108055,-0.03955078125,0.02490234375,1.0048828125,0.06103515625,-0.18310546875,-0.06103515625,0.0,0.0,0.0,-0.01481554750353098,-0.0179604385048151,0.13156768679618835,-0.991033673286438
0.4955272674560547,-1.4376659211067682,2.2067468224757905,15.098198047110301,-0.03857421875,0.025390625,1.0048828125,-0.1220703125,-1.0986328125,-0.18310546875,0.0,0.0,0.0,-0.014964241534471512,-0.017440011724829674,0.13158056139945984,-0.9910390973091125
0.519547700881958,-1.4707206215950448,2.266798699432189,15.100969396366034,-0.0400390625,0.0263671875,1.0029296875,-0.3662109375,-0.91552734375,-0.30517578125,0.0,0.0,0.0,-0.015319245867431164,-0.017921071499586105,0.13161486387252808,-0.9910205602645874
0.5352597236633301,-1.3878238962990694,2.180573110689479,15.107326594936023,-0.0380859375,0.0244140625,1.005859375,0.1220703125,-0.1220703125,-0.1220703125,0.0,0.0,0.0,-0.014504613354802132,-0.017269710078835487,0.13164973258972168,-0.9910397529602051
0.5600950717926025,-1.5034651888063206,2.1891067917271747,15.105504641974923,-0.03857421875,0.0263671875,1.00390625,0.06103515625,-0.3662109375,0.0,0.0,0.0,0.0,-0.015514216385781765,-0.01721089705824852,0.1316521018743515,-0.9910252094268799
0.5754871368408203,-1.486029316680865,2.116773167426036,15.110004029090668,-0.03759765625,0.02587890625,1.001953125,-0.1220703125,-0.9765625,-0.18310546875,0.0,0.0,0.0,-0.015281282365322113,-0.016604717820882797,0.13168182969093323,-0.9910352230072021
0.5969762802124023,-1.4698458237727543,2.2334778350096935,15.11518302002883,-0.0390625,0.02587890625,1.0048828125,0.1220703125,-0.8544921875,-0.1220703125,0.0,0.0,0.0,-0.015275739133358002,-0.01763199269771576,0.1317346841096878,-0.9910105466842651
0.6159908771514893,-1.4073757396850541,2.1354518138153167,15.120023916603078,-0.037109375,0.0244140625,1.00341796875,0.1220703125,-0.79345703125,-0.244140625,0.0,0.0,0.0,-0.0146239148452878,-0.016855372115969658,0.1317586600780487,-0.9910306930541992
0.639777421951294,-1.3627644658428215,2.1097103249374194,15.123766860268244,-0.037109375,0.0244140625,1.00537109375,-0.3662109375,-0.732421875,-0.30517578125,0.0,0.0,0.0,-0.014209144748747349,-0.016683565452694893,0.13178235292434692,-0.9910364747047424
0.6595401763916016,-1.431901454890689,2.10198196589155,15.123884681031427,-0.03662109375,0.025390625,1.00439453125,-0.3662109375,-0.48828125,-0.06103515625,0.0,0.0,0.0,-0.014798227697610855,-0.016537195071578026,0.13179273903369904,-0.9910289645195007
0.6793477535247803,-1.4748201224792277,2.2591928569045567,15.125938860424307,-0.03955078125,0.02587890625,1.00537109375,0.06103515625,-0.48828125,0.06103515625,0.0,0.0,0.0,-0.01534988358616829,-0.01784723438322544,0.13183075189590454,-0.9909927845001221
0.7000858783721924,-1.5941947536981256,2.249888645151118,15.125344633966517,-0.0400390625,0.02783203125,1.00244140625,0.3662109375,-0.732421875,-0.1220703125,0.0,0.0,0.0,-0.016371481120586395,-0.017629509791731834,0.13184323906898499,-0.9909785985946655
0.719588041305542,-1.5127113439518138,2.1410167104415843,15.131406426854904,-0.03759765625,0.0263671875,1.00439453125,-0.18310546875,-0.9765625,-0.244140625,0.0,0.0,0.0,-0.015542933717370033,-0.016780836507678032,0.13187307119369507,-0.9910026788711548
0.7396397590637207,-1.4504507545725627,2.16192349260417,15.136112427193043,-0.0380859375,0.025390625,1.0048828125,-0.30517578125,-0.79345703125,-0.18310546875,0.0,0.0,0.0,-0.015029164962470531,-0.01703268475830555,0.1319064497947693,-0.9910018444061279
0.7551484107971191,-1.4193233413689932,2.2307026437725526,15.140755248281359,-0.03955078125,0.025390625,1.0048828125,0.06103515625,-0.18310546875,-0.06103515625,0.0,0.0,0.0,-0.01483957376331091,-0.017662758007645607,0.1319478303194046,-0.9909882545471191
0.7794220447540283,-1.4873306811611637,2.2185299660111206,15.1406545029911,-0.0390625,0.02587890625,1.0029296875,0.244140625,-0.42724609375,0.06103515625,0.0,0.0,0.0,-0.015413719229400158,-0.01747918501496315,0.1319563239812851,-0.9909815788269043
0.7997136116027832,-1.4892562608985784,2.1046572656120794,15.14362051263818,-0.037109375,0.025390625,1.0048828125,-0.18310546875,-1.15966796875,-0.1220703125,0.0,0.0,0.0,-0.01530015654861927,-0.016491733491420746,0.13197192549705505,-0.9909982681274414
0.8196427822113037,-1.4470882737885065,2.291850339203915,15.14807550352432,-0.0400390625,0.025390625,1.00390625,-0.30517578125,-1.0986328125,-0.30517578125,0.0,0.0,0.0,-0.01515099499374628,-0.01815865747630596,0.1320207118988037,-0.9909648299217224
0.8404150009155273,-1.4875509547618968,2.1597670738171506,15.14770838085643,-0.037109375,0.02685546875,1.00390625,0.0,-0.3662109375,-0.18310546875,0.0,0.0,0.0,-0.015349256806075573,-0.016969772055745125,0.13201205432415009,-0.9909839630126953
0.8597023487091064,-1.4527669357531374,2.2165274399238375,15.151224220731695,-0.03857421875,0.025390625,1.00439453125,0.18310546875,0.0,0.0,0.0,0.0,0.0,-0.01511413138359785,-0.017500272020697594,0.1320422738790512,-0.9909743666648865
0.8795993328094482,-1.4269654692765912,2.241076633904744,15.155616032368014,-0.03955078125,0.02587890625,1.00439453125,-0.1220703125,-0.79345703125,-0.1220703125,0.0,0.0,0.0,-0.014919865876436234,-0.017741745337843895,0.1320783942937851,-0.9909682273864746
0.899695634841919,-1.4792744730351337,2.1638831165657293,15.15823370236742,-0.0380859375,0.02587890625,1.00439453125,-0.1220703125,-1.15966796875,-0.18310546875,0.0,0.0,0.0,-0.01528396550565958,-0.01701349951326847,0.13210220634937286,-0.9909723401069641
0.9194366931915283,-1.418542992256319,2.17780368242445,15.163831042392246,-0.0380859375,0.02490234375,1.00439453125,-0.06103515625,-0.48828125,-0.30517578125,0.0,0.0,0.0,-0.014775600284337997,-0.017203180119395256,0.1321427822113037,-0.9909712076187134
0.9395561218261719,-1.4029943867759025,2.141194295360005,15.16722393886245,-0.03759765625,0.02490234375,1.00341796875,-0.1220703125,-0.30517578125,-0.06103515625,0.0,0.0,0.0,-0.014599567279219627,-0.016904063522815704,0.13216669857501984,-0.9909758567810059
0.9594733715057373,-1.4772549781966313,2.0908099108435247,15.169621335261125,-0.037109375,0.02587890625,1.0048828125,-0.30517578125,-0.6103515625,-0.1220703125,0.0,0.0,0.0,-0.015184196643531322,-0.01638234779238701,0.13219380378723145,-0.9909722208976746
0.9799928665161133,-1.461260916316283,2.152208615726885,15.174445156362445,-0.03857421875,0.02587890625,1.00439453125,0.06103515625,-0.91552734375,-0.244140625,0.0,0.0,0.0,-0.015117174945771694,-0.016931163147091866,0.1322387009859085,-0.9909579753875732
1.0010130405426025,-1.4383670827137522,2.160520102173144,15.180196175643596,-0.0380859375,0.025390625,1.0029296875,0.18310546875,-0.732421875,-0.30517578125,0.0,0.0,0.0,-0.014929606579244137,-0.01702871173620224,0.13228578865528107,-0.9909528493881226
1.0225117206573486,-1.4759212770394807,2.2793969833562775,15.183066562642294,-0.0400390625,0.02587890625,1.00390625,-0.06103515625,-0.9765625,-0.48828125,0.0,0.0,0.0,-0.015391546301543713,-0.018013035878539085,0.13232675194740295,-0.9909229278564453
1.0438528060913086,-1.5230020911534958,2.169424107529902,15.18436600613189,-0.0380859375,0.02685546875,1.00634765625,-0.48828125,-0.91552734375,-0.244140625,0.0,0.0,0.0,-0.015672361478209496,-0.017007438465952873,0.13233520090579987,-0.9909351468086243
1.0609040260314941,-1.394498378500347,2.079410111675362,15.192423921805212,-0.03662109375,0.02490234375,1.0048828125,0.06103515625,-0.42724609375,-0.06103515625,0.0,0.0,0.0,-0.014458676800131798,-0.016376344487071037,0.13237816095352173,-0.9909586310386658
1.081035852432251,-1.4401038717536396,2.2200334614021693,15.19507574275047,-0.03955078125,0.025390625,1.00439453125,0.244140625,-0.3662109375,0.0,0.0,0.0,0.0,-0.015015359967947006,-0.01753944344818592,0.13241985440254211,-0.9909248352050781
1.0994622707366943,-1.4931364486773804,2.1720686713991664,15.194368818171373,-0.0380859375,0.02587890625,1.005859375,-0.18310546875,-0.91552734375,-0.18310546875,0.0,0.0,0.0,-0.015418627299368382,-0.017063453793525696,0.1324175000190735,-0.9909272193908691
1.119699239730835,-1.4305236776690504,2.204734264548164,15.197869290121005,-0.0390625,0.025390625,1.00390625,-0.3662109375,-1.220703125,-0.06103515625,0.0,0.0,0.0,-0.014915323816239834,-0.01741783879697323,0.1324412226676941,-0.990925669670105
1.1354808807373047,-1.5282100036739248,2.1058931029650285,15.197823186344108,-0.037109375,0.02685546875,1.0068359375,-0.06103515625,-0.42724609375,-0.18310546875,0.0,0.0,0.0,-0.015646234154701233,-0.01645015925168991,0.13244637846946716,-0.9909301996231079
1.159386157989502,-1.42407619253597,2.104867934259292,15.204252101900382,-0.03662109375,0.025390625,1.00537109375,-0.06103515625,-0.18310546875,-0.1220703125,0.0,0.0,0.0,-0.014745479449629784,-0.016560819000005722,0.13248689472675323,-0.9909367561340332
1.1795568466186523,-1.6163782476269748,2.1118165845227224,15.200160818587545,-0.037109375,0.0283203125,1.00439453125,-0.18310546875,-0.67138671875,-0.06103515625,0.0,0.0,0.0,-0.01641581952571869,-0.016399141401052475,0.13247981667518616,-0.9909140467643738
1.2003889083862305,-1.5155187651441007,2.2438379513201334,15.20788063989695,-0.0400390625,0.02587890625,1.00439453125,-0.06103515625,-1.03759765625,-0.3662109375,0.0,0.0,0.0,-0.015696879476308823,-0.017656395211815834,0.13254426419734955,-0.9908955693244934
1.2210884094238281,-1.5092528136325545,2.134570719412385,15.212364659087065,-0.03759765625,0.0263671875,1.0048828125,0.3662109375,-0.732421875,-0.1220703125,0.0,0.0,0.0,-0.015517446212470531,-0.016718106344342232,0.13257205486297607,-0.9909110069274902
1.2393832206726074,-1.4541732076702196,2.1939314666021428,15.216179319738517,-0.0380859375,0.025390625,1.0048828125,0.0,-0.30517578125,-0.18310546875,0.0,0.0,0.0,-0.015110155567526817,-0.017294669523835182,0.13260221481323242,-0.9909033179283142
1.2625560760498047,-1.5116059205233296,2.2153744186145747,15.216681338642513,-0.0390625,0.02685546875,1.00341796875,-0.3662109375,-0.48828125,0.0,0.0,0.0,0.0,-0.01563158631324768,-0.01741357520222664,0.13261717557907104,-0.9908910989761353
1.275498867034912,-1.50933893804912,2.193529766101581,15.220344027584932,-0.0390625,0.02587890625,1.00244140625,-0.1220703125,-0.8544921875,-0.06103515625,0.0,0.0,0.0,-0.015587350353598595,-0.017226792871952057,0.13264650106430054,-0.9908910989761353
1.2950050830841064,-1.4861150142106074,2.2818009965007104,15.224870735457358,-0.0400390625,0.025390625,1.00146484375,0.244140625,-0.79345703125,-0.18310546875,0.0,0.0,0.0,-0.015489034354686737,-0.018016405403614044,0.13269005715847015,-0.9908728003501892
1.319549322128296,-1.4724878263210799,2.167612613295968,15.22815947154272,-0.0380859375,0.02587890625,1.00634765625,-0.18310546875,-0.732421875,-0.244140625,0.0,0.0,0.0,-0.015239963307976723,-0.01704428344964981,0.13270621001720428,-0.9908917546272278
1.3353588581085205,-1.4136583397827023,2.0977929254962167,15.23273740583392,-0.03662109375,0.02490234375,1.0048828125,-0.732421875,-0.54931640625,-0.1220703125,0.0,0.0,0.0,-0.014651344157755375,-0.016508037224411964,0.132731094956398,-0.9909062385559082
1.3594815731048584,-1.396704636323967,2.17402893569096,15.237212887287571,-0.0380859375,0.0244140625,1.00634765625,-0.06103515625,-0.3662109375,-0.06103515625,0.0,0.0,0.0,-0.014593414030969143,-0.017186375334858894,0.1327737420797348,-0.9908899664878845
1.379582166671753,-1.4351690600783054,2.183520337316339,15.239460019524506,-0.0380859375,0.025390625,1.0029296875,0.3662109375,-0.67138671875,-0.06103515625,0.0,0.0,0.0,-0.014937316998839378,-0.017223592847585678,0.13279975950717926,-0.9908806681632996
1.3994460105895996,-1.3606980134537754,2.085775634538402,15.243916717957939,-0.03662109375,0.02392578125,1.00341796875,-0.18310546875,-0.9765625,-0.06103515625,0.0,0.0,0.0,-0.014181111939251423,-0.016464071348309517,0.13281916081905365,-0.9909020662307739
1.4195141792297363,-1.4860916421570411,2.1931434335266524,15.242692406549214,-0.0380859375,0.025390625,1.00341796875,-0.30517578125,-1.15966796875,-0.244140625,0.0,0.0,0.0,-0.015389245003461838,-0.017247360199689865,0.1328362077474594,-0.9908684492111206
1.4395899772644043,-1.5308684413649407,2.1200196417159076,15.24270265183297,-0.037109375,0.02685546875,1.00439453125,-0.244140625,-0.30517578125,0.0,0.0,0.0,0.0,-0.015691975131630898,-0.016563110053539276,0.13283616304397583,-0.9908754825592041
1.4598095417022705,-1.4727457726839537,2.2915032802167135,15.246541218146515,-0.04052734375,0.02587890625,1.005859375,0.18310546875,-0.30517578125,0.06103515625,0.0,0.0,0.0,-0.015388045459985733,-0.018112875521183014,0.1328761875629425,-0.9908477067947388
1.4796171188354492,-1.5142902915888503,2.1587903567658384,15.247914086169688,-0.0380859375,0.02685546875,1.005859375,0.1220703125,-0.8544921875,-0.06103515625,0.0,0.0,0.0,-0.015594174154102802,-0.01691688969731331,0.13288244605064392,-0.9908647537231445
1.5010144710540771,-1.352737214532714,2.0738708282584817,15.258295973708108,-0.03662109375,0.02392578125,1.00634765625,-0.18310546875,-1.03759765625,-0.1220703125,0.0,0.0,0.0,-0.014100571162998676,-0.016368580982089043,0.1329413801431656,-0.9908884167671204
1.5233027935028076,-1.496862957199857,2.0444771091653315,15.256928228326812,-0.0361328125,0.02587890625,1.00341796875,0.0,-0.91552734375,-0.3662109375,0.0,0.0,0.0,-0.01531265676021576,-0.015947360545396805,0.13294731080532074,-0.9908765554428101
1.5407192707061768,-1.4345406826746643,2.169783973121797,15.262283096636102,-0.0380859375,0.02587890625,1.001953125,0.06103515625,-0.42724609375,-0.18310546875,0.0,0.0,0.0,-0.01491942722350359,-0.01710256189107895,0.1329958289861679,-0.9908567667007446
1.559389591217041,-1.4675203578037765,2.1175819045124475,15.263743049571193,-0.03759765625,0.025390625,1.0029296875,0.0,-0.67138671875,0.0,0.0,0.0,0.0,-0.015144438482820988,-0.01661268062889576,0.1330087035894394,-0.9908599853515625
1.579955816268921,-1.3897175662464556,2.168076425829294,15.269675068865348,-0.0380859375,0.02490234375,1.005859375,0.0,-0.732421875,-0.06103515625,0.0,0.0,0.0,-0.014530976302921772,-0.017138879746198654,0.13305288553237915,-0.9908543229103088
1.5994927883148193,-1.5187171079446649,2.2312368926316943,15.270277833059602,-0.0400390625,0.0263671875,1.00439453125,0.244140625,-0.8544921875,-0.30517578125,0.0,0.0,0.0,-0.015719570219516754,-0.017535168677568436,0.13308314979076385,-0.9908250570297241
1.620133638381958,-1.451874955736216,2.196892353607343,15.27533729568729,-0.03857421875,0.025390625,1.00341796875,-0.06103515625,-0.732421875,-0.1220703125,0.0,0.0,0.0,-0.015102637931704521,-0.01731513999402523,0.13311365246772766,-0.9908344149589539
1.6406750679016113,-1.4948952223886587,2.1309037616017346,15.276897993912637,-0.03662109375,0.0263671875,1.0048828125,-0.30517578125,-0.6103515625,-0.18310546875,0.0,0.0,0.0,-0.015398469753563404,-0.016694338992238045,0.13312764465808868,-0.9908386468887329
1.6593587398529053,-1.5582988012368293,2.096699028011957,15.277941305308357,-0.03759765625,0.02783203125,1.00390625,-0.06103515625,-0.42724609375,-0.1220703125,0.0,0.0,0.0,-0.015907255932688713,-0.016324754804372787,0.1331426054239273,-0.9908347725868225
1.6795623302459717,-1.4961416251904802,2.274390027807835,15.284725390701471,-0.0400390625,0.02587890625,0.9990234375,0.3662109375,-0.48828125,-0.244140625,0.0,0.0,0.0,-0.015576553530991077,-0.017932575196027756,0.1332085132598877,-0.9908034205436707
1.6951615810394287,-1.503971903465371,2.1662021792323602,15.287517230524715,-0.0380859375,0.0263671875,1.00439453125,0.06103515625,-0.91552734375,-0.244140625,0.0,0.0,0.0,-0.015519386157393456,-0.01698758639395237,0.1332240253686905,-0.9908188581466675
1.7197332382202148,-1.4702330101213295,2.173138876664743,15.29135408929097,-0.0380859375,0.02587890625,1.0048828125,-0.42724609375,-0.8544921875,-0.06103515625,0.0,0.0,0.0,-0.015236269682645798,-0.01708628423511982,0.133252814412117,-0.990817666053772
1.7399368286132812,-1.4831668270883949,2.0723818470194186,15.294504514045638,-0.0361328125,0.0263671875,1.00537109375,-0.18310546875,-0.42724609375,-0.06103515625,0.0,0.0,0.0,-0.015231800265610218,-0.016199564561247826,0.13327287137508392,-0.9908300042152405
1.7593705654144287,-1.5441520920835576,2.253499040457705,15.29532413674604,-0.0390625,0.02685546875,1.00537109375,0.244140625,-0.244140625,-0.06103515625,0.0,0.0,0.0,-0.01596911810338497,-0.017694642767310143,0.13330571353435516,-0.9907882809638977
1.7809410095214844,-1.4162253169718635,2.0950627708189153,15.304056533599901,-0.03662109375,0.0244140625,1.0048828125,0.06103515625,-0.67138671875,0.0,0.0,0.0,0.0,-0.014680642634630203,-0.01647232100367546,0.13334792852401733,-0.9908236861228943
1.7994892597198486,-1.4522115559962507,2.2035234000743675,15.306233656397842,-0.0390625,0.025390625,1.005859375,-0.18310546875,-1.03759765625,-0.18310546875,0.0,0.0,0.0,-0.015117906033992767,-0.01736801490187645,0.1333814412355423,-0.9907972812652588
1.8213138580322266,-1.498548626542675,2.2244045690275662,15.30716597721955,-0.0390625,0.02587890625,1.00146484375,-0.06103515625,-0.732421875,-0.244140625,0.0,0.0,0.0,-0.015542907640337944,-0.017494505271315575,0.1333983987569809,-0.9907862544059753
1.8394780158996582,-1.4810448794123423,2.197740577724894,15.30973242080018,-0.03857421875,0.02587890625,1.00439453125,0.06103515625,-0.18310546875,0.0,0.0,0.0,0.0,-0.015361028723418713,-0.017283979803323746,0.13341553509235382,-0.9907904863357544
1.8575270175933838,-1.4901161176820596,2.1454990220844055,15.313699053160667,-0.03759765625,0.0263671875,1.00439453125,-0.3662109375,-0.48828125,-0.06103515625,0.0,0.0,0.0,-0.01537944283336401,-0.016821157187223434,0.13344648480415344,-0.9907940030097961
1.8751323223114014,-1.4671908011763235,2.2123719101441193,15.317843270439571,-0.03955078125,0.02587890625,1.0068359375,-0.18310546875,-1.0986328125,-0.244140625,0.0,0.0,0.0,-0.015259449370205402,-0.017425544559955597,0.1334848701953888,-0.9907801747322083
1.8970119953155518,-1.3781041102233182,2.1852799648012637,15.325429903060163,-0.03857421875,0.02392578125,1.00439453125,0.244140625,-0.67138671875,-0.1220703125,0.0,0.0,0.0,-0.014458881691098213,-0.01729409582912922,0.13353465497493744,-0.9907878041267395
1.9194726943969727,-1.4757836060390226,2.0612710502305123,15.321664761280193,-0.0361328125,0.02587890625,1.00390625,0.06103515625,-0.42724609375,0.1220703125,0.0,0.0,0.0,-0.01515890285372734,-0.01610848307609558,0.1335056722164154,-0.990801215171814
1.9399611949920654,-1.5633596512466914,2.193758790882188,15.319228091293791,-0.03857421875,0.02734375,1.005859375,-0.244140625,-0.54931640625,0.0,0.0,0.0,0.0,-0.016069546341896057,-0.01715237833559513,0.13350963592529297,-0.9907687306404114
1.9596848487854004,-1.4495778777409762,2.0516618278419503,15.326440771057324,-0.0361328125,0.025390625,1.0029296875,-0.18310546875,-0.732421875,-0.1220703125,0.0,0.0,0.0,-0.014921830967068672,-0.016055302694439888,0.13354243338108063,-0.990800678730011
1.9795746803283691,-1.3642276204290853,2.1773018769638655,15.334421847102485,-0.0390625,0.02392578125,1.0048828125,0.18310546875,-0.8544921875,-0.244140625,0.0,0.0,0.0,-0.014330989681184292,-0.017240159213542938,0.13360966742038727,-0.9907804727554321
1.9995367527008057,-1.5344953785359232,2.1636393641897245,15.33182637521788,-0.0380859375,0.02685546875,1.00537109375,0.1220703125,-0.732421875,-0.18310546875,0.0,0.0,0.0,-0.01578688435256481,-0.01692383736371994,0.13361141085624695,-0.9907635450363159
2.0210108757019043,-1.5603457235537175,2.2767347036838537,15.334362082947248,-0.03857421875,0.0263671875,1.0029296875,-0.18310546875,-1.03759765625,-0.18310546875,0.0,0.0,0.0,-0.016142142936587334,-0.017871219664812088,0.13364791870117188,-0.9907362461090088
2.040696620941162,-1.452912183994706,2.1466558853750763,15.340736356990162,-0.037109375,0.02490234375,1.005859375,-0.18310546875,-0.54931640625,-0.244140625,0.0,0.0,0.0,-0.0150630883872509,-0.016870932653546333,0.13367486000061035,-0.990767240524292
2.0599355697631836,-1.3688640382150545,2.0838574185986865,15.346043413975261,-0.03662109375,0.02392578125,1.0048828125,0.18310546875,-0.1220703125,-0.1220703125,0.0,0.0,0.0,-0.014264151453971863,-0.01642531342804432,0.13370321691036224,-0.9907826781272888
2.081437826156616,-1.4930259917118966,2.183268474090695,15.344914725214917,-0.03857421875,0.0263671875,1.00341796875,-0.06103515625,-0.42724609375,-0.06103515625,0.0,0.0,0.0,-0.015453096479177475,-0.01714015007019043,0.13372021913528442,-0.9907504320144653
2.1013071537017822,-1.4460234046082192,2.311801321769522,15.349687319897463,-0.04052734375,0.025390625,1.0029296875,-0.30517578125,-1.03759765625,-0.30517578125,0.0,0.0,0.0,-0.01519691664725542,-0.018305717036128044,0.13376553356647491,-0.9907273650169373
2.1208746433258057,-1.4665538860362197,2.1536361252634175,15.352445008774856,-0.037109375,0.025390625,1.00390625,-0.06103515625,-0.8544921875,-0.30517578125,0.0,0.0,0.0,-0.01519087702035904,-0.016913821920752525,0.13377873599529266,-0.9907505512237549
2.1397321224212646,-1.4807565173633208,2.251212634633043,15.354089376817537,-0.0400390625,0.02587890625,1.0048828125,0.0,-0.30517578125,-0.1220703125,0.0,0.0,0.0,-0.015427429229021072,-0.017740707844495773,0.13380376994609833,-0.9907289743423462
2.1595206260681152,-1.4186664692699082,2.1690625343907146,15.359883084781,-0.0380859375,0.02490234375,1.00390625,-0.06103515625,-0.30517578125,-0.1220703125,0.0,0.0,0.0,-0.01479590404778719,-0.017102153971791267,0.1338372826576233,-0.9907452464103699
2.1793630123138428,-1.3342732922154654,2.167932991856724,15.36656130224198,-0.03857421875,0.0234375,1.00390625,-0.18310546875,-0.91552734375,-0.06103515625,0.0,0.0,0.0,-0.014065933413803577,-0.017190128564834595,0.1338822990655899,-0.9907483458518982
2.201176881790161,-1.4703163597735447,2.1605294936832533,15.366002934277331,-0.0380859375,0.02587890625,1.00634765625,0.30517578125,-0.6103515625,-0.18310546875,0.0,0.0,0.0,-0.015233434736728668,-0.016967229545116425,0.1338971108198166,-0.9907329678535461
2.2197368144989014,-1.4440524681458473,2.1566454639230432,15.370978727087685,-0.0380859375,0.025390625,1.0048828125,0.1220703125,-0.79345703125,-0.244140625,0.0,0.0,0.0,-0.015002577565610409,-0.016963684931397438,0.13393591344356537,-0.9907312989234924
2.2399587631225586,-1.523933771644968,2.1462085079844404,15.369013340154014,-0.03759765625,0.02685546875,1.001953125,-0.244140625,-0.54931640625,-0.244140625,0.0,0.0,0.0,-0.015680765733122826,-0.016780344769358635,0.1339297592639923,-0.9907246828079224
2.25966477394104,-1.4881194612885946,2.1325312676149015,15.373637378222114,-0.037109375,0.0263671875,1.005859375,-0.42724609375,-0.54931640625,0.0,0.0,0.0,0.0,-0.015355872921645641,-0.016703324392437935,0.13396324217319489,-0.9907265305519104
2.2812135219573975,-1.472409172423919,2.2147590612590387,15.379514756002909,-0.0390625,0.02587890625,1.00537109375,0.18310546875,-0.244140625,-0.18310546875,0.0,0.0,0.0,-0.015316721983253956,-0.017431864514946938,0.13401907682418823,-0.9907070994377136
2.2999250888824463,-1.4635254441912595,2.1093773532153812,15.384178067658736,-0.037109375,0.025390625,1.0048828125,0.244140625,-0.67138671875,-0.06103515625,0.0,0.0,0.0,-0.015117786824703217,-0.016530489549040794,0.1340487152338028,-0.990721583366394
2.320249557495117,-1.4236563493454257,2.1739493212984473,15.389862492595478,-0.0380859375,0.025390625,1.0048828125,-0.244140625,-1.15966796875,-0.244140625,0.0,0.0,0.0,-0.014849216677248478,-0.017134694382548332,0.1340976357460022,-0.9907087087631226
2.3394267559051514,-1.4991577940392755,2.1510869705991222,15.388948954793989,-0.0380859375,0.0263671875,1.00732421875,-0.30517578125,-0.42724609375,-0.18310546875,0.0,0.0,0.0,-0.01547517254948616,-0.016848789528012276,0.13409891724586487,-0.9907038807868958
2.359766960144043,-1.4339686543316756,2.0712900839692745,15.394783643892472,-0.03662109375,0.025390625,1.00634765625,0.30517578125,-0.42724609375,-0.06103515625,0.0,0.0,0.0,-0.014819348230957985,-0.0162343792617321,0.13413284718990326,-0.9907196164131165
2.3794260025024414,-1.4020656944921923,2.054554839842274,15.399327427237823,-0.03662109375,0.0244140625,1.0068359375,0.1220703125,-0.67138671875,-0.18310546875,0.0,0.0,0.0,-0.014524641446769238,-0.016126448288559914,0.1341661810874939,-0.9907211661338806
2.4041013717651367,-1.549493620179625,2.221917099509212,15.397816247883958,-0.0390625,0.02685546875,1.0068359375,-0.18310546875,-0.91552734375,-0.06103515625,0.0,0.0,0.0,-0.015994274988770485,-0.017401043325662613,0.1341896802186966,-0.990673840045929
2.419548511505127,-1.4913552634078882,2.1533355969399373,15.40107766321264,-0.0380859375,0.0263671875,1.0048828125,-0.30517578125,-0.79345703125,-0.18310546875,0.0,0.0,0.0,-0.015412124805152416,-0.0168757326900959,0.13420282304286957,-0.990690290927887
2.440232276916504,-1.506552647754578,2.2138152144931076,15.40421613513626,-0.0390625,0.02685546875,1.00244140625,0.18310546875,-0.1220703125,-0.06103515625,0.0,0.0,0.0,-0.015614558011293411,-0.017380407080054283,0.13423773646354675,-0.9906736612319946
2.459599733352661,-1.4858134186700689,2.2922785066875098,15.408747965650564,-0.0400390625,0.02587890625,1.0029296875,0.1220703125,-0.30517578125,-0.06103515625,0.0,0.0,0.0,-0.015527546405792236,-0.01808246783912182,0.1342807412147522,-0.9906566739082336
2.482710599899292,-1.5255556214077286,2.2793128866521215,15.409453182682368,-0.0400390625,0.02587890625,1.0029296875,-0.30517578125,-0.54931640625,0.1220703125,0.0,0.0,0.0,-0.015856098383665085,-0.01792370155453682,0.13429193198680878,-0.9906527996063232
2.499589443206787,-1.4837425906910857,2.234414424699631,15.414944654775057,-0.0390625,0.02587890625,1.00390625,0.06103515625,-1.03759765625,-0.244140625,0.0,0.0,0.0,-0.015443047508597374,-0.017583781853318214,0.13432885706424713,-0.9906604290008545
2.5199787616729736,-1.4784614670804908,2.210899364047747,15.418515136163682,-0.0390625,0.025390625,1.0048828125,0.0,-0.732421875,-0.244140625,0.0,0.0,0.0,-0.01537046767771244,-0.017386185005307198,0.1343568116426468,-0.9906613230705261
2.540834665298462,-1.447023066826274,2.169670421226846,15.42493892907808,-0.0380859375,0.025390625,1.00390625,-0.30517578125,-0.91552734375,-0.3662109375,0.0,0.0,0.0,-0.015051469206809998,-0.0170657467097044,0.1344040036201477,-0.9906653165817261
2.5602688789367676,-1.448198499693751,2.190494600789157,15.427186061315012,-0.03857421875,0.025390625,1.00244140625,-0.42724609375,-0.67138671875,-0.18310546875,0.0,0.0,0.0,-0.015086306259036064,-0.017244111746549606,0.13442541658878326,-0.9906588792800903
2.5794777870178223,-1.4771922258336319,2.2622903476931575,15.428709193499925,-0.03955078125,0.02587890625,1.00048828125,0.1220703125,-0.48828125,0.0,0.0,0.0,0.0,-0.01542111486196518,-0.017830612137913704,0.1344493180513382,-0.9906400442123413
2.5985398292541504,-1.5388231571487727,2.1581856715808807,15.430684825717352,-0.0380859375,0.02685546875,1.00537109375,0.1220703125,-0.6103515625,-0.1220703125,0.0,0.0,0.0,-0.01583251729607582,-0.01685798168182373,0.1344662308692932,-0.9906482696533203
2.623638868331909,-1.4991127574794358,2.113473972613508,15.434420939193348,-0.03759765625,0.02685546875,1.0048828125,-0.244140625,-0.8544921875,-0.244140625,0.0,0.0,0.0,-0.015437480993568897,-0.016517510637640953,0.13448859751224518,-0.9906572699546814
2.63982892036438,-1.4960805803747732,2.1490823100777234,15.438995458389964,-0.03759765625,0.0263671875,1.0048828125,-0.3662109375,-0.8544921875,-0.30517578125,0.0,0.0,0.0,-0.015453580766916275,-0.01682830974459648,0.1345309466123581,-0.9906460642814636
2.6601204872131348,-1.5384290338893216,2.1256440890540014,15.440175373569085,-0.03759765625,0.02685546875,1.0048828125,0.1220703125,-0.18310546875,-0.1220703125,0.0,0.0,0.0,-0.01579243876039982,-0.01657579466700554,0.13454514741897583,-0.9906429648399353
2.679992437362671,-1.5229715687456424,2.1669197759820347,15.443899534214035,-0.0380859375,0.0263671875,1.005859375,0.30517578125,-0.67138671875,-0.1220703125,0.0,0.0,0.0,-0.015707645565271378,-0.01695028319954872,0.13457894325256348,-0.9906334280967712
2.6994521617889404,-1.4357775872446712,2.1780867083881823,15.451124166808615,-0.03857421875,0.02490234375,1.00537109375,-0.244140625,-1.0986328125,-0.18310546875,0.0,0.0,0.0,-0.014968005008995533,-0.017148280516266823,0.13462942838668823,-0.9906346201896667
2.7179360389709473,-1.442123900200671,2.0774897613015306,15.45511128973661,-0.03662109375,0.025390625,1.005859375,-0.30517578125,-1.15966796875,-0.18310546875,0.0,0.0,0.0,-0.01490565575659275,-0.0162705909460783,0.13465608656406403,-0.9906467199325562
2.739581823348999,-1.442028597717408,2.1628331884242513,15.455618431282483,-0.03759765625,0.025390625,1.0029296875,0.1220703125,-0.1220703125,0.0,0.0,0.0,0.0,-0.015004855580627918,-0.017008475959300995,0.13466790318489075,-0.9906311631202698
2.7600603103637695,-1.4969478009559534,2.2826118680212377,15.45517276143914,-0.03955078125,0.0263671875,1.0048828125,0.06103515625,-0.3662109375,0.18310546875,0.0,0.0,0.0,-0.01561980601400137,-0.017979517579078674,0.13468296825885773,-0.9906024932861328
2.7795464992523193,-1.350057325778836,2.213597715656725,15.463534620530528,-0.0390625,0.0234375,1.0048828125,0.0,-1.03759765625,-0.18310546875,0.0,0.0,0.0,-0.014270436018705368,-0.017554450780153275,0.1347266584634781,-0.9906246066093445
2.8000073432922363,-1.3833198134282692,2.17919938889266,15.467057290594962,-0.0380859375,0.0244140625,1.0048828125,0.06103515625,-0.91552734375,-0.30517578125,0.0,0.0,0.0,-0.014518207870423794,-0.017217513173818588,0.13475939631462097,-0.9906224012374878
2.8195009231567383,-1.4699759175321019,2.0871403917119355,15.466449403758832,-0.037109375,0.02587890625,1.00537109375,0.06103515625,-0.48828125,-0.3662109375,0.0,0.0,0.0,-0.015159353613853455,-0.016319798305630684,0.13475891947746277,-0.9906280636787415
2.839488983154297,-1.4465867884930395,2.2397505099887036,15.471573753183634,-0.0390625,0.02490234375,1.00390625,-0.06103515625,-0.1220703125,-0.1220703125,0.0,0.0,0.0,-0.01513679325580597,-0.017665991559624672,0.13481315970420837,-0.9905979037284851
2.8569724559783936,-1.5403964485354027,2.1117587413581886,15.471940875851521,-0.037109375,0.02685546875,1.0048828125,-0.244140625,-0.732421875,0.0,0.0,0.0,0.0,-0.01579776406288147,-0.016449058428406715,0.13481873273849487,-0.9906077980995178
2.875267267227173,-1.4643295922443227,2.1709636748575054,15.47931406506055,-0.0380859375,0.02587890625,1.0048828125,-0.06103515625,-1.220703125,-0.18310546875,0.0,0.0,0.0,-0.015210689976811409,-0.017049413174390793,0.13487675786018372,-0.9905989766120911
2.8994669914245605,-1.4502617504316238,2.0809187297082885,15.481829282222407,-0.03662109375,0.025390625,1.005859375,0.06103515625,-0.732421875,-0.244140625,0.0,0.0,0.0,-0.014983821660280228,-0.0162871815264225,0.13488852977752686,-0.9906136393547058
2.9197726249694824,-1.3765070198962988,2.261681180196557,15.485271697564094,-0.03955078125,0.0244140625,1.005859375,-0.244140625,-0.48828125,0.06103515625,0.0,0.0,0.0,-0.014558831229805946,-0.017936287447810173,0.13492250442504883,-0.9905868768692017
2.9436581134796143,-1.4466165638489525,2.163234675481401,15.486519914634913,-0.0380859375,0.025390625,1.0068359375,-0.3662109375,-0.48828125,-0.06103515625,0.0,0.0,0.0,-0.015049572102725506,-0.017002495005726814,0.13493575155735016,-0.990594208240509
2.959524631500244,-1.5094192994935736,2.1514148196792826,15.4873429524299,-0.03857421875,0.02734375,1.00439453125,-0.06103515625,-0.244140625,0.0,0.0,0.0,0.0,-0.015578724443912506,-0.016826245933771133,0.13495108485221863,-0.9905869364738464
2.9795925617218018,-1.5018670312622435,2.1225739190220807,15.491673292363688,-0.03662109375,0.0263671875,1.00439453125,0.3662109375,-0.54931640625,-0.06103515625,0.0,0.0,0.0,-0.0154802231118083,-0.016585223376750946,0.13498474657535553,-0.9905879497528076
2.999922037124634,-1.5031201575315292,2.163005223813971,15.494658085030984,-0.0380859375,0.0263671875,1.00439453125,-0.06103515625,-1.03759765625,-0.1220703125,0.0,0.0,0.0,-0.015538952313363552,-0.01693287119269371,0.13501444458961487,-0.9905771017074585
3.019873857498169,-1.4248258057973788,2.205406184407764,15.499085755160445,-0.03857421875,0.02490234375,1.00341796875,-0.42724609375,-0.9765625,-0.244140625,0.0,0.0,0.0,-0.014912592247128487,-0.01739109680056572,0.13504472374916077,-0.9905746579170227
3.039693593978882,-1.4021013395419233,2.2237689345479317,15.502972132798181,-0.0390625,0.0244140625,1.0029296875,0.06103515625,-0.244140625,-0.1220703125,0.0,0.0,0.0,-0.014738312922418118,-0.017576120793819427,0.1350763887166977,-0.9905697107315063
3.061981678009033,-1.4688945064874184,2.1580687045913445,15.504850434819936,-0.0380859375,0.02587890625,1.00390625,0.1220703125,-0.3662109375,-0.06103515625,0.0,0.0,0.0,-0.015238801948726177,-0.01692916639149189,0.13509704172611237,-0.9905705451965332
3.080105781555176,-1.4867125490412776,2.19098530719234,15.507232463292977,-0.0390625,0.02490234375,1.0048828125,-0.1220703125,-0.8544921875,0.0,0.0,0.0,0.0,-0.015431851148605347,-0.017192397266626358,0.13512322306632996,-0.990559458732605
3.100278854370117,-1.4443155371505987,2.1140637167596563,15.51229704856254,-0.037109375,0.025390625,1.005859375,-0.18310546875,-1.220703125,-0.30517578125,0.0,0.0,0.0,-0.014975710771977901,-0.016576748341321945,0.13515396416187286,-0.9905727505683899
3.119957685470581,-1.4792378674900508,2.1904762446557626,15.514066067557575,-0.03857421875,0.0263671875,1.0048828125,0.0,-0.6103515625,-0.244140625,0.0,0.0,0.0,-0.015367666259407997,-0.017195893451571465,0.13518112897872925,-0.9905524849891663
3.139765977859497,-1.5072804897880074,2.3013302148850694,15.51572751107318,-0.0400390625,0.0263671875,1.00146484375,0.0,-0.1220703125,-0.1220703125,0.0,0.0,0.0,-0.015740619972348213,-0.01812088117003441,0.13520973920822144,-0.9905263185501099
3.160508871078491,-1.516436144926998,2.234918364594331,15.519426058508742,-0.03955078125,0.02685546875,1.00537109375,-0.06103515625,-0.732421875,-0.06103515625,0.0,0.0,0.0,-0.015742268413305283,-0.017535464838147163,0.13523711264133453,-0.9905330538749695
3.1796696186065674,-1.5278474700393851,2.1108987778530017,15.523793964482966,-0.037109375,0.0263671875,1.00537109375,-0.06103515625,-0.91552734375,-0.244140625,0.0,0.0,0.0,-0.015695720911026,-0.01644928939640522,0.13526508212089539,-0.9905484914779663
3.1949830055236816,-1.5441381115401003,2.174944607926565,15.527133926987101,-0.0380859375,0.02685546875,1.00390625,0.06103515625,-0.79345703125,-0.42724609375,0.0,0.0,0.0,-0.015912355855107307,-0.01698324829339981,0.1353023201227188,-0.9905310869216919
3.2197251319885254,-1.4524181692186438,2.232822777179607,15.533139370814835,-0.0390625,0.025390625,1.0029296875,-0.1220703125,-0.48828125,-0.1220703125,0.0,0.0,0.0,-0.015188533812761307,-0.0175910796970129,0.13534565269947052,-0.9905259013175964
3.2406704425811768,-1.477623381524989,2.1115416694086293,15.534870823769435,-0.037109375,0.02587890625,1.00390625,-0.3662109375,-0.42724609375,-0.1220703125,0.0,0.0,0.0,-0.015263923443853855,-0.01651265285909176,0.135353684425354,-0.9905422329902649
3.2615737915039062,-1.5360852117869495,2.325830103437905,15.537351889985441,-0.0400390625,0.02685546875,1.00439453125,0.06103515625,-0.30517578125,-0.1220703125,0.0,0.0,0.0,-0.016021855175495148,-0.018295660614967346,0.13540346920490265,-0.9904921054840088
3.2812864780426025,-1.4289155950063355,2.1523593067754483,15.545553239631333,-0.03857421875,0.025390625,1.0048828125,0.18310546875,-0.48828125,-0.06103515625,0.0,0.0,0.0,-0.014892512001097202,-0.016921648755669594,0.13544248044490814,-0.9905288219451904
3.2996578216552734,-1.4083091277238187,2.2455651354065003,15.548030890752756,-0.03955078125,0.0244140625,1.00439453125,-0.18310546875,-0.91552734375,-0.18310546875,0.0,0.0,0.0,-0.014824559912085533,-0.017751405015587807,0.13546864688396454,-0.9905116558074951
3.320772886276245,-1.50684175685554,2.1030566534687694,15.547223220883401,-0.0361328125,0.02685546875,1.00439453125,-0.42724609375,-1.03759765625,-0.18310546875,0.0,0.0,0.0,-0.015508271753787994,-0.016403118148446083,0.1354638785123825,-0.9905251264572144
3.3395650386810303,-1.4879830709486057,2.147132291069685,15.550547815461906,-0.0380859375,0.02587890625,1.0029296875,0.0,-0.18310546875,-0.1220703125,0.0,0.0,0.0,-0.015397665090858936,-0.01680597849190235,0.13549388945102692,-0.9905160069465637
3.3595800399780273,-1.4243136483313337,2.2162651179710267,15.555778032818843,-0.03857421875,0.02490234375,1.00146484375,0.30517578125,-0.3662109375,0.0,0.0,0.0,0.0,-0.014929566532373428,-0.01747819222509861,0.1355356127023697,-0.9905058145523071
3.3802900314331055,-1.492769966339727,2.1892523601338607,15.55798589146805,-0.03857421875,0.0263671875,1.00439453125,0.0,-0.91552734375,-0.3662109375,0.0,0.0,0.0,-0.015489781275391579,-0.017163414508104324,0.1355626881122589,-0.9904990792274475
3.3996353149414062,-1.49759602859687,2.142883273075702,15.561260967175071,-0.03759765625,0.0263671875,1.0048828125,-0.6103515625,-1.03759765625,-0.30517578125,0.0,0.0,0.0,-0.015477319248020649,-0.016756433993577957,0.13558751344680786,-0.9905028343200684
3.4270737171173096,-1.3700745825237335,2.13634272661518,15.571548939612402,-0.03759765625,0.02392578125,1.00341796875,0.06103515625,-0.79345703125,-0.30517578125,0.0,0.0,0.0,-0.014368845149874687,-0.01684948056936264,0.1356571912765503,-0.9905083179473877
3.439875602722168,-1.4552161989008217,2.211904682516208,15.570983741458583,-0.0390625,0.025390625,1.00439453125,-0.06103515625,-0.244140625,-0.06103515625,0.0,0.0,0.0,-0.015193850733339787,-0.017401931807398796,0.13567137718200684,-0.9904845952987671
3.459420680999756,-1.5252119775151123,2.2106346942174087,15.572290015137348,-0.0390625,0.02685546875,1.00390625,-0.244140625,-0.54931640625,-0.06103515625,0.0,0.0,0.0,-0.015797562897205353,-0.01730789802968502,0.13569316267967224,-0.9904738068580627
3.47943115234375,-1.4075500162305952,2.316752355144135,15.580472581763024,-0.0400390625,0.02490234375,1.00146484375,-0.1220703125,-0.8544921875,-0.06103515625,0.0,0.0,0.0,-0.014907055534422398,-0.018363451585173607,0.13575483858585358,-0.9904600977897644
3.499553680419922,-1.5297401794914192,2.1635766118267252,15.578174223107315,-0.0380859375,0.02685546875,1.005859375,0.1220703125,-0.8544921875,-0.18310546875,0.0,0.0,0.0,-0.015782054513692856,-0.016894947737455368,0.13574032485485077,-0.9904747009277344
3.5195775032043457,-1.446524569738569,2.1881258058076316,15.584775600940132,-0.03857421875,0.02587890625,1.0068359375,-0.1220703125,-0.67138671875,-0.1220703125,0.0,0.0,0.0,-0.015092739835381508,-0.017204854637384415,0.1357872039079666,-0.990473747253418
3.5396900177001953,-1.5331744839834662,2.1688542136210294,15.583848402760303,-0.0380859375,0.02685546875,1.00341796875,-0.244140625,-0.6103515625,-0.06103515625,0.0,0.0,0.0,-0.015818806365132332,-0.016935717314481735,0.1357903778553009,-0.9904665350914001
3.5595765113830566,-1.5460529123852311,2.2220120818273577,15.585485940613813,-0.03955078125,0.02734375,1.00439453125,-0.1220703125,-0.48828125,0.0,0.0,0.0,0.0,-0.01599312387406826,-0.017379725351929665,0.13581141829490662,-0.9904531836509705
3.580246925354004,-1.4762227658583131,2.189354812971411,15.591587007089927,-0.03759765625,0.02587890625,1.00439453125,0.30517578125,-0.732421875,-0.1220703125,0.0,0.0,0.0,-0.015351910144090652,-0.017179375514388084,0.13585065305233002,-0.9904614686965942
3.5995593070983887,-1.4486329637579871,2.1977725942366284,15.595015762053274,-0.03857421875,0.025390625,1.00390625,-0.18310546875,-0.8544921875,-0.244140625,0.0,0.0,0.0,-0.015123900957405567,-0.017284393310546875,0.1358768790960312,-0.9904595017433167
3.6193645000457764,-1.581237031068965,2.141185330736719,15.59166384671809,-0.03759765625,0.02783203125,1.00390625,-0.48828125,-0.732421875,-0.18310546875,0.0,0.0,0.0,-0.01620270311832428,-0.016638487577438354,0.1358623504638672,-0.9904554486274719
3.6355972290039062,-1.43421848984491,2.166261089613952,15.602009875763367,-0.0380859375,0.02490234375,1.00244140625,-0.18310546875,-0.3662109375,-0.1220703125,0.0,0.0,0.0,-0.014963115565478802,-0.017028186470270157,0.13593244552612305,-0.9904588460922241
3.6617462635040283,-1.430837866370871,2.152784486051282,15.605597432624917,-0.03759765625,0.025390625,1.00537109375,0.3662109375,-0.30517578125,-0.1220703125,0.0,0.0,0.0,-0.0149184949696064,-0.01691523939371109,0.13596180081367493,-0.9904573559761047
3.680062770843506,-1.4120375572369994,2.1664892606209123,15.608128017712406,-0.03857421875,0.02490234375,1.00341796875,0.0,-0.9765625,-0.06103515625,0.0,0.0,0.0,-0.014772579073905945,-0.017055682837963104,0.13598206639289856,-0.9904543161392212
3.699875593185425,-1.4838691626341425,2.2324005861115355,15.608182659225767,-0.0390625,0.02587890625,1.001953125,-0.3662109375,-1.03759765625,-0.244140625,0.0,0.0,0.0,-0.015471390448510647,-0.017540156841278076,0.13599909842014313,-0.9904327988624573
3.7252237796783447,-1.4721500521222817,2.1734861490953556,15.611976829309707,-0.0380859375,0.02587890625,1.00439453125,-0.1220703125,-0.48828125,-0.18310546875,0.0,0.0,0.0,-0.015300995670258999,-0.0170443132519722,0.13602487742900848,-0.9904406666755676
3.734891176223755,-1.476345922706785,2.2289696967140733,15.614411791748818,-0.0390625,0.02587890625,1.0029296875,0.1220703125,-0.1220703125,0.0,0.0,0.0,0.0,-0.015403258614242077,-0.01751859113574028,0.1360514611005783,-0.9904271364212036
3.7598092555999756,-1.4621043379570737,2.1021535743944466,15.618639678845055,-0.03759765625,0.02587890625,1.00244140625,0.1220703125,-0.54931640625,-0.1220703125,0.0,0.0,0.0,-0.01513074804097414,-0.016438769176602364,0.13607469201087952,-0.9904466271400452
3.775271415710449,-1.4204544847285707,2.2222654391568826,15.622505565915283,-0.0390625,0.02490234375,1.00439453125,-0.3662109375,-1.03759765625,-0.1220703125,0.0,0.0,0.0,-0.014913489110767841,-0.017525944858789444,0.1361122876405716,-0.9904261231422424
3.799466371536255,-1.4118727789232728,2.029279724818642,15.627337924753066,-0.0361328125,0.0244140625,1.00537109375,-0.06103515625,-0.91552734375,-0.30517578125,0.0,0.0,0.0,-0.014611532911658287,-0.015867391601204872,0.13613642752170563,-0.9904553294181824
3.815478563308716,-1.4270815824924814,2.2320603573135043,15.628685179566851,-0.03857421875,0.02490234375,1.00341796875,0.244140625,-0.3662109375,-0.06103515625,0.0,0.0,0.0,-0.01498330943286419,-0.017601927742362022,0.1361675262451172,-0.9904161691665649
3.84061336517334,-1.4370313538441917,2.243959187177901,15.632248830766306,-0.03955078125,0.025390625,1.001953125,-0.244140625,-0.42724609375,-0.1220703125,0.0,0.0,0.0,-0.015083946287631989,-0.017692485824227333,0.1362008899450302,-0.9904083609580994
3.8619487285614014,-1.4742695451991013,2.2568607741898203,15.634970661150556,-0.03955078125,0.02587890625,1.00341796875,-0.244140625,-0.8544921875,-0.244140625,0.0,0.0,0.0,-0.015421492978930473,-0.017759371548891068,0.13623128831386566,-0.9903978109359741
3.87996506690979,-1.530957660710974,2.149358932739109,15.635761255546985,-0.0380859375,0.02685546875,1.00439453125,0.3662109375,-0.732421875,-0.1220703125,0.0,0.0,0.0,-0.01578422449529171,-0.01676267758011818,0.13623692095279694,-0.990408718585968
3.8998095989227295,-1.4224209388792997,2.1680102583717096,15.64325568061378,-0.0380859375,0.02490234375,1.00390625,0.1220703125,-0.79345703125,-0.18310546875,0.0,0.0,0.0,-0.014869353733956814,-0.017051951959729195,0.13628734648227692,-0.9904109835624695
3.919985771179199,-1.4338270346281037,2.114500848866537,15.644777105251402,-0.037109375,0.025390625,1.00537109375,-0.54931640625,-0.91552734375,-0.18310546875,0.0,0.0,0.0,-0.014904730021953583,-0.01657567359507084,0.13629759848117828,-0.9904171824455261
3.9408252239227295,-1.4362132252476711,2.1850923480424997,15.649245756515882,-0.03857421875,0.025390625,1.00244140625,-0.30517578125,-0.67138671875,-0.244140625,0.0,0.0,0.0,-0.015009702183306217,-0.01718241162598133,0.1363426297903061,-0.9903990626335144
3.954989194869995,-1.5000948106160368,2.2192667726678357,15.648637869679751,-0.0390625,0.0263671875,1.0068359375,0.244140625,-0.244140625,-0.06103515625,0.0,0.0,0.0,-0.01560224499553442,-0.017401866614818573,0.13635003566741943,-0.9903849959373474
3.9816040992736816,-1.4198501197087303,2.1965937462745666,15.65257205864168,-0.03857421875,0.02490234375,1.00537109375,0.0,-0.48828125,0.0,0.0,0.0,0.0,-0.01488241832703352,-0.017300859093666077,0.13636988401412964,-0.9903951287269592
3.9995248317718506,-1.47448106761996,2.13890063245935,15.652986992633757,-0.03759765625,0.02587890625,1.00390625,-0.42724609375,-1.03759765625,-0.18310546875,0.0,0.0,0.0,-0.015286226756870747,-0.01673712581396103,0.13637661933898926,-0.9903976917266846
4.019518852233887,-1.5338267670492025,2.146995900729696,15.653456568139195,-0.03759765625,0.02685546875,1.00341796875,-0.244140625,-0.79345703125,-0.18310546875,0.0,0.0,0.0,-0.01580880768597126,-0.01673639938235283,0.1363900601863861,-0.9903876781463623
4.0350563526153564,-1.42795339210701,2.1368133693376765,15.660548012044961,-0.037109375,0.02490234375,1.00341796875,0.244140625,-0.30517578125,-0.06103515625,0.0,0.0,0.0,-0.014882722869515419,-0.016773473471403122,0.13643495738506317,-0.9903952479362488
4.0665123462677,-1.5223441518373533,2.207317997045133,15.662093342344676,-0.03857421875,0.02685546875,1.00390625,-0.18310546875,-0.3662109375,-0.244140625,0.0,0.0,0.0,-0.015782400965690613,-0.01727025955915451,0.1364685744047165,-0.9903681874275208
4.079963445663452,-1.4688346356104751,2.2200588611681455,15.668532503184705,-0.03857421875,0.0263671875,1.0048828125,-0.1220703125,-1.0986328125,-0.244140625,0.0,0.0,0.0,-0.01533603947609663,-0.017443247139453888,0.13651730120182037,-0.9903653264045715
4.100631475448608,-1.3975642796640366,2.1433336386740995,15.676192560338876,-0.03857421875,0.02392578125,1.00439453125,0.1220703125,-0.8544921875,-0.18310546875,0.0,0.0,0.0,-0.01463011559098959,-0.01686401665210724,0.13656626641750336,-0.9903793334960938
4.119701862335205,-1.4729342432163637,2.2054727787521715,15.675275607442801,-0.03857421875,0.02587890625,1.001953125,-0.06103515625,-0.48828125,-0.244140625,0.0,0.0,0.0,-0.015355173498392105,-0.01731138862669468,0.1365748941898346,-0.9903594255447388
4.139599323272705,-1.5276892017497115,2.132931900898405,15.675077531956871,-0.03759765625,0.02685546875,1.005859375,-0.244140625,-0.3662109375,0.0,0.0,0.0,0.0,-0.015742218121886253,-0.01661917380988598,0.13657473027706146,-0.9903653264045715
4.160560131072998,-1.4293863444505375,2.1894967528401,15.68232094757167,-0.03857421875,0.02490234375,1.00341796875,-0.30517578125,-0.67138671875,-0.06103515625,0.0,0.0,0.0,-0.014960894361138344,-0.01722428761422634,0.13662785291671753,-0.9903596639633179
4.18010950088501,-1.5121588456809834,2.1520491734984475,15.685058145881552,-0.03759765625,0.0263671875,1.0048828125,0.18310546875,-0.54931640625,-0.1220703125,0.0,0.0,0.0,-0.015632163733243942,-0.016801556572318077,0.13666047155857086,-0.9903520941734314
4.199522495269775,-1.4338939491376286,2.133250145025045,15.692100070915835,-0.03759765625,0.0244140625,1.0029296875,0.0,-0.67138671875,-0.3662109375,0.0,0.0,0.0,-0.014934446662664413,-0.016731491312384605,0.13670822978019714,-0.9903574585914612
4.220768451690674,-1.4883895739259274,2.079721525612832,15.692503052076866,-0.0361328125,0.0263671875,1.00341796875,-0.30517578125,-1.03759765625,-0.244140625,0.0,0.0,0.0,-0.015341836959123611,-0.01620377227663994,0.13671478629112244,-0.9903591871261597
4.239752531051636,-1.4752416732170643,2.1578567552836625,15.694671637138345,-0.03857421875,0.02587890625,1.0048828125,-0.244140625,-0.48828125,-0.1220703125,0.0,0.0,0.0,-0.015321426093578339,-0.016894493252038956,0.1367386430501938,-0.9903446435928345
4.261862277984619,-1.4983295268807058,2.1924480348917803,15.69663873161931,-0.03857421875,0.025390625,1.00341796875,0.3662109375,-0.54931640625,-0.06103515625,0.0,0.0,0.0,-0.015562383458018303,-0.017165644094347954,0.13676217198371887,-0.9903329610824585
4.275970935821533,-1.468180751719152,2.1787564938136668,15.701208128174047,-0.03857421875,0.0263671875,1.005859375,0.244140625,-0.732421875,-0.244140625,0.0,0.0,0.0,-0.015286228619515896,-0.017082680016756058,0.13679595291614532,-0.9903340339660645
4.295524597167969,-1.3858890317732517,2.1498733313609755,15.706684232341104,-0.037109375,0.02490234375,1.00634765625,-0.42724609375,-1.03759765625,-0.244140625,0.0,0.0,0.0,-0.014541481621563435,-0.016930583864450455,0.13682860136032104,-0.9903433918952942
4.3208489418029785,-1.530564071060052,2.2757932047954497,15.704332939719327,-0.04052734375,0.02783203125,1.001953125,-0.30517578125,-0.67138671875,-0.18310546875,0.0,0.0,0.0,-0.015941264107823372,-0.01784643903374672,0.13684120774269104,-0.9903039336204529
4.340076208114624,-1.4795256959305434,2.250527054395103,15.711101657186811,-0.03759765625,0.025390625,1.005859375,0.0,-0.3662109375,-0.244140625,0.0,0.0,0.0,-0.015471173450350761,-0.017688104882836342,0.1368895024061203,-0.9903075695037842
4.359562873840332,-1.5392411860703186,2.262147980937645,15.712016902535591,-0.03955078125,0.02685546875,1.00537109375,-0.244140625,-0.48828125,-0.1220703125,0.0,0.0,0.0,-0.016001207754015923,-0.01771707274019718,0.1369076669216156,-0.9902961254119873
4.379473447799683,-1.4223775031450465,2.3223159711099335,15.718988818130883,-0.041015625,0.02490234375,1.0048828125,-0.244140625,-0.8544921875,-0.06103515625,0.0,0.0,0.0,-0.015064003877341747,-0.018375778570771217,0.13695481419563293,-0.9902923703193665
4.40032172203064,-1.5024711828386723,2.2436938770173285,15.719875035175692,-0.03857421875,0.02685546875,1.0048828125,0.06103515625,-0.9765625,-0.244140625,0.0,0.0,0.0,-0.01566268503665924,-0.017600437626242638,0.1369682401418686,-0.9902952313423157
4.420504331588745,-1.5011978861669937,2.119788909388008,15.721338403205367,-0.03759765625,0.0263671875,1.0048828125,0.0,-0.18310546875,-0.06103515625,0.0,0.0,0.0,-0.015504331327974796,-0.016530891880393028,0.13696947693824768,-0.9903160333633423
4.436530351638794,-1.4312641128637622,2.2026971606282078,15.728096875389095,-0.037109375,0.02587890625,1.00341796875,-0.18310546875,1.28173828125,-0.6103515625,0.0,0.0,0.0,-0.014999732375144958,-0.017330149188637733,0.1370248794555664,-0.9903023838996887
4.459965467453003,-1.4644156099391825,2.0191838514517166,15.777989699728746,-0.02880859375,0.0283203125,1.001953125,-0.244140625,1.8310546875,-4.0283203125,0.0,0.0,0.0,-0.01507437601685524,-0.015697896480560303,0.13744482398033142,-0.9902703166007996
4.48091983795166,-1.5351461674977787,2.170046295074608,15.879329216444225,-0.0712890625,0.025390625,1.00244140625,-0.1220703125,0.79345703125,-5.2490234375,0.0,0.0,0.0,-0.015880893915891647,-0.01690279133617878,0.13834430277347565,-0.9901126027107239
4.494993209838867,-1.4984804313726807,2.393388998622382,15.982080874770604,-0.0625,0.02001953125,1.0048828125,0.30517578125,0.06103515625,-5.0048828125,0.0,0.0,0.0,-0.015849648043513298,-0.01886272430419922,0.13924647867679596,-0.9899513125419617
4.519992351531982,-1.4223811316830433,2.3033308199816482,16.097855996296904,-0.013671875,0.0234375,1.00439453125,0.1220703125,1.3427734375,-6.04248046875,0.0,0.0,0.0,-0.015101557597517967,-0.018161864951252937,0.14022661745548248,-0.9898377656936646
4.53989315032959,-1.3118856396634562,2.1813082097989014,16.225269760168906,-0.01904296875,-0.00732421875,0.98095703125,-2.9296875,4.638671875,-6.34765625,0.0,0.0,0.0,-0.014017436653375626,-0.017227375879883766,0.14130046963691711,-0.9897176027297974
4.559484958648682,-0.909049406709155,2.3026046854955116,16.345149825386386,-0.0478515625,-0.2197265625,0.9482421875,-10.43701171875,1.8310546875,-6.53076171875,0.0,0.0,0.0,-0.010706905275583267,-0.01876051165163517,0.1422797292470932,-0.9895908832550049
4.57979154586792,-0.5727463132642125,2.4285655400650055,16.508053252185775,-0.04541015625,-0.28369140625,1.02783203125,-4.82177734375,6.16455078125,-9.033203125,0.0,0.0,0.0,-0.007987529039382935,-0.020254483446478844,0.1436329483985901,-0.989391565322876
4.600324392318726,-0.30238440070708555,2.5073684207272047,16.737895947945876,-0.0595703125,-0.33349609375,1.03515625,-2.01416015625,2.685546875,-11.41357421875,0.0,0.0,0.0,-0.005794507451355457,-0.021262135356664658,0.1455686390399933,-0.9891027212142944
4.619657039642334,-0.08122963887017659,2.6258299410314363,17.000707966829626,-0.06298828125,-0.33447265625,1.0419921875,-1.220703125,6.4697265625,-13.85498046875,0.0,0.0,0.0,-0.0040877400897443295,-0.022556226700544357,0.1477927267551422,-0.9887527227401733
4.63955545425415,0.12442123388103814,2.7275786287668815,17.33918652888607,-0.0576171875,-0.2919921875,1.009765625,-0.48828125,3.90625,-18.61572265625,0.0,0.0,0.0,-0.0025145052932202816,-0.02369203045964241,0.15066787600517273,-0.9882972836494446
4.659659147262573,0.33469026166632027,2.832951585630665,17.777519041513514,-0.05712890625,-0.228515625,0.92822265625,0.06103515625,4.39453125,-23.5595703125,0.0,0.0,0.0,-0.0009348184685222805,-0.024873828515410423,0.15439735352993011,-0.9876952767372131
4.6755897998809814,0.6172645791398566,2.9590345298315732,18.29394281446901,-0.1015625,-0.236328125,0.9541015625,-2.9296875,5.31005859375,-26.123046875,0.0,0.0,0.0,0.0012119397288188338,-0.02634689398109913,0.15877488255500793,-0.9869624972343445
4.69957423210144,0.8337448635624719,3.096686960712837,18.82022767303871,-0.14794921875,-0.24951171875,1.0673828125,0.3662109375,4.2724609375,-25.93994140625,0.0,0.0,0.0,0.0027574817650020123,-0.027845242992043495,0.1632421463727951,-0.9861891269683838
4.719500303268433,0.9986784573709416,3.188051626475747,19.389962780013445,-0.13623046875,-0.2373046875,1.0341796875,0.91552734375,0.244140625,-29.4189453125,0.0,0.0,0.0,0.0039028555620461702,-0.02888615056872368,0.1680925041437149,-0.9853402376174927
4.7393505573272705,1.1985356621793326,3.2591592318208686,20.024999618095382,-0.10107421875,-0.2490234375,0.93701171875,1.8310546875,0.54931640625,-33.8134765625,0.0,0.0,0.0,0.005351555533707142,-0.029820749536156654,0.17349028587341309,-0.9843695163726807
4.759466886520386,1.3832045539860252,3.283650582637242,20.75279554774797,-0.08447265625,-0.2900390625,0.99462890625,3.35693359375,0.732421875,-37.29248046875,0.0,0.0,0.0,0.0067080361768603325,-0.03035387396812439,0.17968671023845673,-0.9832326173782349
4.779613018035889,1.5231761542556255,3.307078985264032,21.514542640217396,-0.1435546875,-0.23193359375,0.98876953125,4.21142578125,-3.23486328125,-37.53662109375,0.0,0.0,0.0,0.007667406462132931,-0.03082597628235817,0.18617768585681915,-0.9820024967193604
4.8036720752716064,1.7031740504436754,3.3891992034287415,22.259627486206575,-0.16015625,-0.18017578125,0.9365234375,1.52587890625,-2.86865234375,-38.330078125,0.0,0.0,0.0,0.008868811652064323,-0.03188032656908035,0.19249556958675385,-0.9807397723197937
4.820137023925781,1.8817294960563835,3.442050780339477,23.071405714346348,-0.0595703125,-0.1787109375,1.11962890625,5.126953125,-2.38037109375,-43.8232421875,0.0,0.0,0.0,0.010076350532472134,-0.0327046699821949,0.1993781477212906,-0.9793249368667603
4.839895248413086,1.944155077192773,3.44148579562907,23.968404212760365,-0.0546875,-0.109375,1.05908203125,9.765625,3.662109375,-44.98291015625,0.0,0.0,0.0,0.010353698395192623,-0.03289050981402397,0.20702014863491058,-0.9777287840843201
4.859875917434692,1.7535954673920617,3.5061072825836184,24.91584536574222,-0.08740234375,0.02197265625,0.92919921875,7.14111328125,6.28662109375,-46.2646484375,0.0,0.0,0.0,0.008336552418768406,-0.0331675186753273,0.2151392251253128,-0.975984513759613
4.879602432250977,1.4731237809658315,3.60037968794225,25.879882170859915,-0.1103515625,0.06494140625,0.88720703125,5.55419921875,-1.5869140625,-48.828125,0.0,0.0,0.0,0.005488483235239983,-0.03349100053310394,0.22340698540210724,-0.9741342663764954
4.896116256713867,1.3829841736635866,3.6755049386232206,27.110000947926505,-0.1181640625,0.09716796875,0.986328125,-0.244140625,-3.2958984375,-51.1474609375,0.0,0.0,0.0,0.0042105019092559814,-0.034000929445028305,0.23386479914188385,-0.9716653823852539
4.919885635375977,1.3091710663551992,3.6858650549336605,27.861989407619276,-0.123046875,0.07080078125,1.02490234375,-1.28173828125,-3.84521484375,-51.45263671875,0.0,0.0,0.0,0.0033406135626137257,-0.03396076709032059,0.24025627970695496,-0.9701095223426819
4.939398527145386,1.1909478556199773,3.775984278390101,28.86974454606693,-0.1181640625,0.0185546875,1.0439453125,4.94384765625,-2.99072265625,-50.1708984375,0.0,0.0,0.0,0.001847004285082221,-0.03449324890971184,0.24879896640777588,-0.9679390788078308
4.959456920623779,0.9792557472489525,3.937177169689225,29.838876672305457,-0.1181640625,0.02001953125,1.04541015625,7.8125,0.42724609375,-47.8515625,0.0,0.0,0.0,-0.000591296935454011,-0.0353911817073822,0.2570156157016754,-0.9657588005065918
4.979871034622192,0.8480274828080562,4.011419618419971,30.771340927984767,-0.14892578125,0.08203125,0.91943359375,-2.685546875,-2.5634765625,-46.2646484375,0.0,0.0,0.0,-0.002154747024178505,-0.035706087946891785,0.2648954391479492,-0.9636135101318359
4.999919176101685,0.8188388828334182,4.104821174659426,31.65546451981331,-0.1318359375,0.05810546875,0.98486328125,-2.5634765625,-2.3193359375,-44.921875,0.0,0.0,0.0,-0.002897453960031271,-0.03640264272689819,0.2723177969455719,-0.9615142345428467
5.019849061965942,0.7413636201911405,4.185339286576944,32.55093305585325,-0.06884765625,0.02734375,1.0068359375,-2.685546875,1.89208984375,-46.630859375,0.0,0.0,0.0,-0.004027397837489843,-0.03686368837952614,0.27983617782592773,-0.9593312740325928
5.039515495300293,0.5779463817392666,4.22530827293939,33.445998610732154,-0.095703125,0.00439453125,1.02685546875,4.82177734375,-4.5166015625,-44.37255859375,0.0,0.0,0.0,-0.005780491512268782,-0.03675512224435806,0.28736767172813416,-0.9570974111557007
5.060126304626465,0.41592818480890814,4.234908103817843,34.2709249530242,-0.0830078125,0.02880859375,0.9658203125,0.732421875,-6.2255859375,-39.48974609375,0.0,0.0,0.0,-0.0074198623187839985,-0.03637648746371269,0.2943005859851837,-0.9549915194511414
5.079783201217651,0.4001475129792697,4.101020601273137,34.99661889195971,-0.00048828125,0.03857421875,1.017578125,-5.0048828125,1.40380859375,-35.0341796875,0.0,0.0,0.0,-0.00743011524900794,-0.035173870623111725,0.30036410689353943,-0.9531469345092773
5.101884365081787,0.3706051305499663,3.897597504109471,35.60712510563755,-0.02392578125,-0.00048828125,1.18359375,4.33349609375,-4.08935546875,-27.9541015625,0.0,0.0,0.0,-0.007320081815123558,-0.03336595371365547,0.3054713308811188,-0.9515883922576904
5.11953330039978,0.24405781352677655,3.5485131523758775,36.05198898665882,-0.04833984375,0.0048828125,1.01513671875,6.65283203125,-10.43701171875,-18.98193359375,0.0,0.0,0.0,-0.00755672249943018,-0.030100634321570396,0.30923667550086975,-0.9504786729812622
5.1395814418792725,-0.01717090380784698,3.2546888730090955,36.31760479819686,-0.029296875,0.03125,0.92822265625,5.2490234375,-5.43212890625,-10.8642578125,0.0,0.0,0.0,-0.00899282842874527,-0.026937659829854965,0.31153011322021484,-0.9498118758201599
5.159720182418823,-0.22282862509102488,3.0835689420815924,36.48037845140202,0.01318359375,0.05859375,0.9794921875,0.8544921875,1.15966796875,-7.8125,0.0,0.0,0.0,-0.010267751291394234,-0.024945542216300964,0.3129369616508484,-0.9493907690048218
5.179723501205444,-0.33070983552536315,3.050174866568931,36.6064295925346,-0.0478515625,0.0654296875,0.96337890625,-4.57763671875,0.3662109375,-6.53076171875,0.0,0.0,0.0,-0.011097188107669353,-0.024362046271562576,0.31400609016418457,-0.9490435123443604
5.199426889419556,-0.3977346152528305,3.1392085168341626,36.70396810897697,-0.08837890625,0.0107421875,1.04736328125,0.79345703125,-4.39453125,-5.0048828125,0.0,0.0,0.0,-0.011917328462004662,-0.024905649945139885,0.3148239254951477,-0.9487484693527222
5.2212300300598145,-0.5336083688246875,3.1222997432135613,36.81599004155435,-0.0458984375,0.01953125,1.00927734375,4.45556640625,-3.72314453125,-6.4697265625,0.0,0.0,0.0,-0.013019690290093422,-0.02437962032854557,0.3157811760902405,-0.9484294056892395
5.239455699920654,-0.47854183627131086,2.9351572557102665,36.961992165252546,-0.03857421875,-0.02783203125,0.8974609375,-7.01904296875,-0.732421875,-6.65283203125,0.0,0.0,0.0,-0.012077839113771915,-0.022966928780078888,0.31698477268218994,-0.9480756521224976
5.260814905166626,-0.08998284645666527,3.0081062373669414,37.080851117189106,-0.10595703125,-0.193359375,1.0439453125,0.1220703125,5.2490234375,-0.48828125,0.0,0.0,0.0,-0.009090300649404526,-0.024635788053274155,0.31788355112075806,-0.9477660059928894
5.282426357269287,-0.15795031235151338,2.9535492475978185,37.15292327331108,-0.03076171875,0.05810546875,1.13818359375,12.451171875,0.732421875,-2.86865234375,0.0,0.0,0.0,-0.009516214020550251,-0.02399001270532608,0.3184974491596222,-0.9475724101066589
5.299635410308838,-0.3847655000815779,2.9377954162771838,37.22081193856642,-0.00146484375,0.1376953125,1.0224609375,5.2490234375,0.54931640625,-6.9580078125,0.0,0.0,0.0,-0.011361749842762947,-0.023222552612423897,0.3191063404083252,-0.9473662376403809
5.320180892944336,-0.5362187283872488,2.893272614729044,37.322421247754114,-0.06787109375,0.13916015625,0.89501953125,-4.57763671875,-4.45556640625,-5.4931640625,0.0,0.0,0.0,-0.012509833090007305,-0.02242158353328705,0.31997811794281006,-0.9470769166946411
5.336462497711182,-0.6733389914826332,2.887231739294991,37.4167666507595,-0.064453125,0.0791015625,0.9931640625,-2.50244140625,-0.8544921875,-4.33349609375,0.0,0.0,0.0,-0.013644338585436344,-0.02197752334177494,0.32078444957733154,-0.9467989206314087
5.35975193977356,-0.960622350862923,2.8918318717009948,37.479546334515675,-0.064453125,0.0498046875,1.0263671875,6.34765625,-3.5400390625,-2.86865234375,0.0,0.0,0.0,-0.016042420640587807,-0.021202469244599342,0.32135719060897827,-0.9465847015380859
5.380502700805664,-1.2464013077176648,2.8757463493187916,37.52019279026642,-0.072265625,0.1044921875,0.91845703125,1.28173828125,-5.18798828125,-2.38037109375,0.0,0.0,0.0,-0.01836518943309784,-0.02026156708598137,0.321744441986084,-0.9464316368103027
5.3990092277526855,-1.4389479689583207,2.8148065477702913,37.56231798197248,-0.05029296875,0.10986328125,1.06494140625,-1.64794921875,-1.28173828125,-2.8076171875,0.0,0.0,0.0,-0.01979169435799122,-0.01921023614704609,0.32212385535240173,-0.9462957382202148
5.42482852935791,-1.559168156252125,2.7391357357293664,37.59632890894455,-0.01904296875,0.09423828125,1.0869140625,0.06103515625,-1.0986328125,-2.8076171875,0.0,0.0,0.0,-0.020577559247612953,-0.01824115216732025,0.3224213123321533,-0.9461968541145325
5.439634561538696,-1.6801999621183972,2.662405390593443,37.63122776050873,-0.04541015625,0.10546875,0.94482421875,-6.53076171875,-0.9765625,-1.40380859375,0.0,0.0,0.0,-0.021366717293858528,-0.01726038008928299,0.3227243721485138,-0.9460943937301636
5.459479093551636,-1.866830292155647,2.62724933971833,37.644389535039345,-0.03369140625,0.083984375,1.017578125,2.44140625,0.48828125,-1.0986328125,0.0,0.0,0.0,-0.022810639813542366,-0.01644180901348591,0.3228582739830017,-0.946029543876648
5.476266860961914,-2.196100265107033,2.512882731264932,37.655748139629075,-0.03466796875,0.09130859375,1.0087890625,4.21142578125,-2.62451171875,-0.91552734375,0.0,0.0,0.0,-0.02520887367427349,-0.01456714328378439,0.32298704981803894,-0.9459555149078369
5.497115135192871,-2.312405793511068,2.4793597359316863,37.66176895138244,-0.04541015625,0.134765625,0.8916015625,-6.2255859375,-3.173828125,-0.8544921875,0.0,0.0,0.0,-0.0260754507035017,-0.013961137272417545,0.3230478763580322,-0.9459203481674194
5.515556573867798,-2.383937297471554,2.422975670559585,37.69085189686836,-0.01123046875,0.10986328125,1.03515625,-4.21142578125,2.38037109375,-2.197265625,0.0,0.0,0.0,-0.026510749012231827,-0.013287180103361607,0.32329028844833374,-0.9458351135253906
5.536005973815918,-2.526147812406743,2.3397771362796598,37.75649684498135,0.01025390625,0.0908203125,1.20849609375,4.33349609375,1.953125,-3.96728515625,0.0,0.0,0.0,-0.02745741233229637,-0.012183316983282566,0.3238380253314972,-0.9456355571746826
5.559556484222412,-2.75530599514596,2.2470195388128897,37.84607477594607,-0.0322265625,0.10791015625,1.01708984375,3.84521484375,-2.86865234375,-4.45556640625,0.0,0.0,0.0,-0.029095418751239777,-0.010747277177870274,0.3245876431465149,-0.945347011089325
5.579674482345581,-2.9414062384705932,2.2267757118866185,37.92238847954262,-0.05126953125,0.10498046875,0.8876953125,-0.54931640625,-2.685546875,-3.72314453125,0.0,0.0,0.0,-0.03058016486465931,-0.010032703168690205,0.32523098587989807,-0.9450867176055908
5.602980613708496,-3.152513511893936,2.2354833493047384,37.99668044714485,-0.041015625,0.08056640625,0.95751953125,2.01416015625,-1.0986328125,-3.84521484375,0.0,0.0,0.0,-0.03235200047492981,-0.009484391659498215,0.3258630335330963,-0.9448156952857971
5.620216131210327,-3.416937241978398,2.174419750577532,38.07886811342761,-0.0234375,0.09521484375,1.0439453125,2.685546875,1.15966796875,-5.0048828125,0.0,0.0,0.0,-0.03436492010951042,-0.008204149082303047,0.32654985785484314,-0.9445194602012634
5.639389276504517,-3.6193539534565455,2.178873674246615,38.1559707038733,-0.046875,0.12158203125,1.03515625,-0.67138671875,-0.67138671875,-3.662109375,0.0,0.0,0.0,-0.036051083356142044,-0.00763977924361825,0.32720017433166504,-0.9442362189292908
5.660962343215942,-3.758764517718853,2.253424762150481,38.20649702825847,-0.060546875,0.103515625,1.033203125,-1.52587890625,-0.18310546875,-2.50244140625,0.0,0.0,0.0,-0.037415359169244766,-0.0078397486358881,0.3276415169239044,-0.9440284967422485
5.6794939041137695,-3.843690236085145,2.4070884371067236,38.251494314510516,-0.05908203125,0.06201171875,1.00634765625,1.89208984375,0.48828125,-2.3193359375,0.0,0.0,0.0,-0.03855612501502037,-0.008848230354487896,0.32805147767066956,-0.9438312649726868
5.699744939804077,-3.5820726465325,2.4825844389935785,38.293807336418745,-0.0615234375,-0.1142578125,0.89990234375,-3.5400390625,5.06591796875,-0.18310546875,0.0,0.0,0.0,-0.03662027418613434,-0.01020580343902111,0.32839375734329224,-0.9437756538391113
5.71527886390686,-3.301324764331708,2.611793475400237,38.4165629112768,-0.04296875,-0.1689453125,1.00439453125,-3.47900390625,14.46533203125,-7.568359375,0.0,0.0,0.0,-0.03468974679708481,-0.012037894688546658,0.3294011056423187,-0.9434759020805359
5.739532947540283,-3.1605283119981227,2.8111361748650556,38.732295235849804,-0.154296875,-0.083984375,1.009765625,3.60107421875,7.2021484375,-16.7236328125,0.0,0.0,0.0,-0.034140050411224365,-0.013990640640258789,0.33201608061790466,-0.9425519704818726
5.759702205657959,-3.0161208240277166,3.0698961840236962,39.12436516968147,-0.12890625,-0.06689453125,0.97021484375,1.5869140625,6.28662109375,-19.71435546875,0.0,0.0,0.0,-0.03375546634197235,-0.016423041000962257,0.3352578580379486,-0.9413783550262451
5.779678106307983,-2.71998516595712,3.2592994641422655,39.66337296312761,-0.056640625,-0.04296875,1.05615234375,-3.5400390625,7.080078125,-29.9072265625,0.0,0.0,0.0,-0.03196291625499725,-0.018696026876568794,0.3396604061126709,-0.9398189187049866
5.799623250961304,-2.4553795820860063,3.4308678396774623,40.372582240501295,-0.0927734375,-0.06103515625,1.06005859375,-0.42724609375,5.0048828125,-37.90283203125,0.0,0.0,0.0,-0.030428098514676094,-0.020700186491012573,0.3454417586326599,-0.937718391418457
5.819977283477783,-2.2372598388191762,3.6139576771254123,41.19572931851455,-0.13671875,-0.0576171875,0.9638671875,-1.77001953125,1.220703125,-43.0908203125,0.0,0.0,0.0,-0.029356658458709717,-0.02264634519815445,0.35214105248451233,-0.935212254524231
5.838695526123047,-2.05260951658929,3.7414469999651083,42.076509532744375,-0.140625,-0.07177734375,0.978515625,3.5400390625,-1.3427734375,-42.48046875,0.0,0.0,0.0,-0.02842576801776886,-0.024036923423409462,0.3592880070209503,-0.9324840307235718
5.8560967445373535,-1.890224543836587,3.8485879086068673,42.902443327939,-0.1240234375,-0.08935546875,0.9794921875,3.60107421875,-1.15966796875,-39.794921875,0.0,0.0,0.0,-0.02762177400290966,-0.02521985024213791,0.3659685254096985,-0.929875373840332
5.875775337219238,-1.6659145147476098,3.8850692296243747,43.66937453398847,-0.1337890625,-0.0439453125,0.9619140625,-2.38037109375,-5.79833984375,-35.888671875,0.0,0.0,0.0,-0.026092706248164177,-0.026058292016386986,0.372134268283844,-0.9274460673332214
5.900004625320435,-1.379275167500858,3.885836345245532,44.37908583026615,-0.06201171875,-0.06787109375,0.98828125,-1.220703125,-2.13623046875,-32.89794921875,0.0,0.0,0.0,-0.02394193597137928,-0.026847509667277336,0.3778052031993866,-0.925186038017273
5.922044992446899,-0.9774978273113205,3.823180885554889,45.11853577019007,-0.07421875,-0.17529296875,0.93994140625,-4.82177734375,-0.42724609375,-22.64404296875,0.0,0.0,0.0,-0.02066979929804802,-0.02753314934670925,0.3836742043495178,-0.9228265881538391
5.940969467163086,-0.7172969684029246,3.7061865752617407,45.45677698317286,-0.0380859375,-0.154296875,1.060546875,1.8310546875,-5.43212890625,-13.0615234375,0.0,0.0,0.0,-0.01826401799917221,-0.027408093214035034,0.3863401710987091,-0.9217681288719177
5.959582328796387,-0.625620408454868,3.609982507028465,45.61668195692661,0.0849609375,-0.10107421875,1.06640625,0.18310546875,-0.06103515625,-9.33837890625,0.0,0.0,0.0,-0.017240088433027267,-0.026919139549136162,0.38761016726493835,-0.9212689995765686
5.979833126068115,-0.4872123878966718,3.3776660021283518,45.717451152846394,-0.037109375,-0.05126953125,0.9814453125,0.1220703125,-9.033203125,-2.25830078125,0.0,0.0,0.0,-0.015364483930170536,-0.025505753234028816,0.3884034752845764,-0.9210082292556763
5.999519348144531,-0.3347451966643713,3.219459184156993,45.74092309792914,0.0400390625,-0.05078125,1.06884765625,2.9296875,5.126953125,-0.48828125,0.0,0.0,0.0,-0.013608128763735294,-0.024748021736741066,0.38856953382492065,-0.920986533164978
6.019547700881958,-0.3442048485822803,3.1559416265270475,45.77791198737935,0.02685546875,-0.01953125,1.08447265625,2.86865234375,5.4931640625,-1.03759765625,0.0,0.0,0.0,-0.013476671651005745,-0.024201057851314545,0.3888733386993408,-0.9208747148513794
6.041085958480835,-0.2694074203010442,3.1118843450595266,45.82150225466237,-0.06689453125,0.0009765625,0.9287109375,-4.0283203125,-0.244140625,-0.8544921875,0.0,0.0,0.0,-0.012735291384160519,-0.024095965549349785,0.389210969209671,-0.9207454323768616
6.059588432312012,-0.122208012466116,3.011515355536424,45.89906588287703,-0.01220703125,-0.04052734375,1.0087890625,3.47900390625,0.8544921875,-3.5400390625,0.0,0.0,0.0,-0.011227796785533428,-0.023781802505254745,0.38981112837791443,-0.9205192923545837
6.076713562011719,-0.008913265966024393,2.8448476407307117,46.03985998733309,-0.03125,-0.00048828125,0.9775390625,-0.67138671875,4.69970703125,-5.2490234375,0.0,0.0,0.0,-0.009778798557817936,-0.022816302254796028,0.39093253016471863,-0.9200845956802368
6.100023508071899,-0.03409611423866523,2.8022661070107366,46.12204765361585,-0.03662109375,0.0126953125,0.98681640625,-6.7138671875,4.45556640625,-5.615234375,0.0,0.0,0.0,-0.009851787239313126,-0.022381428629159927,0.3916008472442627,-0.9198102951049805
6.121997594833374,0.11712627168234717,2.968543006929877,46.218547981304376,-0.1005859375,-0.0625,1.01953125,6.591796875,-3.11279296875,-2.62451171875,0.0,0.0,0.0,-0.009226585738360882,-0.024225076660513878,0.39232972264289856,-0.919459342956543
6.139796495437622,0.1749186500241539,3.0267148743172294,46.25737077654673,-0.06884765625,-0.029296875,0.91162109375,3.84521484375,-2.0751953125,-1.89208984375,0.0,0.0,0.0,-0.00897049531340599,-0.024886643514037132,0.39262300729751587,-0.9193190336227417
6.159707307815552,0.10694311997041268,3.0411767326676737,46.30892845949657,0.01171875,0.04541015625,1.0,-3.96728515625,8.48388671875,-3.23486328125,0.0,0.0,0.0,-0.009576535783708096,-0.02476544864475727,0.3930498957633972,-0.919133722782135
6.174699544906616,0.045204619845950915,2.9816505668339546,46.37236042631848,-0.05712890625,0.01318359375,1.14306640625,-1.40380859375,0.0,-3.41796875,0.0,0.0,0.0,-0.00988086685538292,-0.02407076209783554,0.3935774266719818,-0.9189231991767883
6.2029337882995605,0.04705760547806108,3.1214466098975446,46.41204724049084,-0.0751953125,-0.0078125,0.99169921875,2.685546875,-0.67138671875,-1.3427734375,0.0,0.0,0.0,-0.010354897007346153,-0.025194553658366203,0.39388206601142883,-0.9187572598457336
6.219852685928345,0.020764030208416648,3.266879906903922,46.42789327936527,-0.10546875,0.0087890625,0.83984375,0.30517578125,-8.056640625,0.244140625,0.0,0.0,0.0,-0.011069243773818016,-0.026268649846315384,0.39400070905685425,-0.9186680912971497
6.2405290603637695,0.0061196614827013175,3.2439119017158733,46.44743786567526,-0.056640625,0.0224609375,0.8994140625,-4.57763671875,-2.5634765625,-1.220703125,0.0,0.0,0.0,-0.011112116277217865,-0.02603227272629738,0.39416301250457764,-0.9186045527458191
6.254703998565674,0.060184105149861576,3.043484696276903,46.51619054986061,-0.00732421875,-0.0009765625,1.04150390625,-2.685546875,-3.5400390625,-3.2958984375,0.0,0.0,0.0,-0.010004024021327496,-0.024605518206954002,0.39472153782844543,-0.9184167981147766
6.279796361923218,0.07608523243479422,2.757781725276678,46.58660297001427,-0.00244140625,-0.00146484375,1.08544921875,0.6103515625,1.03759765625,-3.2958984375,0.0,0.0,0.0,-0.008906091563403606,-0.022364957258105278,0.39530885219573975,-0.9182328581809998
6.294738292694092,0.037438824826725337,2.6805564048693404,46.64784586120719,0.0009765625,0.02978515625,1.00927734375,-2.44140625,0.42724609375,-2.5634765625,0.0,0.0,0.0,-0.008960896171629429,-0.021608037874102592,0.39581361413002014,-0.9180328845977783
6.315567493438721,-0.058717115252296385,2.5786194600448966,46.676863919895986,-0.078125,0.03125,1.01611328125,-1.03759765625,-10.43701171875,-1.5869140625,0.0,0.0,0.0,-0.009384308010339737,-0.020456857979297638,0.3960717022418976,-0.9179437756538391
6.339768648147583,-0.17614377518588528,2.4667507798370196,46.77156107764363,0.06787109375,0.02783203125,1.14599609375,4.638671875,4.82177734375,-6.16455078125,0.0,0.0,0.0,-0.009954160079360008,-0.019146598875522614,0.3968580365180969,-0.9176263213157654
6.355385780334473,-0.35042498980161985,2.3540357965022958,46.907939464801274,-0.05419921875,0.056640625,0.9736328125,-0.732421875,-4.33349609375,-6.8359375,0.0,0.0,0.0,-0.01098046824336052,-0.017627298831939697,0.39798393845558167,-0.9171573519706726
6.383277654647827,-0.48046992396881144,2.361006431437117,47.03644605894048,-0.02294921875,0.04150390625,0.95849609375,-1.77001953125,1.8310546875,-7.01904296875,0.0,0.0,0.0,-0.01206482294946909,-0.017217911779880524,0.39903172850608826,-0.9166960716247559
6.400188684463501,-0.5655736007794943,2.13569129732309,47.183161937406936,-0.0390625,0.009765625,1.025390625,3.7841796875,-2.3193359375,-7.62939453125,0.0,0.0,0.0,-0.011980690062046051,-0.015103606507182121,0.4002242684364319,-0.9162144660949707
6.419915437698364,-0.7578720273325027,2.214315952736634,47.33254841983887,-0.03125,0.04541015625,0.978515625,-1.28173828125,4.0283203125,-8.056640625,0.0,0.0,0.0,-0.013812280260026455,-0.01504265982657671,0.4014420807361603,-0.9156566858291626
6.44001841545105,-0.873230987567109,2.32361285327859,47.45787214582485,-0.07568359375,0.0322265625,1.00634765625,-3.35693359375,-0.79345703125,-6.16455078125,0.0,0.0,0.0,-0.015133658424019814,-0.01549542136490345,0.40245717763900757,-0.9151825904846191
6.46130108833313,-0.8287390819527931,2.469829914492226,47.55952585124215,-0.08837890625,-0.01708984375,0.96337890625,4.94384765625,-2.01416015625,-4.5166015625,0.0,0.0,0.0,-0.015306406654417515,-0.016806013882160187,0.4032605290412903,-0.9148028492927551
6.480319023132324,-0.9232206618547564,2.561881654596957,47.65891876404418,-0.0302734375,0.04150390625,0.9658203125,-0.1220703125,2.685546875,-6.04248046875,0.0,0.0,0.0,-0.01639927364885807,-0.01719425804913044,0.4040663540363312,-0.914421021938324
6.503820180892944,-1.0726879326179668,2.5236767780310796,47.780680546377994,-0.02294921875,0.0546875,1.1015625,-0.91552734375,2.9296875,-7.26318359375,0.0,0.0,0.0,-0.017474761232733727,-0.016343722119927406,0.40505996346473694,-0.9139770865440369
6.519699811935425,-1.179921368978638,2.5741108948624536,47.89345721485866,-0.08349609375,0.02685546875,1.07275390625,0.79345703125,-5.43212890625,-6.16455078125,0.0,0.0,0.0,-0.018524236977100372,-0.01634877361357212,0.40597453713417053,-0.9135504364967346
6.5403032302856445,-1.1761004117465448,2.6411060859969933,48.00034284518019,-0.04541015625,0.02001953125,0.9052734375,-0.54931640625,0.48828125,-4.638671875,0.0,0.0,0.0,-0.01874662935733795,-0.016879040747880936,0.406825989484787,-0.9131573438644409
6.562682390213013,-1.171469650210982,2.7088406451091864,48.07088503892808,-0.11279296875,0.0302734375,0.8466796875,-4.69970703125,-9.94873046875,-4.0283203125,0.0,0.0,0.0,-0.018960673362016678,-0.017423687502741814,0.40738728642463684,-0.9128924012184143
6.580172061920166,-1.094142944183152,2.7655623779583802,48.14348311961615,-0.04296875,0.0146484375,0.97705078125,-3.35693359375,-0.1220703125,-4.33349609375,0.0,0.0,0.0,-0.018557583913207054,-0.01813880354166031,0.4079532325267792,-0.9126339554786682
6.600999116897583,-0.9172001702665075,2.7313493200755516,48.248080636565724,-0.0576171875,0.0107421875,1.080078125,0.06103515625,-5.18798828125,-3.90625,0.0,0.0,0.0,-0.01704353466629982,-0.01848062127828598,0.40875834226608276,-0.9122964143753052
6.620734453201294,-0.9293740219667032,2.6488188636738186,48.30247626311571,0.02197265625,0.02685546875,1.05029296875,0.06103515625,7.62939453125,-3.90625,0.0,0.0,0.0,-0.016854748129844666,-0.01777203381061554,0.4091948866844177,-0.9121181964874268
6.639490365982056,-0.9184889415855242,2.5946373208656346,48.33963249220057,-0.12255859375,-0.00390625,0.95849609375,-7.01904296875,-12.0849609375,-0.732421875,0.0,0.0,0.0,-0.01658041961491108,-0.017374182119965553,0.40948987007141113,-0.9119985699653625
6.6594390869140625,-0.7179004262882658,2.4799721050794603,48.37335655122751,0.0439453125,-0.0654296875,1.18505859375,5.06591796875,0.54931640625,-3.173828125,0.0,0.0,0.0,-0.014579560607671738,-0.017173923552036285,0.4097306430339813,-0.9119283556938171
6.679733037948608,-0.8080945150213122,2.340579683507136,48.4612098594268,-0.0146484375,-0.013671875,1.04638671875,8.23974609375,-2.62451171875,-4.69970703125,0.0,0.0,0.0,-0.01481129601597786,-0.01573062874376774,0.4104457199573517,-0.9116290211677551
6.699667930603027,-0.8371230857981309,2.4620225813840784,48.52657135468924,-0.06298828125,0.03466796875,0.853515625,-3.7841796875,0.54931640625,-2.685546875,0.0,0.0,0.0,-0.015486384741961956,-0.01658407412469387,0.41096752882003784,-0.9113675951957703
6.719832420349121,-0.68379393002866,2.470533210533326,48.58339511348916,-0.04296875,-0.02880859375,1.03564453125,3.0517578125,-3.60107421875,-2.01416015625,0.0,0.0,0.0,-0.014305946417152882,-0.017194556072354317,0.4113965928554535,-0.9111820459365845
6.739535570144653,-0.6125331790357418,2.3098892956887416,48.654627156343224,-0.00439453125,-0.021484375,1.02685546875,6.2255859375,-2.44140625,-4.69970703125,0.0,0.0,0.0,-0.013172929175198078,-0.016164671629667282,0.41195738315582275,-0.9109644889831543
6.759837627410889,-0.4588677965322065,2.1710114861816954,48.74907501218616,-0.05419921875,-0.04150390625,0.92724609375,-8.30078125,0.48828125,-2.197265625,0.0,0.0,0.0,-0.011465124785900116,-0.015603494830429554,0.4126914143562317,-0.9106650352478027
6.780661582946777,-0.1824451316233245,2.2113053334165396,48.761946503677045,-0.10498046875,-0.17578125,0.9140625,-7.26318359375,-2.9296875,-0.3662109375,0.0,0.0,0.0,-0.009415327571332455,-0.016918137669563293,0.41275253891944885,-0.9106374382972717
6.80333137512207,0.08602472515221643,2.2048505912074656,48.80865133722159,0.00927734375,-0.2392578125,1.08447265625,-0.91552734375,2.01416015625,-1.953125,0.0,0.0,0.0,-0.0072658429853618145,-0.017830846831202507,0.41308340430259705,-0.9104897379875183
6.819701433181763,0.25443036291594007,2.228067471413397,48.82702454608893,-0.06689453125,-0.22265625,1.03125,-2.99072265625,-1.89208984375,-0.3662109375,0.0,0.0,0.0,-0.006014455109834671,-0.018621403723955154,0.413200706243515,-0.9104297757148743
6.840357065200806,0.5673021188871835,2.1569771549846117,48.85167128370892,-0.08544921875,-0.2333984375,0.9384765625,-7.26318359375,-6.40869140625,-0.732421875,0.0,0.0,0.0,-0.003276380244642496,-0.01918402500450611,0.4133518636226654,-0.9103633761405945
6.861520290374756,1.0188951769839447,2.101922415179724,48.85934841633601,-0.01708984375,-0.24658203125,0.86328125,-8.85009765625,-3.90625,0.0,0.0,0.0,0.0,0.0005086177261546254,-0.020375562831759453,0.41334161162376404,-0.9103479385375977
6.879724025726318,1.3143082223846951,1.932144402980717,48.860963756074725,-0.04345703125,-0.25341796875,0.88232421875,-8.4228515625,-10.7421875,2.13623046875,0.0,0.0,0.0,0.003468064358457923,-0.020092599093914032,0.41332679986953735,-0.910354495048523
6.899489402770996,1.6545222928205574,1.6623969673250532,48.67849525239783,-0.02880859375,-0.3466796875,1.044921875,-3.90625,-22.3388671875,14.95361328125,0.0,0.0,0.0,0.007175195962190628,-0.019165731966495514,0.4118614196777344,-0.9110166430473328
6.919599294662476,1.8100754755776607,1.4004213264495118,48.155924309189324,0.0966796875,-0.3662109375,1.1845703125,2.9296875,-8.85009765625,30.6396484375,0.0,0.0,0.0,0.009434669278562069,-0.017599625512957573,0.40772175788879395,-0.9128878116607666
6.940618991851807,1.8887872159031223,1.0754557600574086,47.09287708186313,0.08740234375,-0.30224609375,1.07275390625,2.38037109375,-10.498046875,50.59814453125,0.0,0.0,0.0,0.011360296979546547,-0.015186541713774204,0.39927855134010315,-0.9166335463523865
6.959732532501221,1.9703294293093196,0.9932168673558701,46.17384780828123,0.09033203125,-0.25927734375,0.9892578125,-1.46484375,-4.150390625,64.63623046875,0.0,0.0,0.0,0.012417716905474663,-0.014713800512254238,0.3919174075126648,-0.9197989106178284
6.980716228485107,2.1231995216613715,0.8166584516625974,44.680819682135215,0.04248046875,-0.2578125,0.8857421875,1.0986328125,-3.662109375,81.35986328125,0.0,0.0,0.0,0.01442786119878292,-0.013632813468575478,0.3799115717411041,-0.9248098134994507
6.999703884124756,2.2045156984947236,0.6045673108336558,42.90286338457295,0.1171875,-0.2685546875,1.0,2.44140625,-9.82666015625,96.19140625,0.0,0.0,0.0,0.015974940732121468,-0.011944498866796494,0.3655451834201813,-0.9305798411369324
7.019589900970459,2.387378432152771,0.22268226961175885,40.807108630213754,0.11328125,-0.18408203125,0.8271484375,-3.662109375,-12.8173828125,110.83984375,0.0,0.0,0.0,0.018847916275262833,-0.009083705954253674,0.34851589798927307,-0.9370694160461426
7.039634704589844,2.662531322206265,0.16513459080109577,38.43265825205593,0.2138671875,-0.232421875,0.91015625,-5.67626953125,-6.34765625,123.6572265625,0.0,0.0,0.0,0.02146420069038868,-0.009007174521684647,0.32901498675346375,-0.9440377354621887
7.061207294464111,2.870559034087578,-0.16591966234925054,35.885001106735764,0.251953125,-0.35595703125,1.1943359375,-2.3193359375,-12.451171875,130.615234375,0.0,0.0,0.0,0.02427545003592968,-0.006339184008538723,0.3079999089241028,-0.9510555863380432
7.079998254776001,2.8870332369222376,-0.37892966372475734,33.22479610427212,0.34814453125,-0.35693359375,1.17822265625,9.765625,-4.45556640625,135.009765625,0.0,0.0,0.0,0.02508494257926941,-0.004034338518977165,0.28588324785232544,-0.9579275846481323
7.100700378417969,2.8109073635278605,-0.5375228676318982,29.65463231944436,0.1953125,-0.23876953125,0.865234375,0.91552734375,-3.7841796875,149.71923828125,0.0,0.0,0.0,0.02491038478910923,-0.0017434442415833473,0.2559380829334259,-0.9663705825805664
7.119591474533081,2.8902378763034426,-0.7009375447628333,27.323254821739937,0.21826171875,-0.212890625,0.8681640625,-0.91552734375,-10.6201171875,160.82763671875,0.0,0.0,0.0,0.02594968117773533,-1.454920038668206e-05,0.23625776171684265,-0.9713438749313354
7.140203475952148,3.282345376175535,-0.8496537081607539,24.009716611955188,0.17333984375,-0.2373046875,0.7587890625,-5.7373046875,-22.705078125,166.015625,0.0,0.0,0.0,0.029554378241300583,0.0012926351046189666,0.20811131596565247,-0.977657675743103
7.160852909088135,3.5321900674766047,-1.1511753439178758,20.599792480150512,0.392578125,-0.43505859375,1.189453125,-0.1220703125,-3.173828125,172.2412109375,0.0,0.0,0.0,0.032116446644067764,0.004368927795439959,0.17901109158992767,-0.9833130240440369
7.179758071899414,3.4383865972931766,-1.2939550057099976,17.176491422856365,0.48828125,-0.3828125,1.203125,12.26806640625,-5.615234375,172.119140625,0.0,0.0,0.0,0.03134823590517044,0.00668015843257308,0.14959070086479187,-0.988228440284729
7.19619345664978,3.4924968500018987,-1.375605968534386,12.690080812759843,0.34033203125,-0.29345703125,0.9794921875,1.03759765625,-8.30078125,181.15234375,0.0,0.0,0.0,0.03161024674773216,0.008557558059692383,0.11081990599632263,-0.9933008551597595
7.2198097705841064,3.6016261974657775,-1.4450227818948123,9.886014097129163,0.23876953125,-0.23876953125,0.74169921875,-2.74658203125,-8.11767578125,188.29345703125,0.0,0.0,0.0,0.03239157050848007,0.009849258698523045,0.08651015162467957,-0.9956755638122559
7.239552736282349,3.8123119201512834,-1.771384161476831,6.0425770049301315,0.259765625,-0.33984375,0.8740234375,5.126953125,-28.01513671875,192.87109375,0.0,0.0,0.0,0.03402663394808769,0.013674640096724033,0.05318498611450195,-0.9979110360145569
7.259897708892822,3.9111695168771092,-1.91837047274574,2.081900142514655,0.50048828125,-0.400390625,1.173828125,13.24462890625,-7.8125,199.462890625,0.0,0.0,0.0,0.034418292343616486,0.016107788309454918,0.018725039437413216,-0.9991022944450378
7.2747602462768555,3.8219228500871374,-1.9649884348217812,-1.8378105259195554,0.5322265625,-0.28955078125,1.123046875,23.0712890625,-23.5595703125,194.88525390625,0.0,0.0,0.0,0.03306235745549202,0.017669882625341415,-0.015454244799911976,-0.9991775751113892
7.303647518157959,3.6762477216954594,-2.063038788565076,-6.786671046602838,0.52490234375,-0.1005859375,0.810546875,4.5166015625,-5.2490234375,200.25634765625,0.0,0.0,0.0,0.030949359759688377,0.01985989324748516,-0.058573778718709946,-0.9976056218147278
7.319960832595825,3.7391465068752834,-2.351162634739248,-9.773418428661502,0.43310546875,-0.1650390625,0.7373046875,3.2958984375,-23.74267578125,196.77734375,0.0,0.0,0.0,0.03075222112238407,0.02320942096412182,-0.08445563167333603,-0.9956821203231812
7.33965802192688,3.9124911584815067,-2.4749265162735252,-13.709689744512055,0.6279296875,-0.23779296875,0.94970703125,0.79345703125,-9.21630859375,192.87109375,0.0,0.0,0.0,0.03130827844142914,0.02550262026488781,-0.11852508038282394,-0.9921296834945679
7.359399795532227,3.9074560284027378,-2.4535239050658784,-17.437819583142932,0.6982421875,-0.2822265625,1.123046875,20.263671875,-5.18798828125,183.16650390625,0.0,0.0,0.0,0.030447181314229965,0.02631646767258644,-0.15074275434017181,-0.9877535104751587
7.3796679973602295,3.729238463710534,-2.487853076164597,-20.991929008326576,0.64794921875,-0.2373046875,1.048828125,16.66259765625,-13.00048828125,175.59814453125,0.0,0.0,0.0,0.028033489361405373,0.027260297909379005,-0.18133236467838287,-0.9826441407203674
7.399572849273682,3.6697376976427907,-2.5443812158395036,-24.407996895289678,0.6640625,-0.1328125,0.916015625,5.55419921875,6.8359375,168.8232421875,0.0,0.0,0.0,0.026596760377287865,0.028456153348088264,-0.21053771674633026,-0.9768094420433044
7.419541358947754,3.8331896740098967,-2.403853702204488,-27.686661866719636,0.53369140625,-0.119140625,0.78173828125,-3.2958984375,-7.50732421875,160.64453125,0.0,0.0,0.0,0.027449974790215492,0.028355838730931282,-0.23840020596981049,-0.9703647494316101
7.4397289752960205,3.9534851001062767,-2.817784510248417,-30.839328630983072,0.509765625,-0.1875,0.88232421875,1.46484375,-25.93994140625,151.79443359375,0.0,0.0,0.0,0.0267085749655962,0.03285686671733856,-0.2648308277130127,-0.9633648991584778
7.460177421569824,4.010763493372827,-3.12836046888489,-33.79549256037254,0.80078125,-0.169921875,1.076171875,11.8408203125,-12.14599609375,140.56396484375,0.0,0.0,0.0,0.025540728121995926,0.036269716918468475,-0.2894643247127533,-0.956160306930542
7.47489070892334,3.913625823657375,-2.9011405657660756,-36.50207113220598,0.78857421875,-0.12158203125,1.1064453125,17.2119140625,6.9580078125,134.33837890625,0.0,0.0,0.0,0.02449461817741394,0.03471752628684044,-0.3120771050453186,-0.9491062760353088
7.499738454818726,3.8117693469990903,-3.012720457038108,-39.07834677014851,0.59033203125,-0.08984375,0.9951171875,12.20703125,-18.310546875,125.8544921875,0.0,0.0,0.0,0.02254461869597435,0.035879649221897125,-0.3333267867565155,-0.9418586492538452
7.519495010375977,3.698293864788968,-3.250029189891266,-41.52944894626679,0.6728515625,-0.06689453125,0.97265625,12.6953125,0.30517578125,120.78857421875,0.0,0.0,0.0,0.020111382007598877,0.037937674671411514,-0.35334858298301697,-0.934505820274353
7.540245771408081,3.5826536394987745,-3.023178330431044,-43.86995328424965,0.619140625,-0.03271484375,0.8955078125,11.1083984375,0.732421875,116.27197265625,0.0,0.0,0.0,0.019137222319841385,0.03613059222698212,-0.372476726770401,-0.9271405339241028
7.559614181518555,3.7051915020770347,-3.2244795866403635,-46.19544145134223,0.4814453125,-0.001953125,0.74072265625,-7.01904296875,-15.93017578125,111.6943359375,0.0,0.0,0.0,0.018693286925554276,0.03854363039135933,-0.391103595495224,-0.919349193572998
7.5798845291137695,3.8088823114142905,-3.415819438832043,-48.16160702657878,0.78271484375,-0.0087890625,1.10302734375,9.70458984375,2.86865234375,82.94677734375,0.0,0.0,0.0,0.018172821030020714,0.04074908420443535,-0.4067137837409973,-0.9124653935432434
7.59968113899231,3.7336998578990217,-3.4148064364007658,-49.48794438603063,0.6484375,0.04248046875,1.03955078125,12.63427734375,-9.8876953125,56.33544921875,0.0,0.0,0.0,0.017108134925365448,0.04067490994930267,-0.41727474331855774,-0.9077085256576538
7.619959592819214,3.5063886010000584,-3.360457340514505,-50.24161477980651,0.69091796875,0.10595703125,1.04296875,11.16943359375,13.61083984375,27.9541015625,0.0,0.0,0.0,0.015246659517288208,0.03951805830001831,-0.42333489656448364,-0.9049825668334961
7.639879465103149,3.3607749443109105,-3.204921980282267,-50.33106976736617,0.61962890625,0.19970703125,0.96630859375,-0.48828125,17.822265625,-9.21630859375,0.0,0.0,0.0,0.01464395597577095,0.03776412829756737,-0.42414364218711853,-0.9046886563301086
7.659898042678833,3.2559381572969732,-3.1738939249867797,-49.65557771883025,0.52880859375,0.16748046875,0.98583984375,2.5634765625,3.0517578125,-47.30224609375,0.0,0.0,0.0,0.01415015384554863,0.037048522382974625,-0.41884779930114746,-0.9071899652481079
7.680334091186523,2.937057542403411,-3.3339261110138247,-48.29396243231528,0.46142578125,0.16064453125,0.96533203125,7.6904296875,5.18798828125,-81.6650390625,0.0,0.0,0.0,0.011479347944259644,0.037015151232481,-0.40809112787246704,-0.9121183156967163
7.700096607208252,2.5788401605324527,-3.0785743662510208,-46.353017330589005,0.35595703125,0.25439453125,0.99951171875,7.26318359375,34.0576171875,-101.62353515625,0.0,0.0,0.0,0.010109794326126575,0.033541351556777954,-0.39276769757270813,-0.9189702868461609
7.719666242599487,2.1667562783287777,-2.5953741275223496,-44.20576978007708,-0.0224609375,0.2568359375,1.00634765625,8.544921875,23.4375,-108.642578125,0.0,0.0,0.0,0.008993512019515038,0.028091363608837128,-0.3757104277610779,-0.926267683506012
7.7396228313446045,1.7763324200870936,-2.1950575940415487,-42.03248554844906,-0.22900390625,0.3232421875,0.99755859375,8.11767578125,15.68603515625,-107.23876953125,0.0,0.0,0.0,0.007598481141030788,0.02343607321381569,-0.3582465350627899,-0.9333019852638245
7.759594678878784,1.3722867100411713,-2.0402088812643084,-39.81848997427318,-0.22216796875,0.328125,1.01806640625,9.58251953125,4.8828125,-110.2294921875,0.0,0.0,0.0,0.005195545963943005,0.020815271884202957,-0.34025242924690247,-0.9400894045829773
7.775397539138794,0.997343688996733,-1.805747910408223,-37.54409503726688,-0.11962890625,0.34765625,0.9775390625,3.662109375,16.78466796875,-113.95263671875,0.0,0.0,0.0,0.0031687463633716106,0.01771913468837738,-0.3216218054294586,-0.9466971755027771
7.799886226654053,0.7007646555994673,-1.5131701405649682,-35.29005064889263,-0.271484375,0.32275390625,1.0009765625,8.9111328125,-2.13623046875,-113.95263671875,0.0,0.0,0.0,0.0018246090039610863,0.014436541125178337,-0.3030097782611847,-0.9528764486312866
7.819922208786011,0.40395214179037836,-1.4550101192869578,-32.997009295452195,-0.224609375,0.359375,0.9873046875,2.9296875,7.62939453125,-114.013671875,0.0,0.0,0.0,-0.00022607938444707543,0.013175194151699543,-0.2839227020740509,-0.958756685256958
7.839702844619751,0.15749526433827452,-1.1193619235895431,-30.733167000713564,-0.1923828125,0.3349609375,1.0478515625,5.0048828125,14.404296875,-110.41259765625,0.0,0.0,0.0,-0.0012632812140509486,0.009783092886209488,-0.2649679183959961,-0.9642068147659302
7.860306024551392,-0.05922228244661287,-0.9166727515965355,-28.565802835548656,-0.28662109375,0.3486328125,1.02001953125,0.06103515625,4.2724609375,-106.3232421875,0.0,0.0,0.0,-0.002474349457770586,0.007624628022313118,-0.24670588970184326,-0.9690572619438171
7.879879713058472,-0.2127673428969862,-0.6997699559407313,-26.443311305683437,-0.1953125,0.33447265625,0.96435546875,-0.1220703125,8.544921875,-105.46875,0.0,0.0,0.0,-0.0032041866797953844,0.00552006158977747,-0.22872522473335266,-0.9734700918197632
7.899953603744507,-0.47487434485213137,-0.4935092353420418,-24.346916221089547,-0.23095703125,0.2939453125,0.966796875,7.87353515625,0.18310546875,-104.67529296875,0.0,0.0,0.0,-0.004958974197506905,0.003335934365168214,-0.210885688662529,-0.9774924516677856
7.920278787612915,-0.7104600024045947,-0.4438703553012981,-22.291340054522944,-0.26123046875,0.3427734375,0.9677734375,2.9296875,-2.86865234375,-100.89111328125,0.0,0.0,0.0,-0.006831657141447067,0.0026019029319286346,-0.19332246482372284,-0.9811081290245056
7.939748287200928,-0.8589021044620685,-0.2986653360235872,-20.31018392160551,-0.21533203125,0.34765625,1.0029296875,-2.13623046875,2.197265625,-97.10693359375,0.0,0.0,0.0,-0.00783733930438757,0.0012439308920875192,-0.1763269454240799,-0.9842997193336487
7.960440158843994,-0.9960568386684203,-0.1475334734544506,-17.972415074385246,-0.2724609375,0.3310546875,1.06103515625,0.48828125,-4.33349609375,-90.33203125,0.0,0.0,0.0,-0.008786521852016449,-8.605846960563213e-05,-0.15620172023773193,-0.9876860976219177
7.980065584182739,-1.0912155677935669,-0.10880478007617089,-16.665302989899686,-0.25048828125,0.3251953125,1.02294921875,-0.67138671875,-3.662109375,-86.73095703125,0.0,0.0,0.0,-0.00955957267433405,-0.0004405671788845211,-0.1449223756790161,-0.9893968105316162
8.00056529045105,-1.2187404289612882,-0.04667909360313403,-15.05818850649966,-0.2041015625,0.314453125,0.98828125,-0.9765625,-2.13623046875,-77.08740234375,0.0,0.0,0.0,-0.010596993379294872,-0.0009897238342091441,-0.1310264766216278,-0.991321861743927
8.019834756851196,-1.3710831026433683,0.09914906704452817,-13.6865721154925,-0.16650390625,0.27099609375,0.99267578125,1.953125,2.99072265625,-64.0869140625,0.0,0.0,0.0,-0.011776338331401348,-0.0022846520878374577,-0.11913524568080902,-0.9928056001663208
8.03685975074768,-1.5200914700717185,0.16904115218143895,-12.64591254071831,-0.20654296875,0.29296875,0.98876953125,-1.15966796875,-8.544921875,-45.22705078125,0.0,0.0,0.0,-0.013021755963563919,-0.002926955930888653,-0.11010327935218811,-0.9938305616378784
8.060936212539673,-1.6136507609923183,0.18131828381240464,-11.956201745877715,-0.1376953125,0.31689453125,1.048828125,-0.9765625,-5.55419921875,-28.50341796875,0.0,0.0,0.0,-0.013839922845363617,-0.0030400806572288275,-0.10411572456359863,-0.9944642186164856
8.079706907272339,-1.7835805314569466,0.13252082438046833,-11.536447347792704,-0.13525390625,0.30419921875,1.013671875,0.8544921875,-5.18798828125,-16.54052734375,0.0,0.0,0.0,-0.015369015745818615,-0.0027147233486175537,-0.10047436505556107,-0.9948171973228455
8.099813461303711,-1.984405381971658,0.14268653376361418,-11.302894151765996,-0.0537109375,0.31396484375,0.986328125,2.25830078125,2.25830078125,-9.8876953125,0.0,0.0,0.0,-0.017109554260969162,-0.0029441872611641884,-0.09844019263982773,-0.9949915409088135
8.119597911834717,-2.0450593827920756,0.2972022347981764,-11.185814464108223,-0.05224609375,0.22900390625,0.92919921875,-11.8408203125,10.009765625,-3.23486328125,0.0,0.0,0.0,-0.017507819458842278,-0.004320034757256508,-0.09739778190851212,-0.9950821995735168
8.140714406967163,-1.9514674350295063,0.5876070973508678,-11.11794202055216,-0.06103515625,0.03857421875,1.03857421875,-3.5400390625,6.9580078125,-2.3193359375,0.0,0.0,0.0,-0.016451973468065262,-0.006752536632120609,-0.09676796942949295,-0.9951480627059937
8.159653902053833,-1.9583593093454608,0.8017135708717864,-11.078232154491351,-0.09619140625,0.07861328125,1.07568359375,-1.220703125,0.0,-2.25830078125,0.0,0.0,0.0,-0.016333650797605515,-0.008612015284597874,-0.09638982266187668,-0.9951724410057068
8.179915428161621,-2.0479758735676707,0.9384973404288419,-11.029944424606654,-0.05078125,0.06787109375,0.9912109375,-2.74658203125,-1.708984375,-3.35693359375,0.0,0.0,0.0,-0.017000723630189896,-0.009868082590401173,-0.09594161063432693,-0.99519282579422
8.199552536010742,-1.7674526405575481,0.9976780481009463,-10.935295078183202,0.0166015625,-0.05126953125,0.95068359375,-7.38525390625,2.62451171875,-5.79833984375,0.0,0.0,0.0,-0.0145230982452631,-0.01013516541570425,-0.09513505548238754,-0.9953069090843201
8.219719648361206,-1.4049290378583086,1.0436942064780859,-10.8368532692231,-0.03125,-0.1064453125,1.02001953125,-6.40869140625,1.3427734375,-4.0283203125,0.0,0.0,0.0,-0.011344749480485916,-0.01022409088909626,-0.09430630505084991,-0.9954261183738708
8.239526510238647,-1.137423291632584,1.1251742011298125,-10.774548283614244,-0.07763671875,-0.10546875,1.052734375,-2.01416015625,2.9296875,-1.220703125,0.0,0.0,0.0,-0.008959589526057243,-0.01070683915168047,-0.0937809944152832,-0.9954950213432312
8.25968885421753,-0.9720027266806337,1.2335334447647721,-10.743561422897189,-0.095703125,-0.05615234375,0.994140625,-1.28173828125,0.42724609375,-0.3662109375,0.0,0.0,0.0,-0.007436775602400303,-0.011510783806443214,-0.09351827204227448,-0.9955232739448547
8.279898166656494,-0.8346342288976016,1.356807260226101,-10.735138945876917,-0.0693359375,-0.0361328125,1.00048828125,0.91552734375,-0.732421875,-0.48828125,0.0,0.0,0.0,-0.0061434973031282425,-0.01246915478259325,-0.09344989061355591,-0.9955269694328308
8.29980754852295,-0.659246817121016,1.4014365700366107,-10.698978216863578,-0.01904296875,-0.03271484375,1.04833984375,0.0,3.11279296875,-1.8310546875,0.0,0.0,0.0,-0.004587348084896803,-0.012712382711470127,-0.09315203875303268,-0.9955602288246155
8.321327924728394,-0.41918199621605234,1.471048684118617,-10.634686499979894,-0.052734375,-0.03173828125,0.96923828125,-1.28173828125,0.18310546875,-1.77001953125,0.0,0.0,0.0,-0.002452383516356349,-0.013120612129569054,-0.0926169753074646,-0.9956123232841492
8.339683771133423,-0.274381745687944,1.529880411812816,-10.600311011660866,-0.0556640625,-0.04345703125,0.95751953125,-1.03759765625,-2.8076171875,-2.01416015625,0.0,0.0,0.0,-0.0011507699964568019,-0.013514372520148754,-0.09233296662569046,-0.9956358075141907
8.35975980758667,-0.0065982678956097865,1.5569124862787282,-10.5733351795339,-0.05810546875,-0.12939453125,0.927734375,-5.67626953125,-1.0986328125,-0.67138671875,0.0,0.0,0.0,0.001194487209431827,-0.013533717021346092,-0.09212960302829742,-0.9956544041633606
8.379974603652954,0.22555995370708953,1.491008524585804,-10.51908725582472,-0.04150390625,-0.09814453125,1.0390625,0.91552734375,-3.84521484375,-1.64794921875,0.0,0.0,0.0,0.003152623074129224,-0.012775909155607224,-0.09168505668640137,-0.9957011342048645
8.39952540397644,0.40278463300955575,1.458344638984099,-10.482486833383561,-0.044921875,-0.0732421875,1.04833984375,2.44140625,-5.0048828125,-2.0751953125,0.0,0.0,0.0,0.004662488121539354,-0.012351764366030693,-0.09138601273298264,-0.9957280158996582
8.419445514678955,0.5613934716465936,1.4707211552035737,-10.450368722585221,-0.03369140625,-0.0400390625,1.02587890625,0.0,-2.13623046875,-2.01416015625,0.0,0.0,0.0,0.00604709517210722,-0.01233450323343277,-0.09112433344125748,-0.9957447648048401
8.439815521240234,0.7625650609833889,1.5760246362368933,-10.435303886597113,-0.0634765625,-0.029296875,0.9072265625,-6.4697265625,-4.638671875,-0.732421875,0.0,0.0,0.0,0.007877045311033726,-0.013090578839182854,-0.09101992100477219,-0.9957318902015686
8.460386991500854,1.008815205151181,1.574844080727539,-10.414435097361785,-0.0224609375,-0.0556640625,1.03515625,-1.46484375,-1.89208984375,-0.8544921875,0.0,0.0,0.0,0.010013509541749954,-0.012886518612504005,-0.09086643159389496,-0.9957293272018433
8.480602979660034,1.1510600844756318,1.4976875958204303,-10.387968968101632,-0.025390625,-0.046875,1.044921875,4.0283203125,0.30517578125,-0.42724609375,0.0,0.0,0.0,0.011185714974999428,-0.012105844914913177,-0.09064646810293198,-0.9957467317581177
8.494689464569092,1.1024280703680833,1.6370311388515066,-10.39960419535275,-0.0703125,0.00048828125,0.9970703125,2.0751953125,-2.01416015625,1.0986328125,0.0,0.0,0.0,0.010874387808144093,-0.013354063034057617,-0.09075254946947098,-0.995724618434906
8.522223472595215,0.9153025516160075,1.5284898279864838,-10.366184933517522,-0.0234375,0.01220703125,1.05712890625,-0.9765625,-3.662109375,-1.89208984375,0.0,0.0,0.0,0.009158985689282417,-0.012561720795929432,-0.09043388068675995,-0.9957811236381531
8.53966760635376,0.873038088083909,1.5536170267259028,-10.335642888870163,-0.0595703125,-0.00439453125,0.986328125,0.06103515625,-5.9814453125,-2.38037109375,0.0,0.0,0.0,0.008808082900941372,-0.012815779075026512,-0.09016522765159607,-0.9958054423332214
8.559922456741333,0.7696042646141747,1.4981821442050216,-10.279563620689775,0.04150390625,-0.00537109375,0.94775390625,1.8310546875,6.89697265625,-3.41796875,0.0,0.0,0.0,0.00785963237285614,-0.01241926196962595,-0.08966361731290817,-0.995863676071167
8.58117938041687,0.699302301425997,1.509778951642057,-10.2168411397679,-0.02197265625,0.009765625,0.947265625,-1.64794921875,7.38525390625,-1.77001953125,0.0,0.0,0.0,0.007250841706991196,-0.012579024769365788,-0.08911137282848358,-0.9959158897399902
8.60004210472107,0.6259754715700029,1.53838100912172,-10.215572432129571,-0.056640625,0.01806640625,1.00048828125,-3.662109375,-6.34765625,1.52587890625,0.0,0.0,0.0,0.006635618396103382,-0.012884702533483505,-0.08909334242343903,-0.995917797088623
8.619730710983276,0.5876872987127626,1.2091318469029613,-10.32146939256874,0.02001953125,-0.0078125,1.03857421875,0.79345703125,-9.70458984375,9.521484375,0.0,0.0,0.0,0.0060565355233848095,-0.010047274641692638,-0.08999776840209961,-0.9958728551864624
8.637335538864136,0.44913499040834987,0.7180689398616946,-10.766687589653205,0.0576171875,0.03173828125,1.01806640625,0.6103515625,-1.953125,22.39990234375,0.0,0.0,0.0,0.004489959683269262,-0.005870895925909281,-0.09384077787399292,-0.995559811592102
8.659518718719482,0.35333395669695766,0.5491743165822937,-11.165033613558458,0.0771484375,0.0390625,1.0419921875,2.01416015625,-1.3427734375,28.62548828125,0.0,0.0,0.0,0.0035349575337022543,-0.004469729494303465,-0.09729232639074326,-0.9952396154403687
8.679707288742065,0.15748621967370954,0.3750354153612187,-11.87931686771182,0.06103515625,0.03857421875,1.06396484375,6.04248046875,-1.8310546875,38.9404296875,0.0,0.0,0.0,0.0017056124052032828,-0.0031130064744502306,-0.10348483175039291,-0.9946247339248657
8.70089340209961,-0.0688452319145807,0.1273930331806548,-12.999616448208359,0.02587890625,0.08056640625,0.93994140625,-1.77001953125,-4.69970703125,48.583984375,0.0,0.0,0.0,-0.0004710800130851567,-0.0011725767981261015,-0.1131991371512413,-0.9935715198516846
8.719788312911987,-0.2265893379202045,-0.03534637903221474,-13.774887315234412,0.013671875,0.0888671875,0.97314453125,1.0986328125,-11.474609375,52.6123046875,0.0,0.0,0.0,-0.0020000836811959743,6.910483352839947e-05,-0.11991962790489197,-0.9927816987037659
8.73958706855774,-0.4887484867688371,-0.20654153208702702,-14.908457099514639,0.03076171875,0.11669921875,0.93212890625,3.7841796875,-5.4931640625,57.4951171875,0.0,0.0,0.0,-0.004462902434170246,0.0012338340748101473,-0.12974035739898682,-0.9915371537208557
8.76291275024414,-0.630502606329252,-0.3656207466422966,-16.02060484923677,0.0751953125,0.1376953125,0.9501953125,-2.8076171875,-1.40380859375,55.17578125,0.0,0.0,0.0,-0.005893045570701361,0.0023927325382828712,-0.13936571776866913,-0.9902205467224121
8.781228303909302,-0.7443890204674859,-0.5675317306371723,-17.09587128498812,0.06787109375,0.11865234375,1.064453125,-1.708984375,-5.37109375,54.26025390625,0.0,0.0,0.0,-0.007159864064306021,0.003931981511414051,-0.14866366982460022,-0.9888541102409363
8.799804449081421,-0.9151710704744848,-0.7615598492366336,-18.173048466159784,0.076171875,0.11181640625,1.08251953125,2.99072265625,-0.48828125,53.52783203125,0.0,0.0,0.0,-0.008935407735407352,0.00530099356546998,-0.15796971321105957,-0.9873892664909363
8.819682121276855,-1.2015873693561532,-0.9125723969387065,-19.19611176608473,0.080078125,0.23486328125,1.0634765625,8.11767578125,-3.96728515625,49.9267578125,0.0,0.0,0.0,-0.011666268110275269,0.006103432737290859,-0.16680315136909485,-0.9859023690223694
8.835388422012329,-1.3451020235359918,-1.0096979003796993,-20.17558992136853,0.0498046875,0.24853515625,0.8388671875,-4.0283203125,-1.89208984375,48.40087890625,0.0,0.0,0.0,-0.013099279254674911,0.006618442013859749,-0.17523996531963348,-0.9844163656234741
8.860687971115112,-1.461031464648853,-1.0757181887319252,-21.085637496191858,0.10302734375,0.1884765625,1.07421875,0.244140625,6.16455078125,45.59326171875,0.0,0.0,0.0,-0.014251228421926498,0.006895364727824926,-0.1830650269985199,-0.9829732775688171
8.880242109298706,-1.6981976173030866,-1.1463743612615915,-21.939602387740212,0.080078125,0.1630859375,1.08544921875,6.9580078125,1.40380859375,42.236328125,0.0,0.0,0.0,-0.016450956463813782,0.00700016925111413,-0.1904066950082779,-0.9815425276756287
8.899972677230835,-1.9608151892389034,-1.2057862281484186,-22.746783898568566,0.021484375,0.1748046875,0.93603515625,4.39453125,-0.30517578125,39.9169921875,0.0,0.0,0.0,-0.01884828507900238,0.00694009754806757,-0.19733880460262299,-0.980129599571228
8.919631242752075,-2.163991332375392,-1.179283600064888,-23.51384487821226,-0.00146484375,0.20751953125,0.9814453125,-1.28173828125,2.50244140625,38.02490234375,0.0,0.0,0.0,-0.0205826535820961,0.006225864868611097,-0.2039031684398651,-0.9787548780441284
8.939832210540771,-2.2750152035603026,-1.1933283899891385,-24.265575498263864,0.0048828125,0.17529296875,1.0634765625,-4.0283203125,-1.40380859375,38.39111328125,0.0,0.0,0.0,-0.021595735102891922,0.006006736308336258,-0.2103273570537567,-0.9773740768432617
8.959643363952637,-2.442499339415243,-1.2154236250673065,-25.009150872446472,0.0087890625,0.12890625,1.04345703125,2.74658203125,0.3662109375,37.4755859375,0.0,0.0,0.0,-0.02310241013765335,0.0057379985228180885,-0.21667689085006714,-0.9759531617164612
8.97963833808899,-2.6697060090425406,-1.2300954050130228,-25.711307979502124,0.00927734375,0.13427734375,0.95361328125,0.91552734375,0.30517578125,33.50830078125,0.0,0.0,0.0,-0.025097941979765892,0.005279648583382368,-0.2226662039756775,-0.9745573401451111
9.000079870223999,-2.8354379879319613,-1.184715201280635,-26.328523146492206,0.02294921875,0.11962890625,0.93505859375,-2.197265625,5.18798828125,28.74755859375,0.0,0.0,0.0,-0.026443663984537125,0.00442926399409771,-0.22791074216365814,-0.9733127951622009
9.019537687301636,-2.9334650763433956,-1.000724739357595,-26.8141291059126,-0.00830078125,0.09716796875,0.97802734375,-5.55419921875,9.94873046875,21.54541015625,0.0,0.0,0.0,-0.02692219614982605,0.0025572997983545065,-0.232000470161438,-0.9723397493362427
9.040283203125,-2.9849600069302373,-0.7248908047386565,-27.14216601627539,-0.0634765625,0.08642578125,1.00146484375,-2.01416015625,4.638671875,13.12255859375,0.0,0.0,0.0,-0.02680188976228237,3.556616502464749e-05,-0.2347273975610733,-0.9716916680335999
9.059728622436523,-3.086448293703576,-0.4585099052918684,-27.327144614472257,-0.0419921875,0.115234375,1.0625,0.06103515625,3.7841796875,5.18798828125,0.0,0.0,0.0,-0.027113543823361397,-0.002475024200975895,-0.2362375110387802,-0.9713138937950134
9.079757452011108,-3.267101461165124,-0.2874140934698721,-27.350322861420697,-0.02294921875,0.1103515625,1.07421875,0.9765625,3.47900390625,-1.0986328125,0.0,0.0,0.0,-0.0282914936542511,-0.00430344371125102,-0.23638957738876343,-0.9712368845939636
9.100322723388672,-3.400209041483979,-0.10064056291378341,-27.30978568869667,-0.04296875,0.1171875,0.9755859375,-2.62451171875,2.8076171875,-3.23486328125,0.0,0.0,0.0,-0.029036736115813255,-0.006150777451694012,-0.23599451780319214,-0.9713010191917419
9.11955451965332,-3.4905173758030643,0.07549294030792039,-27.25832362839521,-0.0556640625,0.10009765625,0.95166015625,-3.173828125,1.8310546875,-1.8310546875,0.0,0.0,0.0,-0.029443027451634407,-0.007816456258296967,-0.23550792038440704,-0.971394956111908
9.140090227127075,-3.5528797776896313,0.2805231262884168,-27.250320354235246,-0.07568359375,0.0771484375,1.0380859375,1.46484375,-2.25830078125,0.244140625,0.0,0.0,0.0,-0.029550859704613686,-0.009680544957518578,-0.23538124561309814,-0.9714055061340332
9.159693717956543,-3.6507331231640534,0.3999634713976496,-27.284971611442014,-0.06005859375,0.07958984375,1.0234375,3.2958984375,-3.96728515625,2.86865234375,0.0,0.0,0.0,-0.03013155795633793,-0.010903088375926018,-0.23563359677791595,-0.9713136553764343
9.180771589279175,-3.8355542001231906,0.4298999504059775,-27.36239180568411,-0.015625,0.0927734375,0.96826171875,0.9765625,-5.18798828125,4.57763671875,0.0,0.0,0.0,-0.03162870556116104,-0.011558215133845806,-0.23626312613487244,-0.9711055159568787
9.20060110092163,-3.9871912298866437,0.4301042691116961,-27.52668688352689,-0.03271484375,0.07373046875,0.98046875,-0.6103515625,-6.7138671875,11.8408203125,0.0,0.0,0.0,-0.0328962504863739,-0.011919758282601833,-0.23763959109783173,-0.970723032951355
9.220654010772705,-3.846914512260214,0.3761715212801151,-27.84847075570453,-0.001953125,0.05810546875,1.02587890625,-0.244140625,-6.40869140625,18.310546875,0.0,0.0,0.0,-0.031788382679224014,-0.011261288076639175,-0.24039478600025177,-0.9700891971588135
9.239904165267944,-3.7352665325398933,0.08947218976460765,-28.28304154164659,0.02099609375,0.05029296875,1.0322265625,-1.03759765625,-3.662109375,23.62060546875,0.0,0.0,0.0,-0.03141225501894951,-0.008719182573258877,-0.24416324496269226,-0.9691860675811768
9.259920597076416,-3.6040436575451387,-0.1754647583328508,-28.792983465079743,0.01611328125,0.04833984375,1.017578125,-0.6103515625,-5.06591796875,26.9775390625,0.0,0.0,0.0,-0.03083905391395092,-0.00633603148162365,-0.24855394661426544,-0.9681063294410706
9.281956911087036,-3.3111493511225363,-0.3211431150561289,-29.49934113847495,-0.00830078125,0.03662109375,0.958984375,-2.25830078125,-5.92041015625,29.11376953125,0.0,0.0,0.0,-0.028652265667915344,-0.004646549466997385,-0.25456738471984863,-0.9666193723678589
9.299989461898804,-3.0800437106962195,-0.31571922448362477,-30.085152803208604,-0.01513671875,0.00244140625,0.99609375,-1.0986328125,-2.38037109375,29.541015625,0.0,0.0,0.0,-0.02666899748146534,-0.004315284080803394,-0.2595135271549225,-0.9653615951538086
9.319710493087769,-2.9472831893645663,-0.3055126540273779,-30.518159475830732,-0.01611328125,0.00341796875,1.0498046875,2.3193359375,-1.52587890625,29.296875,0.0,0.0,0.0,-0.02551177702844143,-0.004197041504085064,-0.2631622552871704,-0.9644051194190979
9.340563297271729,-2.7305149697797524,-0.29713387954562337,-31.241927301420304,-0.00439453125,0.03857421875,1.00390625,-2.197265625,-1.8310546875,29.47998046875,0.0,0.0,0.0,-0.023643888533115387,-0.003919155336916447,-0.26925432682037354,-0.962770938873291
9.359786033630371,-2.5494509237509457,-0.36654135475679384,-31.668691181141043,0.01025390625,0.025390625,0.98193359375,-2.86865234375,-3.11279296875,29.1748046875,0.0,0.0,0.0,-0.022274628281593323,-0.0029934977646917105,-0.27285653352737427,-0.9617922306060791
9.375590324401855,-2.3142685141637775,-0.5601072082876627,-32.2651852617366,0.0205078125,0.02294921875,0.97607421875,-3.2958984375,-1.64794921875,29.541015625,0.0,0.0,0.0,-0.020756829530000687,-0.0009167765965685248,-0.277895987033844,-0.9603864550590515
9.39987587928772,-2.120152830404723,-0.6851682921557135,-32.87037075805099,0.0244140625,0.01904296875,1.06591796875,2.13623046875,1.46484375,29.47998046875,0.0,0.0,0.0,-0.01943592168390751,0.0004995588096790016,-0.28298312425613403,-0.9589278101921082
9.420456409454346,-2.0120123662666147,-0.6407950077173736,-33.47275929190027,-0.0078125,0.0244140625,1.0634765625,3.72314453125,-3.90625,29.60205078125,0.0,0.0,0.0,-0.01842328906059265,0.00029841254581697285,-0.2880137264728546,-0.9574490785598755
9.439746856689453,-1.8901850568054477,-0.6153586895571586,-34.05136169196497,0.0078125,0.0234375,0.94091796875,0.0,-3.84521484375,28.13720703125,0.0,0.0,0.0,-0.01734323985874653,0.0003045006305910647,-0.2928409278392792,-0.9560038447380066
9.45961880683899,-1.6800773388784542,-0.6230834200650314,-34.61714041186298,0.0087890625,0.0126953125,0.955078125,-0.3662109375,-2.8076171875,27.40478515625,0.0,0.0,0.0,-0.015614358708262444,0.0008288004319183528,-0.29755744338035583,-0.9545758366584778
9.482428550720215,-1.6342695012710002,-0.8272542628602557,-35.317023065925014,0.02978515625,0.02685546875,1.0478515625,-1.77001953125,3.47900390625,28.9306640625,0.0,0.0,0.0,-0.015778524801135063,0.002552312333136797,-0.30340248346328735,-0.9527284502983093
9.496337890625,-1.4247418158149288,-0.9013487953067888,-35.741539813408814,0.03271484375,-0.0283203125,1.01318359375,-6.04248046875,0.91552734375,29.60205078125,0.0,0.0,0.0,-0.014246217906475067,0.003670403501018882,-0.3069309890270233,-0.9516180753707886
9.51967477798462,-1.077981649389844,-0.9823051065482459,-36.33519936549881,0.0703125,-0.15966796875,0.9833984375,-5.37109375,-0.79345703125,29.60205078125,0.0,0.0,0.0,-0.011610393412411213,0.005211449693888426,-0.31184902787208557,-0.9500464200973511
9.540142297744751,-0.8051009178132896,-0.9983726996838778,-37.0700320975438,0.0576171875,-0.15673828125,1.044921875,3.47900390625,4.57763671875,29.23583984375,0.0,0.0,0.0,-0.00943053513765335,0.006026921793818474,-0.31792229413986206,-0.9480507373809814
9.560005187988281,-0.7658218339178686,-0.9154501477351032,-37.57204758644516,-0.07421875,-0.09521484375,1.03271484375,7.99560546875,-0.18310546875,34.5458984375,0.0,0.0,0.0,-0.008899375796318054,0.0054108877666294575,-0.32206782698631287,-0.9466593265533447
9.57972502708435,-0.6705623061416115,-0.8751487766200017,-38.27468622183729,-0.078125,-0.0419921875,0.9541015625,-2.38037109375,-6.591796875,36.31591796875,0.0,0.0,0.0,-0.008031807839870453,0.005296520888805389,-0.3278607428073883,-0.9446771144866943
9.599847793579102,-0.343019090389769,-0.8720362914317386,-39.01042053885273,0.013671875,-0.046875,0.98583984375,-6.53076171875,-0.6103515625,37.7197265625,0.0,0.0,0.0,-0.005362401716411114,0.006173678673803806,-0.33390283584594727,-0.9425721168518066
9.622585773468018,-0.04793511136363582,-0.9517105548216431,-40.00340710076752,0.04150390625,-0.0615234375,1.0908203125,2.74658203125,-1.46484375,39.1845703125,0.0,0.0,0.0,-0.0032338264863938093,0.007661121431738138,-0.3420394957065582,-0.9396488070487976
9.640012264251709,0.0013850474294040392,-1.0326138253753268,-40.587012614399264,0.09033203125,-0.03271484375,1.05126953125,2.685546875,4.45556640625,39.48974609375,0.0,0.0,0.0,-0.0031139887869358063,0.008455988019704819,-0.3468151390552521,-0.9378902912139893
9.659729957580566,0.04754600068930335,-1.18948555480736,-41.3525368014797,0.06884765625,-0.01806640625,0.92724609375,-0.1220703125,2.62451171875,39.1845703125,0.0,0.0,0.0,-0.0032768866512924433,0.00985795259475708,-0.35306426882743835,-0.9355413913726807
9.68408751487732,0.2389918141946105,-1.258473773797368,-42.151952387221755,0.02001953125,-0.03955078125,0.9052734375,0.54931640625,1.3427734375,40.71044921875,0.0,0.0,0.0,-0.0020032322499901056,0.010997309349477291,-0.3595617711544037,-0.9330542683601379
9.70047640800476,0.42670737057752545,-1.1776444613857908,-43.17576359286081,-0.0205078125,-0.0244140625,0.96923828125,-1.3427734375,-6.34765625,40.52734375,0.0,0.0,0.0,-0.00031873007537797093,0.010925759561359882,-0.3678703308105469,-0.9298128485679626
9.720712423324585,0.6015516222325364,-1.2191409555230859,-43.79015618417638,0.03564453125,-0.017578125,1.01025390625,-4.94384765625,-1.52587890625,41.07666015625,0.0,0.0,0.0,0.0009033289388753474,0.011828750371932983,-0.37283000349998474,-0.9278239011764526
9.740088939666748,0.7169580202653627,-1.4097213760564247,-44.630006489804906,0.03955078125,-0.00927734375,1.05029296875,-5.06591796875,-0.06103515625,43.02978515625,0.0,0.0,0.0,0.0011167115299031138,0.013755767606198788,-0.37959107756614685,-0.9250513911247253
9.760168313980103,0.7480426914257667,-1.2676563228062154,-45.520878308533426,-0.02685546875,-0.01416015625,1.0859375,-1.64794921875,-6.04248046875,45.34912109375,0.0,0.0,0.0,0.0017395415343344212,0.01272587664425373,-0.3867804706096649,-0.9220823645591736
9.779962301254272,0.7366053795780217,-1.1807175129037677,-46.44756080908032,0.00537109375,-0.0029296875,0.9697265625,-1.52587890625,-4.33349609375,46.2646484375,0.0,0.0,0.0,0.0018440481508150697,0.012003045529127121,-0.3942334055900574,-0.918930172920227
9.79970645904541,0.5896606364135145,-1.3108972899462141,-47.380083121367576,0.0283203125,0.0078125,0.99560546875,1.77001953125,-1.46484375,47.119140625,0.0,0.0,0.0,0.00011561536666704342,0.012542733922600746,-0.4017030894756317,-0.9156841039657593
9.81973910331726,0.592091223262687,-1.2529925469884327,-48.335575359833584,-0.0029296875,-0.02001953125,0.96484375,-6.04248046875,-7.080078125,48.15673828125,0.0,0.0,0.0,0.00023727105872239918,0.012090967036783695,-0.4093286693096161,-0.9123069047927856
9.839728355407715,0.7186343514589248,-1.4050447241873756,-49.29999124045022,0.0888671875,0.001953125,1.08984375,-0.30517578125,4.39453125,48.52294921875,0.0,0.0,0.0,0.0005856634816154838,0.013758855871856213,-0.416964590549469,-0.9088183641433716
9.859614610671997,0.6551628442450244,-1.612712890641911,-50.268037366610706,0.0439453125,-0.01025390625,1.08154296875,5.126953125,-6.34765625,48.33984375,0.0,0.0,0.0,-0.0008017796790227294,0.015168542042374611,-0.42461517453193665,-0.9052464962005615
