time,orientation.x,orientation.y,orientation.z,orientation.w,orientation_covariance,angular_velocity.x,angular_velocity.y,angular_velocity.z,angular_velocity_covariance,linear_acceleration.x,linear_acceleration.y,linear_acceleration.z,linear_acceleration_covariance
0.34085941314697266,-0.015077829360961914,-0.017532747238874435,0.13137847185134888,-0.9910625219345093,[0. 0. 0. 0. 0. 0. 0. 0. 0.],-0.244140625,-0.9765625,-0.244140625,[0. 0. 0. 0. 0. 0. 0. 0. 0.],-0.0390625,0.025390625,1.0029296875,[0. 0. 0. 0. 0. 0. 0. 0. 0.]
0.3553192615509033,-0.015415769070386887,-0.0178020391613245,0.1313849240541458,-0.9910517334938049,[0. 0. 0. 0. 0. 0. 0. 0. 0.],-0.30517578125,-0.54931640625,-0.1220703125,[0. 0. 0. 0. 0. 0. 0. 0. 0.],-0.0400390625,0.0263671875,1.00341796875,[0. 0. 0. 0. 0. 0. 0. 0. 0.]
0.3794991970062256,-0.015461493283510208,-0.017412777990102768,0.13140594959259033,-0.9910551309585571,[0. 0. 0. 0. 0. 0. 0. 0. 0.],0.18310546875,-0.54931640625,-0.06103515625,[0. 0. 0. 0. 0. 0. 0. 0. 0.],-0.0390625,0.02587890625,1.00244140625,[0. 0. 0. 0. 0. 0. 0. 0. 0.]
0.400496244430542,-0.015563441440463066,-0.017538219690322876,0.13143326342105865,-0.9910476803779602,[0. 0. 0. 0. 0. 0. 0. 0. 0.],0.3662109375,-0.79345703125,-0.244140625,[0. 0. 0. 0. 0. 0. 0. 0. 0.],-0.03857421875,0.02587890625,1.00390625,[0. 0. 0. 0. 0. 0. 0. 0. 0.]
0.41994190216064453,-0.01595267653465271,-0.015911994501948357,0.13143014907836914,-0.9910693764686584,[0. 0. 0. 0. 0. 0. 0. 0. 0.],-0.42724609375,-1.03759765625,-0.244140625,[0. 0. 0. 0. 0. 0. 0. 0. 0.],-0.0361328125,0.02734375,1.00537109375,[0. 0. 0. 0. 0. 0. 0. 0. 0.]
0.43961524963378906,-0.015115605667233467,-0.017473585903644562,0.13149678707122803,-0.9910473227500916,[0. 0. 0. 0. 0. 0. 0. 0. 0.],-0.48828125,-0.6103515625,-0.1220703125,[0. 0. 0. 0. 0. 0. 0. 0. 0.],-0.0390625,0.025390625,1.00390625,[0. 0. 0. 0. 0. 0. 0. 0. 0.]
0.45946836471557617,-0.015491639263927937,-0.017152337357401848,0.1315232515335083,-0.9910436272621155,[0. 0. 0. 0. 0. 0. 0. 0. 0.],0.18310546875,-0.18310546875,-0.1220703125,[0. 0. 0. 0. 0. 0. 0. 0. 0.],-0.03857421875,0.0263671875,1.0048828125,[0. 0. 0. 0. 0. 0. 0. 0. 0.]
0.4763340950012207,-0.01481554750353098,-0.0179604385048151,0.13156768679618835,-0.991033673286438,[0. 0. 0. 0. 0. 0. 0. 0. 0.],0.06103515625,-0.18310546875,-0.06103515625,[0. 0. 0. 0. 0. 0. 0. 0. 0.],-0.03955078125,0.02490234375,1.0048828125,[0. 0. 0. 0. 0. 0. 0. 0. 0.]
0.495527982711792,-0.014964241534471512,-0.017440011724829674,0.13158056139945984,-0.9910390973091125,[0. 0. 0. 0. 0. 0. 0. 0. 0.],-0.1220703125,-1.0986328125,-0.18310546875,[0. 0. 0. 0. 0. 0. 0. 0. 0.],-0.03857421875,0.025390625,1.0048828125,[0. 0. 0. 0. 0. 0. 0. 0. 0.]
0.5195486545562744,-0.015319245867431164,-0.017921071499586105,0.13161486387252808,-0.9910205602645874,[0. 0. 0. 0. 0. 0. 0. 0. 0.],-0.3662109375,-0.91552734375,-0.30517578125,[0. 0. 0. 0. 0. 0. 0. 0. 0.],-0.0400390625,0.0263671875,1.0029296875,[0. 0. 0. 0. 0. 0. 0. 0. 0.]
0.5352604389190674,-0.014504613354802132,-0.017269710078835487,0.13164973258972168,-0.9910397529602051,[0. 0. 0. 0. 0. 0. 0. 0. 0.],0.1220703125,-0.1220703125,-0.1220703125,[0. 0. 0. 0. 0. 0. 0. 0. 0.],-0.0380859375,0.0244140625,1.005859375,[0. 0. 0. 0. 0. 0. 0. 0. 0.]
0.5600972175598145,-0.015514216385781765,-0.01721089705824852,0.1316521018743515,-0.9910252094268799,[0. 0. 0. 0. 0. 0. 0. 0. 0.],0.06103515625,-0.3662109375,0.0,[0. 0. 0. 0. 0. 0. 0. 0. 0.],-0.03857421875,0.0263671875,1.00390625,[0. 0. 0. 0. 0. 0. 0. 0. 0.]
0.5754880905151367,-0.015281282365322113,-0.016604717820882797,0.13168182969093323,-0.9910352230072021,[0. 0. 0. 0. 0. 0. 0. 0. 0.],-0.1220703125,-0.9765625,-0.18310546875,[0. 0. 0. 0. 0. 0. 0. 0. 0.],-0.03759765625,0.02587890625,1.001953125,[0. 0. 0. 0. 0. 0. 0. 0. 0.]
0.5969772338867188,-0.015275739133358002,-0.01763199269771576,0.1317346841096878,-0.9910105466842651,[0. 0. 0. 0. 0. 0. 0. 0. 0.],0.1220703125,-0.8544921875,-0.1220703125,[0. 0. 0. 0. 0. 0. 0. 0. 0.],-0.0390625,0.02587890625,1.0048828125,[0. 0. 0. 0. 0. 0. 0. 0. 0.]
0.6159915924072266,-0.0146239148452878,-0.016855372115969658,0.1317586600780487,-0.9910306930541992,[0. 0. 0. 0. 0. 0. 0. 0. 0.],0.1220703125,-0.79345703125,-0.244140625,[0. 0. 0. 0. 0. 0. 0. 0. 0.],-0.037109375,0.0244140625,1.00341796875,[0. 0. 0. 0. 0. 0. 0. 0. 0.]
0.6397786140441895,-0.014209144748747349,-0.016683565452694893,0.13178235292434692,-0.9910364747047424,[0. 0. 0. 0. 0. 0. 0. 0. 0.],-0.3662109375,-0.732421875,-0.30517578125,[0. 0. 0. 0. 0. 0. 0. 0. 0.],-0.037109375,0.0244140625,1.00537109375,[0. 0. 0. 0. 0. 0. 0. 0. 0.]
0.659541130065918,-0.014798227697610855,-0.016537195071578026,0.13179273903369904,-0.9910289645195007,[0. 0. 0. 0. 0. 0. 0. 0. 0.],-0.3662109375,-0.48828125,-0.06103515625,[0. 0. 0. 0. 0. 0. 0. 0. 0.],-0.03662109375,0.025390625,1.00439453125,[0. 0. 0. 0. 0. 0. 0. 0. 0.]
0.6793487071990967,-0.01534988358616829,-0.01784723438322544,0.13183075189590454,-0.9909927845001221,[0. 0. 0. 0. 0. 0. 0. 0. 0.],0.06103515625,-0.48828125,0.06103515625,[0. 0. 0. 0. 0. 0. 0. 0. 0.],-0.03955078125,0.02587890625,1.00537109375,[0. 0. 0. 0. 0. 0. 0. 0. 0.]
0.7000877857208252,-0.016371481120586395,-0.017629509791731834,0.13184323906898499,-0.9909785985946655,[0. 0. 0. 0. 0. 0. 0. 0. 0.],0.3662109375,-0.732421875,-0.1220703125,[0. 0. 0. 0. 0. 0. 0. 0. 0.],-0.0400390625,0.02783203125,1.00244140625,[0. 0. 0. 0. 0. 0. 0. 0. 0.]
0.7195889949798584,-0.015542933717370033,-0.016780836507678032,0.13187307119369507,-0.9910026788711548,[0. 0. 0. 0. 0. 0. 0. 0. 0.],-0.18310546875,-0.9765625,-0.244140625,[0. 0. 0. 0. 0. 0. 0. 0. 0.],-0.03759765625,0.0263671875,1.00439453125,[0. 0. 0. 0. 0. 0. 0. 0. 0.]
0.7396407127380371,-0.015029164962470531,-0.01703268475830555,0.1319064497947693,-0.9910018444061279,[0. 0. 0. 0. 0. 0. 0. 0. 0.],-0.30517578125,-0.79345703125,-0.18310546875,[0. 0. 0. 0. 0. 0. 0. 0. 0.],-0.0380859375,0.025390625,1.0048828125,[0. 0. 0. 0. 0. 0. 0. 0. 0.]
0.7551488876342773,-0.01483957376331091,-0.017662758007645607,0.1319478303194046,-0.9909882545471191,[0. 0. 0. 0. 0. 0. 0. 0. 0.],0.06103515625,-0.18310546875,-0.06103515625,[0. 0. 0. 0. 0. 0. 0. 0. 0.],-0.03955078125,0.025390625,1.0048828125,[0. 0. 0. 0. 0. 0. 0. 0. 0.]
0.7794227600097656,-0.015413719229400158,-0.01747918501496315,0.1319563239812851,-0.9909815788269043,[0. 0. 0. 0. 0. 0. 0. 0. 0.],0.244140625,-0.42724609375,0.06103515625,[0. 0. 0. 0. 0. 0. 0. 0. 0.],-0.0390625,0.02587890625,1.0029296875,[0. 0. 0. 0. 0. 0. 0. 0. 0.]
0.7997145652770996,-0.01530015654861927,-0.016491733491420746,0.13197192549705505,-0.9909982681274414,[0. 0. 0. 0. 0. 0. 0. 0. 0.],-0.18310546875,-1.15966796875,-0.1220703125,[0. 0. 0. 0. 0. 0. 0. 0. 0.],-0.037109375,0.025390625,1.0048828125,[0. 0. 0. 0. 0. 0. 0. 0. 0.]
0.8196437358856201,-0.01515099499374628,-0.01815865747630596,0.1320207118988037,-0.9909648299217224,[0. 0. 0. 0. 0. 0. 0. 0. 0.],-0.30517578125,-1.0986328125,-0.30517578125,[0. 0. 0. 0. 0. 0. 0. 0. 0.],-0.0400390625,0.025390625,1.00390625,[0. 0. 0. 0. 0. 0. 0. 0. 0.]
0.8404176235198975,-0.015349256806075573,-0.016969772055745125,0.13201205432415009,-0.9909839630126953,[0. 0. 0. 0. 0. 0. 0. 0. 0.],0.0,-0.3662109375,-0.18310546875,[0. 0. 0. 0. 0. 0. 0. 0. 0.],-0.037109375,0.02685546875,1.00390625,[0. 0. 0. 0. 0. 0. 0. 0. 0.]
0.8597033023834229,-0.01511413138359785,-0.017500272020697594,0.1320422738790512,-0.9909743666648865,[0. 0. 0. 0. 0. 0. 0. 0. 0.],0.18310546875,0.0,0.0,[0. 0. 0. 0. 0. 0. 0. 0. 0.],-0.03857421875,0.025390625,1.00439453125,[0. 0. 0. 0. 0. 0. 0. 0. 0.]
0.8796002864837646,-0.014919865876436234,-0.017741745337843895,0.1320783942937851,-0.9909682273864746,[0. 0. 0. 0. 0. 0. 0. 0. 0.],-0.1220703125,-0.79345703125,-0.1220703125,[0. 0. 0. 0. 0. 0. 0. 0. 0.],-0.03955078125,0.02587890625,1.00439453125,[0. 0. 0. 0. 0. 0. 0. 0. 0.]
0.8996975421905518,-0.01528396550565958,-0.01701349951326847,0.13210220634937286,-0.9909723401069641,[0. 0. 0. 0. 0. 0. 0. 0. 0.],-0.1220703125,-1.15966796875,-0.18310546875,[0. 0. 0. 0. 0. 0. 0. 0. 0.],-0.0380859375,0.02587890625,1.00439453125,[0. 0. 0. 0. 0. 0. 0. 0. 0.]
0.9194376468658447,-0.014775600284337997,-0.017203180119395256,0.1321427822113037,-0.9909712076187134,[0. 0. 0. 0. 0. 0. 0. 0. 0.],-0.06103515625,-0.48828125,-0.30517578125,[0. 0. 0. 0. 0. 0. 0. 0. 0.],-0.0380859375,0.02490234375,1.00439453125,[0. 0. 0. 0. 0. 0. 0. 0. 0.]
0.9395568370819092,-0.014599567279219627,-0.016904063522815704,0.13216669857501984,-0.9909758567810059,[0. 0. 0. 0. 0. 0. 0. 0. 0.],-0.1220703125,-0.30517578125,-0.06103515625,[0. 0. 0. 0. 0. 0. 0. 0. 0.],-0.03759765625,0.02490234375,1.00341796875,[0. 0. 0. 0. 0. 0. 0. 0. 0.]
0.9594743251800537,-0.015184196643531322,-0.01638234779238701,0.13219380378723145,-0.9909722208976746,[0. 0. 0. 0. 0. 0. 0. 0. 0.],-0.30517578125,-0.6103515625,-0.1220703125,[0. 0. 0. 0. 0. 0. 0. 0. 0.],-0.037109375,0.02587890625,1.0048828125,[0. 0. 0. 0. 0. 0. 0. 0. 0.]
0.9799942970275879,-0.015117174945771694,-0.016931163147091866,0.1322387009859085,-0.9909579753875732,[0. 0. 0. 0. 0. 0. 0. 0. 0.],0.06103515625,-0.91552734375,-0.244140625,[0. 0. 0. 0. 0. 0. 0. 0. 0.],-0.03857421875,0.02587890625,1.00439453125,[0. 0. 0. 0. 0. 0. 0. 0. 0.]
1.001014232635498,-0.014929606579244137,-0.01702871173620224,0.13228578865528107,-0.9909528493881226,[0. 0. 0. 0. 0. 0. 0. 0. 0.],0.18310546875,-0.732421875,-0.30517578125,[0. 0. 0. 0. 0. 0. 0. 0. 0.],-0.0380859375,0.025390625,1.0029296875,[0. 0. 0. 0. 0. 0. 0. 0. 0.]
1.0225136280059814,-0.015391546301543713,-0.018013035878539085,0.13232675194740295,-0.9909229278564453,[0. 0. 0. 0. 0. 0. 0. 0. 0.],-0.06103515625,-0.9765625,-0.48828125,[0. 0. 0. 0. 0. 0. 0. 0. 0.],-0.0400390625,0.02587890625,1.00390625,[0. 0. 0. 0. 0. 0. 0. 0. 0.]
1.043853998184204,-0.015672361478209496,-0.017007438465952873,0.13233520090579987,-0.9909351468086243,[0. 0. 0. 0. 0. 0. 0. 0. 0.],-0.48828125,-0.91552734375,-0.244140625,[0. 0. 0. 0. 0. 0. 0. 0. 0.],-0.0380859375,0.02685546875,1.00634765625,[0. 0. 0. 0. 0. 0. 0. 0. 0.]
1.0609064102172852,-0.014458676800131798,-0.016376344487071037,0.13237816095352173,-0.9909586310386658,[0. 0. 0. 0. 0. 0. 0. 0. 0.],0.06103515625,-0.42724609375,-0.06103515625,[0. 0. 0. 0. 0. 0. 0. 0. 0.],-0.03662109375,0.02490234375,1.0048828125,[0. 0. 0. 0. 0. 0. 0. 0. 0.]
1.0810368061065674,-0.015015359967947006,-0.01753944344818592,0.13241985440254211,-0.9909248352050781,[0. 0. 0. 0. 0. 0. 0. 0. 0.],0.244140625,-0.3662109375,0.0,[0. 0. 0. 0. 0. 0. 0. 0. 0.],-0.03955078125,0.025390625,1.00439453125,[0. 0. 0. 0. 0. 0. 0. 0. 0.]
1.0994629859924316,-0.015418627299368382,-0.017063453793525696,0.1324175000190735,-0.9909272193908691,[0. 0. 0. 0. 0. 0. 0. 0. 0.],-0.18310546875,-0.91552734375,-0.18310546875,[0. 0. 0. 0. 0. 0. 0. 0. 0.],-0.0380859375,0.02587890625,1.005859375,[0. 0. 0. 0. 0. 0. 0. 0. 0.]
1.1196999549865723,-0.014915323816239834,-0.01741783879697323,0.1324412226676941,-0.990925669670105,[0. 0. 0. 0. 0. 0. 0. 0. 0.],-0.3662109375,-1.220703125,-0.06103515625,[0. 0. 0. 0. 0. 0. 0. 0. 0.],-0.0390625,0.025390625,1.00390625,[0. 0. 0. 0. 0. 0. 0. 0. 0.]
1.135481595993042,-0.015646234154701233,-0.01645015925168991,0.13244637846946716,-0.9909301996231079,[0. 0. 0. 0. 0. 0. 0. 0. 0.],-0.06103515625,-0.42724609375,-0.18310546875,[0. 0. 0. 0. 0. 0. 0. 0. 0.],-0.037109375,0.02685546875,1.0068359375,[0. 0. 0. 0. 0. 0. 0. 0. 0.]
1.1593868732452393,-0.014745479449629784,-0.016560819000005722,0.13248689472675323,-0.9909367561340332,[0. 0. 0. 0. 0. 0. 0. 0. 0.],-0.06103515625,-0.18310546875,-0.1220703125,[0. 0. 0. 0. 0. 0. 0. 0. 0.],-0.03662109375,0.025390625,1.00537109375,[0. 0. 0. 0. 0. 0. 0. 0. 0.]
1.1795575618743896,-0.01641581952571869,-0.016399141401052475,0.13247981667518616,-0.9909140467643738,[0. 0. 0. 0. 0. 0. 0. 0. 0.],-0.18310546875,-0.67138671875,-0.06103515625,[0. 0. 0. 0. 0. 0. 0. 0. 0.],-0.037109375,0.0283203125,1.00439453125,[0. 0. 0. 0. 0. 0. 0. 0. 0.]
1.2003898620605469,-0.015696879476308823,-0.017656395211815834,0.13254426419734955,-0.9908955693244934,[0. 0. 0. 0. 0. 0. 0. 0. 0.],-0.06103515625,-1.03759765625,-0.3662109375,[0. 0. 0. 0. 0. 0. 0. 0. 0.],-0.0400390625,0.02587890625,1.00439453125,[0. 0. 0. 0. 0. 0. 0. 0. 0.]
1.2210900783538818,-0.015517446212470531,-0.016718106344342232,0.13257205486297607,-0.9909110069274902,[0. 0. 0. 0. 0. 0. 0. 0. 0.],0.3662109375,-0.732421875,-0.1220703125,[0. 0. 0. 0. 0. 0. 0. 0. 0.],-0.03759765625,0.0263671875,1.0048828125,[0. 0. 0. 0. 0. 0. 0. 0. 0.]
1.2393841743469238,-0.015110155567526817,-0.017294669523835182,0.13260221481323242,-0.9909033179283142,[0. 0. 0. 0. 0. 0. 0. 0. 0.],0.0,-0.30517578125,-0.18310546875,[0. 0. 0. 0. 0. 0. 0. 0. 0.],-0.0380859375,0.025390625,1.0048828125,[0. 0. 0. 0. 0. 0. 0. 0. 0.]
1.2625577449798584,-0.01563158631324768,-0.01741357520222664,0.13261717557907104,-0.9908910989761353,[0. 0. 0. 0. 0. 0. 0. 0. 0.],-0.3662109375,-0.48828125,0.0,[0. 0. 0. 0. 0. 0. 0. 0. 0.],-0.0390625,0.02685546875,1.00341796875,[0. 0. 0. 0. 0. 0. 0. 0. 0.]
1.2754995822906494,-0.015587350353598595,-0.017226792871952057,0.13264650106430054,-0.9908910989761353,[0. 0. 0. 0. 0. 0. 0. 0. 0.],-0.1220703125,-0.8544921875,-0.06103515625,[0. 0. 0. 0. 0. 0. 0. 0. 0.],-0.0390625,0.02587890625,1.00244140625,[0. 0. 0. 0. 0. 0. 0. 0. 0.]
1.2950060367584229,-0.015489034354686737,-0.018016405403614044,0.13269005715847015,-0.9908728003501892,[0. 0. 0. 0. 0. 0. 0. 0. 0.],0.244140625,-0.79345703125,-0.18310546875,[0. 0. 0. 0. 0. 0. 0. 0. 0.],-0.0400390625,0.025390625,1.00146484375,[0. 0. 0. 0. 0. 0. 0. 0. 0.]
1.3195502758026123,-0.015239963307976723,-0.01704428344964981,0.13270621001720428,-0.9908917546272278,[0. 0. 0. 0. 0. 0. 0. 0. 0.],-0.18310546875,-0.732421875,-0.244140625,[0. 0. 0. 0. 0. 0. 0. 0. 0.],-0.0380859375,0.02587890625,1.00634765625,[0. 0. 0. 0. 0. 0. 0. 0. 0.]
1.3353595733642578,-0.014651344157755375,-0.016508037224411964,0.132731094956398,-0.9909062385559082,[0. 0. 0. 0. 0. 0. 0. 0. 0.],-0.732421875,-0.54931640625,-0.1220703125,[0. 0. 0. 0. 0. 0. 0. 0. 0.],-0.03662109375,0.02490234375,1.0048828125,[0. 0. 0. 0. 0. 0. 0. 0. 0.]
1.3594822883605957,-0.014593414030969143,-0.017186375334858894,0.1327737420797348,-0.9908899664878845,[0. 0. 0. 0. 0. 0. 0. 0. 0.],-0.06103515625,-0.3662109375,-0.06103515625,[0. 0. 0. 0. 0. 0. 0. 0. 0.],-0.0380859375,0.0244140625,1.00634765625,[0. 0. 0. 0. 0. 0. 0. 0. 0.]
1.3795828819274902,-0.014937316998839378,-0.017223592847585678,0.13279975950717926,-0.9908806681632996,[0. 0. 0. 0. 0. 0. 0. 0. 0.],0.3662109375,-0.67138671875,-0.06103515625,[0. 0. 0. 0. 0. 0. 0. 0. 0.],-0.0380859375,0.025390625,1.0029296875,[0. 0. 0. 0. 0. 0. 0. 0. 0.]
1.399446725845337,-0.014181111939251423,-0.016464071348309517,0.13281916081905365,-0.9909020662307739,[0. 0. 0. 0. 0. 0. 0. 0. 0.],-0.18310546875,-0.9765625,-0.06103515625,[0. 0. 0. 0. 0. 0. 0. 0. 0.],-0.03662109375,0.02392578125,1.00341796875,[0. 0. 0. 0. 0. 0. 0. 0. 0.]
1.4195148944854736,-0.015389245003461838,-0.017247360199689865,0.1328362077474594,-0.9908684492111206,[0. 0. 0. 0. 0. 0. 0. 0. 0.],-0.30517578125,-1.15966796875,-0.244140625,[0. 0. 0. 0. 0. 0. 0. 0. 0.],-0.0380859375,0.025390625,1.00341796875,[0. 0. 0. 0. 0. 0. 0. 0. 0.]
1.4395911693572998,-0.015691975131630898,-0.016563110053539276,0.13283616304397583,-0.9908754825592041,[0. 0. 0. 0. 0. 0. 0. 0. 0.],-0.244140625,-0.30517578125,0.0,[0. 0. 0. 0. 0. 0. 0. 0. 0.],-0.037109375,0.02685546875,1.00439453125,[0. 0. 0. 0. 0. 0. 0. 0. 0.]
1.459810495376587,-0.015388045459985733,-0.018112875521183014,0.1328761875629425,-0.9908477067947388,[0. 0. 0. 0. 0. 0. 0. 0. 0.],0.18310546875,-0.30517578125,0.06103515625,[0. 0. 0. 0. 0. 0. 0. 0. 0.],-0.04052734375,0.02587890625,1.005859375,[0. 0. 0. 0. 0. 0. 0. 0. 0.]
1.4796180725097656,-0.015594174154102802,-0.01691688969731331,0.13288244605064392,-0.9908647537231445,[0. 0. 0. 0. 0. 0. 0. 0. 0.],0.1220703125,-0.8544921875,-0.06103515625,[0. 0. 0. 0. 0. 0. 0. 0. 0.],-0.0380859375,0.02685546875,1.005859375,[0. 0. 0. 0. 0. 0. 0. 0. 0.]
1.50101637840271,-0.014100571162998676,-0.016368580982089043,0.1329413801431656,-0.9908884167671204,[0. 0. 0. 0. 0. 0. 0. 0. 0.],-0.18310546875,-1.03759765625,-0.1220703125,[0. 0. 0. 0. 0. 0. 0. 0. 0.],-0.03662109375,0.02392578125,1.00634765625,[0. 0. 0. 0. 0. 0. 0. 0. 0.]
1.523303508758545,-0.01531265676021576,-0.015947360545396805,0.13294731080532074,-0.9908765554428101,[0. 0. 0. 0. 0. 0. 0. 0. 0.],0.0,-0.91552734375,-0.3662109375,[0. 0. 0. 0. 0. 0. 0. 0. 0.],-0.0361328125,0.02587890625,1.00341796875,[0. 0. 0. 0. 0. 0. 0. 0. 0.]
1.5407202243804932,-0.01491942722350359,-0.01710256189107895,0.1329958289861679,-0.9908567667007446,[0. 0. 0. 0. 0. 0. 0. 0. 0.],0.06103515625,-0.42724609375,-0.18310546875,[0. 0. 0. 0. 0. 0. 0. 0. 0.],-0.0380859375,0.02587890625,1.001953125,[0. 0. 0. 0. 0. 0. 0. 0. 0.]
1.5593905448913574,-0.015144438482820988,-0.01661268062889576,0.1330087035894394,-0.9908599853515625,[0. 0. 0. 0. 0. 0. 0. 0. 0.],0.0,-0.67138671875,0.0,[0. 0. 0. 0. 0. 0. 0. 0. 0.],-0.03759765625,0.025390625,1.0029296875,[0. 0. 0. 0. 0. 0. 0. 0. 0.]
1.5799565315246582,-0.014530976302921772,-0.017138879746198654,0.13305288553237915,-0.9908543229103088,[0. 0. 0. 0. 0. 0. 0. 0. 0.],0.0,-0.732421875,-0.06103515625,[0. 0. 0. 0. 0. 0. 0. 0. 0.],-0.0380859375,0.02490234375,1.005859375,[0. 0. 0. 0. 0. 0. 0. 0. 0.]
1.5994935035705566,-0.015719570219516754,-0.017535168677568436,0.13308314979076385,-0.9908250570297241,[0. 0. 0. 0. 0. 0. 0. 0. 0.],0.244140625,-0.8544921875,-0.30517578125,[0. 0. 0. 0. 0. 0. 0. 0. 0.],-0.0400390625,0.0263671875,1.00439453125,[0. 0. 0. 0. 0. 0. 0. 0. 0.]
1.6201343536376953,-0.015102637931704521,-0.01731513999402523,0.13311365246772766,-0.9908344149589539,[0. 0. 0. 0. 0. 0. 0. 0. 0.],-0.06103515625,-0.732421875,-0.1220703125,[0. 0. 0. 0. 0. 0. 0. 0. 0.],-0.03857421875,0.025390625,1.00341796875,[0. 0. 0. 0. 0. 0. 0. 0. 0.]
1.640676736831665,-0.015398469753563404,-0.016694338992238045,0.13312764465808868,-0.9908386468887329,[0. 0. 0. 0. 0. 0. 0. 0. 0.],-0.30517578125,-0.6103515625,-0.18310546875,[0. 0. 0. 0. 0. 0. 0. 0. 0.],-0.03662109375,0.0263671875,1.0048828125,[0. 0. 0. 0. 0. 0. 0. 0. 0.]
1.6593596935272217,-0.015907255932688713,-0.016324754804372787,0.1331426054239273,-0.9908347725868225,[0. 0. 0. 0. 0. 0. 0. 0. 0.],-0.06103515625,-0.42724609375,-0.1220703125,[0. 0. 0. 0. 0. 0. 0. 0. 0.],-0.03759765625,0.02783203125,1.00390625,[0. 0. 0. 0. 0. 0. 0. 0. 0.]
1.6795635223388672,-0.015576553530991077,-0.017932575196027756,0.1332085132598877,-0.9908034205436707,[0. 0. 0. 0. 0. 0. 0. 0. 0.],0.3662109375,-0.48828125,-0.244140625,[0. 0. 0. 0. 0. 0. 0. 0. 0.],-0.0400390625,0.02587890625,0.9990234375,[0. 0. 0. 0. 0. 0. 0. 0. 0.]
1.695162296295166,-0.015519386157393456,-0.01698758639395237,0.1332240253686905,-0.9908188581466675,[0. 0. 0. 0. 0. 0. 0. 0. 0.],0.06103515625,-0.91552734375,-0.244140625,[0. 0. 0. 0. 0. 0. 0. 0. 0.],-0.0380859375,0.0263671875,1.00439453125,[0. 0. 0. 0. 0. 0. 0. 0. 0.]
1.7197339534759521,-0.015236269682645798,-0.01708628423511982,0.133252814412117,-0.990817666053772,[0. 0. 0. 0. 0. 0. 0. 0. 0.],-0.42724609375,-0.8544921875,-0.06103515625,[0. 0. 0. 0. 0. 0. 0. 0. 0.],-0.0380859375,0.02587890625,1.0048828125,[0. 0. 0. 0. 0. 0. 0. 0. 0.]
1.7399373054504395,-0.015231800265610218,-0.016199564561247826,0.13327287137508392,-0.9908300042152405,[0. 0. 0. 0. 0. 0. 0. 0. 0.],-0.18310546875,-0.42724609375,-0.06103515625,[0. 0. 0. 0. 0. 0. 0. 0. 0.],-0.0361328125,0.0263671875,1.00537109375,[0. 0. 0. 0. 0. 0. 0. 0. 0.]
1.759371280670166,-0.01596911810338497,-0.017694642767310143,0.13330571353435516,-0.9907882809638977,[0. 0. 0. 0. 0. 0. 0. 0. 0.],0.244140625,-0.244140625,-0.06103515625,[0. 0. 0. 0. 0. 0. 0. 0. 0.],-0.0390625,0.02685546875,1.00537109375,[0. 0. 0. 0. 0. 0. 0. 0. 0.]
1.7809431552886963,-0.014680642634630203,-0.01647232100367546,0.13334792852401733,-0.9908236861228943,[0. 0. 0. 0. 0. 0. 0. 0. 0.],0.06103515625,-0.67138671875,0.0,[0. 0. 0. 0. 0. 0. 0. 0. 0.],-0.03662109375,0.0244140625,1.0048828125,[0. 0. 0. 0. 0. 0. 0. 0. 0.]
1.799490213394165,-0.015117906033992767,-0.01736801490187645,0.1333814412355423,-0.9907972812652588,[0. 0. 0. 0. 0. 0. 0. 0. 0.],-0.18310546875,-1.03759765625,-0.18310546875,[0. 0. 0. 0. 0. 0. 0. 0. 0.],-0.0390625,0.025390625,1.005859375,[0. 0. 0. 0. 0. 0. 0. 0. 0.]
1.8213145732879639,-0.015542907640337944,-0.017494505271315575,0.1333983987569809,-0.9907862544059753,[0. 0. 0. 0. 0. 0. 0. 0. 0.],-0.06103515625,-0.732421875,-0.244140625,[0. 0. 0. 0. 0. 0. 0. 0. 0.],-0.0390625,0.02587890625,1.00146484375,[0. 0. 0. 0. 0. 0. 0. 0. 0.]
1.8394789695739746,-0.015361028723418713,-0.017283979803323746,0.13341553509235382,-0.9907904863357544,[0. 0. 0. 0. 0. 0. 0. 0. 0.],0.06103515625,-0.18310546875,0.0,[0. 0. 0. 0. 0. 0. 0. 0. 0.],-0.03857421875,0.02587890625,1.00439453125,[0. 0. 0. 0. 0. 0. 0. 0. 0.]
1.857527732849121,-0.01537944283336401,-0.016821157187223434,0.13344648480415344,-0.9907940030097961,[0. 0. 0. 0. 0. 0. 0. 0. 0.],-0.3662109375,-0.48828125,-0.06103515625,[0. 0. 0. 0. 0. 0. 0. 0. 0.],-0.03759765625,0.0263671875,1.00439453125,[0. 0. 0. 0. 0. 0. 0. 0. 0.]
1.8751330375671387,-0.015259449370205402,-0.017425544559955597,0.1334848701953888,-0.9907801747322083,[0. 0. 0. 0. 0. 0. 0. 0. 0.],-0.18310546875,-1.0986328125,-0.244140625,[0. 0. 0. 0. 0. 0. 0. 0. 0.],-0.03955078125,0.02587890625,1.0068359375,[0. 0. 0. 0. 0. 0. 0. 0. 0.]
1.897012710571289,-0.014458881691098213,-0.01729409582912922,0.13353465497493744,-0.9907878041267395,[0. 0. 0. 0. 0. 0. 0. 0. 0.],0.244140625,-0.67138671875,-0.1220703125,[0. 0. 0. 0. 0. 0. 0. 0. 0.],-0.03857421875,0.02392578125,1.00439453125,[0. 0. 0. 0. 0. 0. 0. 0. 0.]
1.9194741249084473,-0.01515890285372734,-0.01610848307609558,0.1335056722164154,-0.990801215171814,[0. 0. 0. 0. 0. 0. 0. 0. 0.],0.06103515625,-0.42724609375,0.1220703125,[0. 0. 0. 0. 0. 0. 0. 0. 0.],-0.0361328125,0.02587890625,1.00390625,[0. 0. 0. 0. 0. 0. 0. 0. 0.]
1.9399619102478027,-0.016069546341896057,-0.01715237833559513,0.13350963592529297,-0.9907687306404114,[0. 0. 0. 0. 0. 0. 0. 0. 0.],-0.244140625,-0.54931640625,0.0,[0. 0. 0. 0. 0. 0. 0. 0. 0.],-0.03857421875,0.02734375,1.005859375,[0. 0. 0. 0. 0. 0. 0. 0. 0.]
1.9596858024597168,-0.014921830967068672,-0.016055302694439888,0.13354243338108063,-0.990800678730011,[0. 0. 0. 0. 0. 0. 0. 0. 0.],-0.18310546875,-0.732421875,-0.1220703125,[0. 0. 0. 0. 0. 0. 0. 0. 0.],-0.0361328125,0.025390625,1.0029296875,[0. 0. 0. 0. 0. 0. 0. 0. 0.]
1.9795756340026855,-0.014330989681184292,-0.017240159213542938,0.13360966742038727,-0.9907804727554321,[0. 0. 0. 0. 0. 0. 0. 0. 0.],0.18310546875,-0.8544921875,-0.244140625,[0. 0. 0. 0. 0. 0. 0. 0. 0.],-0.0390625,0.02392578125,1.0048828125,[0. 0. 0. 0. 0. 0. 0. 0. 0.]
1.999537706375122,-0.01578688435256481,-0.01692383736371994,0.13361141085624695,-0.9907635450363159,[0. 0. 0. 0. 0. 0. 0. 0. 0.],0.1220703125,-0.732421875,-0.18310546875,[0. 0. 0. 0. 0. 0. 0. 0. 0.],-0.0380859375,0.02685546875,1.00537109375,[0. 0. 0. 0. 0. 0. 0. 0. 0.]
2.0210118293762207,-0.016142142936587334,-0.017871219664812088,0.13364791870117188,-0.9907362461090088,[0. 0. 0. 0. 0. 0. 0. 0. 0.],-0.18310546875,-1.03759765625,-0.18310546875,[0. 0. 0. 0. 0. 0. 0. 0. 0.],-0.03857421875,0.0263671875,1.0029296875,[0. 0. 0. 0. 0. 0. 0. 0. 0.]
2.0406973361968994,-0.0150630883872509,-0.016870932653546333,0.13367486000061035,-0.990767240524292,[0. 0. 0. 0. 0. 0. 0. 0. 0.],-0.18310546875,-0.54931640625,-0.244140625,[0. 0. 0. 0. 0. 0. 0. 0. 0.],-0.037109375,0.02490234375,1.005859375,[0. 0. 0. 0. 0. 0. 0. 0. 0.]
2.059936761856079,-0.014264151453971863,-0.01642531342804432,0.13370321691036224,-0.9907826781272888,[0. 0. 0. 0. 0. 0. 0. 0. 0.],0.18310546875,-0.1220703125,-0.1220703125,[0. 0. 0. 0. 0. 0. 0. 0. 0.],-0.03662109375,0.02392578125,1.0048828125,[0. 0. 0. 0. 0. 0. 0. 0. 0.]
2.0814385414123535,-0.015453096479177475,-0.01714015007019043,0.13372021913528442,-0.9907504320144653,[0. 0. 0. 0. 0. 0. 0. 0. 0.],-0.06103515625,-0.42724609375,-0.06103515625,[0. 0. 0. 0. 0. 0. 0. 0. 0.],-0.03857421875,0.0263671875,1.00341796875,[0. 0. 0. 0. 0. 0. 0. 0. 0.]
2.101309299468994,-0.01519691664725542,-0.018305717036128044,0.13376553356647491,-0.9907273650169373,[0. 0. 0. 0. 0. 0. 0. 0. 0.],-0.30517578125,-1.03759765625,-0.30517578125,[0. 0. 0. 0. 0. 0. 0. 0. 0.],-0.04052734375,0.025390625,1.0029296875,[0. 0. 0. 0. 0. 0. 0. 0. 0.]
2.120875597000122,-0.01519087702035904,-0.016913821920752525,0.13377873599529266,-0.9907505512237549,[0. 0. 0. 0. 0. 0. 0. 0. 0.],-0.06103515625,-0.8544921875,-0.30517578125,[0. 0. 0. 0. 0. 0. 0. 0. 0.],-0.037109375,0.025390625,1.00390625,[0. 0. 0. 0. 0. 0. 0. 0. 0.]
2.1397337913513184,-0.015427429229021072,-0.017740707844495773,0.13380376994609833,-0.9907289743423462,[0. 0. 0. 0. 0. 0. 0. 0. 0.],0.0,-0.30517578125,-0.1220703125,[0. 0. 0. 0. 0. 0. 0. 0. 0.],-0.0400390625,0.02587890625,1.0048828125,[0. 0. 0. 0. 0. 0. 0. 0. 0.]
2.1595215797424316,-0.01479590404778719,-0.017102153971791267,0.1338372826576233,-0.9907452464103699,[0. 0. 0. 0. 0. 0. 0. 0. 0.],-0.06103515625,-0.30517578125,-0.1220703125,[0. 0. 0. 0. 0. 0. 0. 0. 0.],-0.0380859375,0.02490234375,1.00390625,[0. 0. 0. 0. 0. 0. 0. 0. 0.]
2.179363965988159,-0.014065933413803577,-0.017190128564834595,0.1338822990655899,-0.9907483458518982,[0. 0. 0. 0. 0. 0. 0. 0. 0.],-0.18310546875,-0.91552734375,-0.06103515625,[0. 0. 0. 0. 0. 0. 0. 0. 0.],-0.03857421875,0.0234375,1.00390625,[0. 0. 0. 0. 0. 0. 0. 0. 0.]
2.2011775970458984,-0.015233434736728668,-0.016967229545116425,0.1338971108198166,-0.9907329678535461,[0. 0. 0. 0. 0. 0. 0. 0. 0.],0.30517578125,-0.6103515625,-0.18310546875,[0. 0. 0. 0. 0. 0. 0. 0. 0.],-0.0380859375,0.02587890625,1.00634765625,[0. 0. 0. 0. 0. 0. 0. 0. 0.]
2.2197389602661133,-0.015002577565610409,-0.016963684931397438,0.13393591344356537,-0.9907312989234924,[0. 0. 0. 0. 0. 0. 0. 0. 0.],0.1220703125,-0.79345703125,-0.244140625,[0. 0. 0. 0. 0. 0. 0. 0. 0.],-0.0380859375,0.025390625,1.0048828125,[0. 0. 0. 0. 0. 0. 0. 0. 0.]
2.239961624145508,-0.015680765733122826,-0.016780344769358635,0.1339297592639923,-0.9907246828079224,[0. 0. 0. 0. 0. 0. 0. 0. 0.],-0.244140625,-0.54931640625,-0.244140625,[0. 0. 0. 0. 0. 0. 0. 0. 0.],-0.03759765625,0.02685546875,1.001953125,[0. 0. 0. 0. 0. 0. 0. 0. 0.]
2.2596654891967773,-0.015355872921645641,-0.016703324392437935,0.13396324217319489,-0.9907265305519104,[0. 0. 0. 0. 0. 0. 0. 0. 0.],-0.42724609375,-0.54931640625,0.0,[0. 0. 0. 0. 0. 0. 0. 0. 0.],-0.037109375,0.0263671875,1.005859375,[0. 0. 0. 0. 0. 0. 0. 0. 0.]
2.2812142372131348,-0.015316721983253956,-0.017431864514946938,0.13401907682418823,-0.9907070994377136,[0. 0. 0. 0. 0. 0. 0. 0. 0.],0.18310546875,-0.244140625,-0.18310546875,[0. 0. 0. 0. 0. 0. 0. 0. 0.],-0.0390625,0.02587890625,1.00537109375,[0. 0. 0. 0. 0. 0. 0. 0. 0.]
2.299927234649658,-0.015117786824703217,-0.016530489549040794,0.1340487152338028,-0.990721583366394,[0. 0. 0. 0. 0. 0. 0. 0. 0.],0.244140625,-0.67138671875,-0.06103515625,[0. 0. 0. 0. 0. 0. 0. 0. 0.],-0.037109375,0.025390625,1.0048828125,[0. 0. 0. 0. 0. 0. 0. 0. 0.]
2.3202502727508545,-0.014849216677248478,-0.017134694382548332,0.1340976357460022,-0.9907087087631226,[0. 0. 0. 0. 0. 0. 0. 0. 0.],-0.244140625,-1.15966796875,-0.244140625,[0. 0. 0. 0. 0. 0. 0. 0. 0.],-0.0380859375,0.025390625,1.0048828125,[0. 0. 0. 0. 0. 0. 0. 0. 0.]
2.3394274711608887,-0.01547517254948616,-0.016848789528012276,0.13409891724586487,-0.9907038807868958,[0. 0. 0. 0. 0. 0. 0. 0. 0.],-0.30517578125,-0.42724609375,-0.18310546875,[0. 0. 0. 0. 0. 0. 0. 0. 0.],-0.0380859375,0.0263671875,1.00732421875,[0. 0. 0. 0. 0. 0. 0. 0. 0.]
2.3597679138183594,-0.014819348230957985,-0.0162343792617321,0.13413284718990326,-0.9907196164131165,[0. 0. 0. 0. 0. 0. 0. 0. 0.],0.30517578125,-0.42724609375,-0.06103515625,[0. 0. 0. 0. 0. 0. 0. 0. 0.],-0.03662109375,0.025390625,1.00634765625,[0. 0. 0. 0. 0. 0. 0. 0. 0.]
2.3794267177581787,-0.014524641446769238,-0.016126448288559914,0.1341661810874939,-0.9907211661338806,[0. 0. 0. 0. 0. 0. 0. 0. 0.],0.1220703125,-0.67138671875,-0.18310546875,[0. 0. 0. 0. 0. 0. 0. 0. 0.],-0.03662109375,0.0244140625,1.0068359375,[0. 0. 0. 0. 0. 0. 0. 0. 0.]
2.4041037559509277,-0.015994274988770485,-0.017401043325662613,0.1341896802186966,-0.990673840045929,[0. 0. 0. 0. 0. 0. 0. 0. 0.],-0.18310546875,-0.91552734375,-0.06103515625,[0. 0. 0. 0. 0. 0. 0. 0. 0.],-0.0390625,0.02685546875,1.0068359375,[0. 0. 0. 0. 0. 0. 0. 0. 0.]
2.4195497035980225,-0.015412124805152416,-0.0168757326900959,0.13420282304286957,-0.990690290927887,[0. 0. 0. 0. 0. 0. 0. 0. 0.],-0.30517578125,-0.79345703125,-0.18310546875,[0. 0. 0. 0. 0. 0. 0. 0. 0.],-0.0380859375,0.0263671875,1.0048828125,[0. 0. 0. 0. 0. 0. 0. 0. 0.]
2.440232992172241,-0.015614558011293411,-0.017380407080054283,0.13423773646354675,-0.9906736612319946,[0. 0. 0. 0. 0. 0. 0. 0. 0.],0.18310546875,-0.1220703125,-0.06103515625,[0. 0. 0. 0. 0. 0. 0. 0. 0.],-0.0390625,0.02685546875,1.00244140625,[0. 0. 0. 0. 0. 0. 0. 0. 0.]
2.4596004486083984,-0.015527546405792236,-0.01808246783912182,0.1342807412147522,-0.9906566739082336,[0. 0. 0. 0. 0. 0. 0. 0. 0.],0.1220703125,-0.30517578125,-0.06103515625,[0. 0. 0. 0. 0. 0. 0. 0. 0.],-0.0400390625,0.02587890625,1.0029296875,[0. 0. 0. 0. 0. 0. 0. 0. 0.]
2.482712507247925,-0.015856098383665085,-0.01792370155453682,0.13429193198680878,-0.9906527996063232,[0. 0. 0. 0. 0. 0. 0. 0. 0.],-0.30517578125,-0.54931640625,0.1220703125,[0. 0. 0. 0. 0. 0. 0. 0. 0.],-0.0400390625,0.02587890625,1.0029296875,[0. 0. 0. 0. 0. 0. 0. 0. 0.]
2.4995901584625244,-0.015443047508597374,-0.017583781853318214,0.13432885706424713,-0.9906604290008545,[0. 0. 0. 0. 0. 0. 0. 0. 0.],0.06103515625,-1.03759765625,-0.244140625,[0. 0. 0. 0. 0. 0. 0. 0. 0.],-0.0390625,0.02587890625,1.00390625,[0. 0. 0. 0. 0. 0. 0. 0. 0.]
2.519979476928711,-0.01537046767771244,-0.017386185005307198,0.1343568116426468,-0.9906613230705261,[0. 0. 0. 0. 0. 0. 0. 0. 0.],0.0,-0.732421875,-0.244140625,[0. 0. 0. 0. 0. 0. 0. 0. 0.],-0.0390625,0.025390625,1.0048828125,[0. 0. 0. 0. 0. 0. 0. 0. 0.]
2.5408356189727783,-0.015051469206809998,-0.0170657467097044,0.1344040036201477,-0.9906653165817261,[0. 0. 0. 0. 0. 0. 0. 0. 0.],-0.30517578125,-0.91552734375,-0.3662109375,[0. 0. 0. 0. 0. 0. 0. 0. 0.],-0.0380859375,0.025390625,1.00390625,[0. 0. 0. 0. 0. 0. 0. 0. 0.]
2.560269594192505,-0.015086306259036064,-0.017244111746549606,0.13442541658878326,-0.9906588792800903,[0. 0. 0. 0. 0. 0. 0. 0. 0.],-0.42724609375,-0.67138671875,-0.18310546875,[0. 0. 0. 0. 0. 0. 0. 0. 0.],-0.03857421875,0.025390625,1.00244140625,[0. 0. 0. 0. 0. 0. 0. 0. 0.]
2.5794785022735596,-0.01542111486196518,-0.017830612137913704,0.1344493180513382,-0.9906400442123413,[0. 0. 0. 0. 0. 0. 0. 0. 0.],0.1220703125,-0.48828125,0.0,[0. 0. 0. 0. 0. 0. 0. 0. 0.],-0.03955078125,0.02587890625,1.00048828125,[0. 0. 0. 0. 0. 0. 0. 0. 0.]
2.598540782928467,-0.01583251729607582,-0.01685798168182373,0.1344662308692932,-0.9906482696533203,[0. 0. 0. 0. 0. 0. 0. 0. 0.],0.1220703125,-0.6103515625,-0.1220703125,[0. 0. 0. 0. 0. 0. 0. 0. 0.],-0.0380859375,0.02685546875,1.00537109375,[0. 0. 0. 0. 0. 0. 0. 0. 0.]
2.623641014099121,-0.015437480993568897,-0.016517510637640953,0.13448859751224518,-0.9906572699546814,[0. 0. 0. 0. 0. 0. 0. 0. 0.],-0.244140625,-0.8544921875,-0.244140625,[0. 0. 0. 0. 0. 0. 0. 0. 0.],-0.03759765625,0.02685546875,1.0048828125,[0. 0. 0. 0. 0. 0. 0. 0. 0.]
2.639829635620117,-0.015453580766916275,-0.01682830974459648,0.1345309466123581,-0.9906460642814636,[0. 0. 0. 0. 0. 0. 0. 0. 0.],-0.3662109375,-0.8544921875,-0.30517578125,[0. 0. 0. 0. 0. 0. 0. 0. 0.],-0.03759765625,0.0263671875,1.0048828125,[0. 0. 0. 0. 0. 0. 0. 0. 0.]
2.660121440887451,-0.01579243876039982,-0.01657579466700554,0.13454514741897583,-0.9906429648399353,[0. 0. 0. 0. 0. 0. 0. 0. 0.],0.1220703125,-0.18310546875,-0.1220703125,[0. 0. 0. 0. 0. 0. 0. 0. 0.],-0.03759765625,0.02685546875,1.0048828125,[0. 0. 0. 0. 0. 0. 0. 0. 0.]
2.6799933910369873,-0.015707645565271378,-0.01695028319954872,0.13457894325256348,-0.9906334280967712,[0. 0. 0. 0. 0. 0. 0. 0. 0.],0.30517578125,-0.67138671875,-0.1220703125,[0. 0. 0. 0. 0. 0. 0. 0. 0.],-0.0380859375,0.0263671875,1.005859375,[0. 0. 0. 0. 0. 0. 0. 0. 0.]
2.6994528770446777,-0.014968005008995533,-0.017148280516266823,0.13462942838668823,-0.9906346201896667,[0. 0. 0. 0. 0. 0. 0. 0. 0.],-0.244140625,-1.0986328125,-0.18310546875,[0. 0. 0. 0. 0. 0. 0. 0. 0.],-0.03857421875,0.02490234375,1.00537109375,[0. 0. 0. 0. 0. 0. 0. 0. 0.]
2.7179367542266846,-0.01490565575659275,-0.0162705909460783,0.13465608656406403,-0.9906467199325562,[0. 0. 0. 0. 0. 0. 0. 0. 0.],-0.30517578125,-1.15966796875,-0.18310546875,[0. 0. 0. 0. 0. 0. 0. 0. 0.],-0.03662109375,0.025390625,1.005859375,[0. 0. 0. 0. 0. 0. 0. 0. 0.]
2.7395827770233154,-0.015004855580627918,-0.017008475959300995,0.13466790318489075,-0.9906311631202698,[0. 0. 0. 0. 0. 0. 0. 0. 0.],0.1220703125,-0.1220703125,0.0,[0. 0. 0. 0. 0. 0. 0. 0. 0.],-0.03759765625,0.025390625,1.0029296875,[0. 0. 0. 0. 0. 0. 0. 0. 0.]
2.760061264038086,-0.01561980601400137,-0.017979517579078674,0.13468296825885773,-0.9906024932861328,[0. 0. 0. 0. 0. 0. 0. 0. 0.],0.06103515625,-0.3662109375,0.18310546875,[0. 0. 0. 0. 0. 0. 0. 0. 0.],-0.03955078125,0.0263671875,1.0048828125,[0. 0. 0. 0. 0. 0. 0. 0. 0.]
2.7795472145080566,-0.014270436018705368,-0.017554450780153275,0.1347266584634781,-0.9906246066093445,[0. 0. 0. 0. 0. 0. 0. 0. 0.],0.0,-1.03759765625,-0.18310546875,[0. 0. 0. 0. 0. 0. 0. 0. 0.],-0.0390625,0.0234375,1.0048828125,[0. 0. 0. 0. 0. 0. 0. 0. 0.]
2.8000080585479736,-0.014518207870423794,-0.017217513173818588,0.13475939631462097,-0.9906224012374878,[0. 0. 0. 0. 0. 0. 0. 0. 0.],0.06103515625,-0.91552734375,-0.30517578125,[0. 0. 0. 0. 0. 0. 0. 0. 0.],-0.0380859375,0.0244140625,1.0048828125,[0. 0. 0. 0. 0. 0. 0. 0. 0.]
2.8195016384124756,-0.015159353613853455,-0.016319798305630684,0.13475891947746277,-0.9906280636787415,[0. 0. 0. 0. 0. 0. 0. 0. 0.],0.06103515625,-0.48828125,-0.3662109375,[0. 0. 0. 0. 0. 0. 0. 0. 0.],-0.037109375,0.02587890625,1.00537109375,[0. 0. 0. 0. 0. 0. 0. 0. 0.]
2.839489698410034,-0.01513679325580597,-0.017665991559624672,0.13481315970420837,-0.9905979037284851,[0. 0. 0. 0. 0. 0. 0. 0. 0.],-0.06103515625,-0.1220703125,-0.1220703125,[0. 0. 0. 0. 0. 0. 0. 0. 0.],-0.0390625,0.02490234375,1.00390625,[0. 0. 0. 0. 0. 0. 0. 0. 0.]
2.85697340965271,-0.01579776406288147,-0.016449058428406715,0.13481873273849487,-0.9906077980995178,[0. 0. 0. 0. 0. 0. 0. 0. 0.],-0.244140625,-0.732421875,0.0,[0. 0. 0. 0. 0. 0. 0. 0. 0.],-0.037109375,0.02685546875,1.0048828125,[0. 0. 0. 0. 0. 0. 0. 0. 0.]
2.8752682209014893,-0.015210689976811409,-0.017049413174390793,0.13487675786018372,-0.9905989766120911,[0. 0. 0. 0. 0. 0. 0. 0. 0.],-0.06103515625,-1.220703125,-0.18310546875,[0. 0. 0. 0. 0. 0. 0. 0. 0.],-0.0380859375,0.02587890625,1.0048828125,[0. 0. 0. 0. 0. 0. 0. 0. 0.]
2.899467945098877,-0.014983821660280228,-0.0162871815264225,0.13488852977752686,-0.9906136393547058,[0. 0. 0. 0. 0. 0. 0. 0. 0.],0.06103515625,-0.732421875,-0.244140625,[0. 0. 0. 0. 0. 0. 0. 0. 0.],-0.03662109375,0.025390625,1.005859375,[0. 0. 0. 0. 0. 0. 0. 0. 0.]
2.919773578643799,-0.014558831229805946,-0.017936287447810173,0.13492250442504883,-0.9905868768692017,[0. 0. 0. 0. 0. 0. 0. 0. 0.],-0.244140625,-0.48828125,0.06103515625,[0. 0. 0. 0. 0. 0. 0. 0. 0.],-0.03955078125,0.0244140625,1.005859375,[0. 0. 0. 0. 0. 0. 0. 0. 0.]
2.943660259246826,-0.015049572102725506,-0.017002495005726814,0.13493575155735016,-0.990594208240509,[0. 0. 0. 0. 0. 0. 0. 0. 0.],-0.3662109375,-0.48828125,-0.06103515625,[0. 0. 0. 0. 0. 0. 0. 0. 0.],-0.0380859375,0.025390625,1.0068359375,[0. 0. 0. 0. 0. 0. 0. 0. 0.]
2.9595253467559814,-0.015578724443912506,-0.016826245933771133,0.13495108485221863,-0.9905869364738464,[0. 0. 0. 0. 0. 0. 0. 0. 0.],-0.06103515625,-0.244140625,0.0,[0. 0. 0. 0. 0. 0. 0. 0. 0.],-0.03857421875,0.02734375,1.00439453125,[0. 0. 0. 0. 0. 0. 0. 0. 0.]
2.979593515396118,-0.0154802231118083,-0.016585223376750946,0.13498474657535553,-0.9905879497528076,[0. 0. 0. 0. 0. 0. 0. 0. 0.],0.3662109375,-0.54931640625,-0.06103515625,[0. 0. 0. 0. 0. 0. 0. 0. 0.],-0.03662109375,0.0263671875,1.00439453125,[0. 0. 0. 0. 0. 0. 0. 0. 0.]
2.999924421310425,-0.015538952313363552,-0.01693287119269371,0.13501444458961487,-0.9905771017074585,[0. 0. 0. 0. 0. 0. 0. 0. 0.],-0.06103515625,-1.03759765625,-0.1220703125,[0. 0. 0. 0. 0. 0. 0. 0. 0.],-0.0380859375,0.0263671875,1.00439453125,[0. 0. 0. 0. 0. 0. 0. 0. 0.]
3.0198748111724854,-0.014912592247128487,-0.01739109680056572,0.13504472374916077,-0.9905746579170227,[0. 0. 0. 0. 0. 0. 0. 0. 0.],-0.42724609375,-0.9765625,-0.244140625,[0. 0. 0. 0. 0. 0. 0. 0. 0.],-0.03857421875,0.02490234375,1.00341796875,[0. 0. 0. 0. 0. 0. 0. 0. 0.]
3.0396945476531982,-0.014738312922418118,-0.017576120793819427,0.1350763887166977,-0.9905697107315063,[0. 0. 0. 0. 0. 0. 0. 0. 0.],0.06103515625,-0.244140625,-0.1220703125,[0. 0. 0. 0. 0. 0. 0. 0. 0.],-0.0390625,0.0244140625,1.0029296875,[0. 0. 0. 0. 0. 0. 0. 0. 0.]
3.061983823776245,-0.015238801948726177,-0.01692916639149189,0.13509704172611237,-0.9905705451965332,[0. 0. 0. 0. 0. 0. 0. 0. 0.],0.1220703125,-0.3662109375,-0.06103515625,[0. 0. 0. 0. 0. 0. 0. 0. 0.],-0.0380859375,0.02587890625,1.00390625,[0. 0. 0. 0. 0. 0. 0. 0. 0.]
3.0801069736480713,-0.015431851148605347,-0.017192397266626358,0.13512322306632996,-0.990559458732605,[0. 0. 0. 0. 0. 0. 0. 0. 0.],-0.1220703125,-0.8544921875,0.0,[0. 0. 0. 0. 0. 0. 0. 0. 0.],-0.0390625,0.02490234375,1.0048828125,[0. 0. 0. 0. 0. 0. 0. 0. 0.]
3.1002814769744873,-0.014975710771977901,-0.016576748341321945,0.13515396416187286,-0.9905727505683899,[0. 0. 0. 0. 0. 0. 0. 0. 0.],-0.18310546875,-1.220703125,-0.30517578125,[0. 0. 0. 0. 0. 0. 0. 0. 0.],-0.037109375,0.025390625,1.005859375,[0. 0. 0. 0. 0. 0. 0. 0. 0.]
3.1199588775634766,-0.015367666259407997,-0.017195893451571465,0.13518112897872925,-0.9905524849891663,[0. 0. 0. 0. 0. 0. 0. 0. 0.],0.0,-0.6103515625,-0.244140625,[0. 0. 0. 0. 0. 0. 0. 0. 0.],-0.03857421875,0.0263671875,1.0048828125,[0. 0. 0. 0. 0. 0. 0. 0. 0.]
3.139768123626709,-0.015740619972348213,-0.01812088117003441,0.13520973920822144,-0.9905263185501099,[0. 0. 0. 0. 0. 0. 0. 0. 0.],0.0,-0.1220703125,-0.1220703125,[0. 0. 0. 0. 0. 0. 0. 0. 0.],-0.0400390625,0.0263671875,1.00146484375,[0. 0. 0. 0. 0. 0. 0. 0. 0.]
3.1605119705200195,-0.015742268413305283,-0.017535464838147163,0.13523711264133453,-0.9905330538749695,[0. 0. 0. 0. 0. 0. 0. 0. 0.],-0.06103515625,-0.732421875,-0.06103515625,[0. 0. 0. 0. 0. 0. 0. 0. 0.],-0.03955078125,0.02685546875,1.00537109375,[0. 0. 0. 0. 0. 0. 0. 0. 0.]
3.1796703338623047,-0.015695720911026,-0.01644928939640522,0.13526508212089539,-0.9905484914779663,[0. 0. 0. 0. 0. 0. 0. 0. 0.],-0.06103515625,-0.91552734375,-0.244140625,[0. 0. 0. 0. 0. 0. 0. 0. 0.],-0.037109375,0.0263671875,1.00537109375,[0. 0. 0. 0. 0. 0. 0. 0. 0.]
3.194983959197998,-0.015912355855107307,-0.01698324829339981,0.1353023201227188,-0.9905310869216919,[0. 0. 0. 0. 0. 0. 0. 0. 0.],0.06103515625,-0.79345703125,-0.42724609375,[0. 0. 0. 0. 0. 0. 0. 0. 0.],-0.0380859375,0.02685546875,1.00390625,[0. 0. 0. 0. 0. 0. 0. 0. 0.]
3.2197277545928955,-0.015188533812761307,-0.0175910796970129,0.13534565269947052,-0.9905259013175964,[0. 0. 0. 0. 0. 0. 0. 0. 0.],-0.1220703125,-0.48828125,-0.1220703125,[0. 0. 0. 0. 0. 0. 0. 0. 0.],-0.0390625,0.025390625,1.0029296875,[0. 0. 0. 0. 0. 0. 0. 0. 0.]
3.2406718730926514,-0.015263923443853855,-0.01651265285909176,0.135353684425354,-0.9905422329902649,[0. 0. 0. 0. 0. 0. 0. 0. 0.],-0.3662109375,-0.42724609375,-0.1220703125,[0. 0. 0. 0. 0. 0. 0. 0. 0.],-0.037109375,0.02587890625,1.00390625,[0. 0. 0. 0. 0. 0. 0. 0. 0.]
3.2615747451782227,-0.016021855175495148,-0.018295660614967346,0.13540346920490265,-0.9904921054840088,[0. 0. 0. 0. 0. 0. 0. 0. 0.],0.06103515625,-0.30517578125,-0.1220703125,[0. 0. 0. 0. 0. 0. 0. 0. 0.],-0.0400390625,0.02685546875,1.00439453125,[0. 0. 0. 0. 0. 0. 0. 0. 0.]
3.281287431716919,-0.014892512001097202,-0.016921648755669594,0.13544248044490814,-0.9905288219451904,[0. 0. 0. 0. 0. 0. 0. 0. 0.],0.18310546875,-0.48828125,-0.06103515625,[0. 0. 0. 0. 0. 0. 0. 0. 0.],-0.03857421875,0.025390625,1.0048828125,[0. 0. 0. 0. 0. 0. 0. 0. 0.]
3.2996585369110107,-0.014824559912085533,-0.017751405015587807,0.13546864688396454,-0.9905116558074951,[0. 0. 0. 0. 0. 0. 0. 0. 0.],-0.18310546875,-0.91552734375,-0.18310546875,[0. 0. 0. 0. 0. 0. 0. 0. 0.],-0.03955078125,0.0244140625,1.00439453125,[0. 0. 0. 0. 0. 0. 0. 0. 0.]
3.3207738399505615,-0.015508271753787994,-0.016403118148446083,0.1354638785123825,-0.9905251264572144,[0. 0. 0. 0. 0. 0. 0. 0. 0.],-0.42724609375,-1.03759765625,-0.18310546875,[0. 0. 0. 0. 0. 0. 0. 0. 0.],-0.0361328125,0.02685546875,1.00439453125,[0. 0. 0. 0. 0. 0. 0. 0. 0.]
3.3395659923553467,-0.015397665090858936,-0.01680597849190235,0.13549388945102692,-0.9905160069465637,[0. 0. 0. 0. 0. 0. 0. 0. 0.],0.0,-0.18310546875,-0.1220703125,[0. 0. 0. 0. 0. 0. 0. 0. 0.],-0.0380859375,0.02587890625,1.0029296875,[0. 0. 0. 0. 0. 0. 0. 0. 0.]
3.3595807552337646,-0.014929566532373428,-0.01747819222509861,0.1355356127023697,-0.9905058145523071,[0. 0. 0. 0. 0. 0. 0. 0. 0.],0.30517578125,-0.3662109375,0.0,[0. 0. 0. 0. 0. 0. 0. 0. 0.],-0.03857421875,0.02490234375,1.00146484375,[0. 0. 0. 0. 0. 0. 0. 0. 0.]
3.3802924156188965,-0.015489781275391579,-0.017163414508104324,0.1355626881122589,-0.9904990792274475,[0. 0. 0. 0. 0. 0. 0. 0. 0.],0.0,-0.91552734375,-0.3662109375,[0. 0. 0. 0. 0. 0. 0. 0. 0.],-0.03857421875,0.0263671875,1.00439453125,[0. 0. 0. 0. 0. 0. 0. 0. 0.]
3.3996360301971436,-0.015477319248020649,-0.016756433993577957,0.13558751344680786,-0.9905028343200684,[0. 0. 0. 0. 0. 0. 0. 0. 0.],-0.6103515625,-1.03759765625,-0.30517578125,[0. 0. 0. 0. 0. 0. 0. 0. 0.],-0.03759765625,0.0263671875,1.0048828125,[0. 0. 0. 0. 0. 0. 0. 0. 0.]
3.4270758628845215,-0.014368845149874687,-0.01684948056936264,0.1356571912765503,-0.9905083179473877,[0. 0. 0. 0. 0. 0. 0. 0. 0.],0.06103515625,-0.79345703125,-0.30517578125,[0. 0. 0. 0. 0. 0. 0. 0. 0.],-0.03759765625,0.02392578125,1.00341796875,[0. 0. 0. 0. 0. 0. 0. 0. 0.]
3.4398772716522217,-0.015193850733339787,-0.017401931807398796,0.13567137718200684,-0.9904845952987671,[0. 0. 0. 0. 0. 0. 0. 0. 0.],-0.06103515625,-0.244140625,-0.06103515625,[0. 0. 0. 0. 0. 0. 0. 0. 0.],-0.0390625,0.025390625,1.00439453125,[0. 0. 0. 0. 0. 0. 0. 0. 0.]
3.4594216346740723,-0.015797562897205353,-0.01730789802968502,0.13569316267967224,-0.9904738068580627,[0. 0. 0. 0. 0. 0. 0. 0. 0.],-0.244140625,-0.54931640625,-0.06103515625,[0. 0. 0. 0. 0. 0. 0. 0. 0.],-0.0390625,0.02685546875,1.00390625,[0. 0. 0. 0. 0. 0. 0. 0. 0.]
3.4794318675994873,-0.014907055534422398,-0.018363451585173607,0.13575483858585358,-0.9904600977897644,[0. 0. 0. 0. 0. 0. 0. 0. 0.],-0.1220703125,-0.8544921875,-0.06103515625,[0. 0. 0. 0. 0. 0. 0. 0. 0.],-0.0400390625,0.02490234375,1.00146484375,[0. 0. 0. 0. 0. 0. 0. 0. 0.]
3.4995546340942383,-0.015782054513692856,-0.016894947737455368,0.13574032485485077,-0.9904747009277344,[0. 0. 0. 0. 0. 0. 0. 0. 0.],0.1220703125,-0.8544921875,-0.18310546875,[0. 0. 0. 0. 0. 0. 0. 0. 0.],-0.0380859375,0.02685546875,1.005859375,[0. 0. 0. 0. 0. 0. 0. 0. 0.]
3.519578456878662,-0.015092739835381508,-0.017204854637384415,0.1357872039079666,-0.990473747253418,[0. 0. 0. 0. 0. 0. 0. 0. 0.],-0.1220703125,-0.67138671875,-0.1220703125,[0. 0. 0. 0. 0. 0. 0. 0. 0.],-0.03857421875,0.02587890625,1.0068359375,[0. 0. 0. 0. 0. 0. 0. 0. 0.]
3.5396921634674072,-0.015818806365132332,-0.016935717314481735,0.1357903778553009,-0.9904665350914001,[0. 0. 0. 0. 0. 0. 0. 0. 0.],-0.244140625,-0.6103515625,-0.06103515625,[0. 0. 0. 0. 0. 0. 0. 0. 0.],-0.0380859375,0.02685546875,1.00341796875,[0. 0. 0. 0. 0. 0. 0. 0. 0.]
3.559577465057373,-0.01599312387406826,-0.017379725351929665,0.13581141829490662,-0.9904531836509705,[0. 0. 0. 0. 0. 0. 0. 0. 0.],-0.1220703125,-0.48828125,0.0,[0. 0. 0. 0. 0. 0. 0. 0. 0.],-0.03955078125,0.02734375,1.00439453125,[0. 0. 0. 0. 0. 0. 0. 0. 0.]
3.580249071121216,-0.015351910144090652,-0.017179375514388084,0.13585065305233002,-0.9904614686965942,[0. 0. 0. 0. 0. 0. 0. 0. 0.],0.30517578125,-0.732421875,-0.1220703125,[0. 0. 0. 0. 0. 0. 0. 0. 0.],-0.03759765625,0.02587890625,1.00439453125,[0. 0. 0. 0. 0. 0. 0. 0. 0.]
3.599560260772705,-0.015123900957405567,-0.017284393310546875,0.1358768790960312,-0.9904595017433167,[0. 0. 0. 0. 0. 0. 0. 0. 0.],-0.18310546875,-0.8544921875,-0.244140625,[0. 0. 0. 0. 0. 0. 0. 0. 0.],-0.03857421875,0.025390625,1.00390625,[0. 0. 0. 0. 0. 0. 0. 0. 0.]
3.6193654537200928,-0.01620270311832428,-0.016638487577438354,0.1358623504638672,-0.9904554486274719,[0. 0. 0. 0. 0. 0. 0. 0. 0.],-0.48828125,-0.732421875,-0.18310546875,[0. 0. 0. 0. 0. 0. 0. 0. 0.],-0.03759765625,0.02783203125,1.00390625,[0. 0. 0. 0. 0. 0. 0. 0. 0.]
3.6355981826782227,-0.014963115565478802,-0.017028186470270157,0.13593244552612305,-0.9904588460922241,[0. 0. 0. 0. 0. 0. 0. 0. 0.],-0.18310546875,-0.3662109375,-0.1220703125,[0. 0. 0. 0. 0. 0. 0. 0. 0.],-0.0380859375,0.02490234375,1.00244140625,[0. 0. 0. 0. 0. 0. 0. 0. 0.]
3.6617484092712402,-0.0149184949696064,-0.01691523939371109,0.13596180081367493,-0.9904573559761047,[0. 0. 0. 0. 0. 0. 0. 0. 0.],0.3662109375,-0.30517578125,-0.1220703125,[0. 0. 0. 0. 0. 0. 0. 0. 0.],-0.03759765625,0.025390625,1.00537109375,[0. 0. 0. 0. 0. 0. 0. 0. 0.]
3.6800649166107178,-0.014772579073905945,-0.017055682837963104,0.13598206639289856,-0.9904543161392212,[0. 0. 0. 0. 0. 0. 0. 0. 0.],0.0,-0.9765625,-0.06103515625,[0. 0. 0. 0. 0. 0. 0. 0. 0.],-0.03857421875,0.02490234375,1.00341796875,[0. 0. 0. 0. 0. 0. 0. 0. 0.]
3.699876308441162,-0.015471390448510647,-0.017540156841278076,0.13599909842014313,-0.9904327988624573,[0. 0. 0. 0. 0. 0. 0. 0. 0.],-0.3662109375,-1.03759765625,-0.244140625,[0. 0. 0. 0. 0. 0. 0. 0. 0.],-0.0390625,0.02587890625,1.001953125,[0. 0. 0. 0. 0. 0. 0. 0. 0.]
3.725226402282715,-0.015300995670258999,-0.0170443132519722,0.13602487742900848,-0.9904406666755676,[0. 0. 0. 0. 0. 0. 0. 0. 0.],-0.1220703125,-0.48828125,-0.18310546875,[0. 0. 0. 0. 0. 0. 0. 0. 0.],-0.0380859375,0.02587890625,1.00439453125,[0. 0. 0. 0. 0. 0. 0. 0. 0.]
3.7348921298980713,-0.015403258614242077,-0.01751859113574028,0.1360514611005783,-0.9904271364212036,[0. 0. 0. 0. 0. 0. 0. 0. 0.],0.1220703125,-0.1220703125,0.0,[0. 0. 0. 0. 0. 0. 0. 0. 0.],-0.0390625,0.02587890625,1.0029296875,[0. 0. 0. 0. 0. 0. 0. 0. 0.]
3.7598109245300293,-0.01513074804097414,-0.016438769176602364,0.13607469201087952,-0.9904466271400452,[0. 0. 0. 0. 0. 0. 0. 0. 0.],0.1220703125,-0.54931640625,-0.1220703125,[0. 0. 0. 0. 0. 0. 0. 0. 0.],-0.03759765625,0.02587890625,1.00244140625,[0. 0. 0. 0. 0. 0. 0. 0. 0.]
3.7752726078033447,-0.014913489110767841,-0.017525944858789444,0.1361122876405716,-0.9904261231422424,[0. 0. 0. 0. 0. 0. 0. 0. 0.],-0.3662109375,-1.03759765625,-0.1220703125,[0. 0. 0. 0. 0. 0. 0. 0. 0.],-0.0390625,0.02490234375,1.00439453125,[0. 0. 0. 0. 0. 0. 0. 0. 0.]
3.799467086791992,-0.014611532911658287,-0.015867391601204872,0.13613642752170563,-0.9904553294181824,[0. 0. 0. 0. 0. 0. 0. 0. 0.],-0.06103515625,-0.91552734375,-0.30517578125,[0. 0. 0. 0. 0. 0. 0. 0. 0.],-0.0361328125,0.0244140625,1.00537109375,[0. 0. 0. 0. 0. 0. 0. 0. 0.]
3.815479278564453,-0.01498330943286419,-0.017601927742362022,0.1361675262451172,-0.9904161691665649,[0. 0. 0. 0. 0. 0. 0. 0. 0.],0.244140625,-0.3662109375,-0.06103515625,[0. 0. 0. 0. 0. 0. 0. 0. 0.],-0.03857421875,0.02490234375,1.00341796875,[0. 0. 0. 0. 0. 0. 0. 0. 0.]
3.8406155109405518,-0.015083946287631989,-0.017692485824227333,0.1362008899450302,-0.9904083609580994,[0. 0. 0. 0. 0. 0. 0. 0. 0.],-0.244140625,-0.42724609375,-0.1220703125,[0. 0. 0. 0. 0. 0. 0. 0. 0.],-0.03955078125,0.025390625,1.001953125,[0. 0. 0. 0. 0. 0. 0. 0. 0.]
3.8619508743286133,-0.015421492978930473,-0.017759371548891068,0.13623128831386566,-0.9903978109359741,[0. 0. 0. 0. 0. 0. 0. 0. 0.],-0.244140625,-0.8544921875,-0.244140625,[0. 0. 0. 0. 0. 0. 0. 0. 0.],-0.03955078125,0.02587890625,1.00341796875,[0. 0. 0. 0. 0. 0. 0. 0. 0.]
3.87996768951416,-0.01578422449529171,-0.01676267758011818,0.13623692095279694,-0.990408718585968,[0. 0. 0. 0. 0. 0. 0. 0. 0.],0.3662109375,-0.732421875,-0.1220703125,[0. 0. 0. 0. 0. 0. 0. 0. 0.],-0.0380859375,0.02685546875,1.00439453125,[0. 0. 0. 0. 0. 0. 0. 0. 0.]
3.8998117446899414,-0.014869353733956814,-0.017051951959729195,0.13628734648227692,-0.9904109835624695,[0. 0. 0. 0. 0. 0. 0. 0. 0.],0.1220703125,-0.79345703125,-0.18310546875,[0. 0. 0. 0. 0. 0. 0. 0. 0.],-0.0380859375,0.02490234375,1.00390625,[0. 0. 0. 0. 0. 0. 0. 0. 0.]
3.919987916946411,-0.014904730021953583,-0.01657567359507084,0.13629759848117828,-0.9904171824455261,[0. 0. 0. 0. 0. 0. 0. 0. 0.],-0.54931640625,-0.91552734375,-0.18310546875,[0. 0. 0. 0. 0. 0. 0. 0. 0.],-0.037109375,0.025390625,1.00537109375,[0. 0. 0. 0. 0. 0. 0. 0. 0.]
3.9408273696899414,-0.015009702183306217,-0.01718241162598133,0.1363426297903061,-0.9903990626335144,[0. 0. 0. 0. 0. 0. 0. 0. 0.],-0.30517578125,-0.67138671875,-0.244140625,[0. 0. 0. 0. 0. 0. 0. 0. 0.],-0.03857421875,0.025390625,1.00244140625,[0. 0. 0. 0. 0. 0. 0. 0. 0.]
3.9549903869628906,-0.01560224499553442,-0.017401866614818573,0.13635003566741943,-0.9903849959373474,[0. 0. 0. 0. 0. 0. 0. 0. 0.],0.244140625,-0.244140625,-0.06103515625,[0. 0. 0. 0. 0. 0. 0. 0. 0.],-0.0390625,0.0263671875,1.0068359375,[0. 0. 0. 0. 0. 0. 0. 0. 0.]
3.981604814529419,-0.01488241832703352,-0.017300859093666077,0.13636988401412964,-0.9903951287269592,[0. 0. 0. 0. 0. 0. 0. 0. 0.],0.0,-0.48828125,0.0,[0. 0. 0. 0. 0. 0. 0. 0. 0.],-0.03857421875,0.02490234375,1.00537109375,[0. 0. 0. 0. 0. 0. 0. 0. 0.]
3.999525785446167,-0.015286226756870747,-0.01673712581396103,0.13637661933898926,-0.9903976917266846,[0. 0. 0. 0. 0. 0. 0. 0. 0.],-0.42724609375,-1.03759765625,-0.18310546875,[0. 0. 0. 0. 0. 0. 0. 0. 0.],-0.03759765625,0.02587890625,1.00390625,[0. 0. 0. 0. 0. 0. 0. 0. 0.]
4.019519567489624,-0.01580880768597126,-0.01673639938235283,0.1363900601863861,-0.9903876781463623,[0. 0. 0. 0. 0. 0. 0. 0. 0.],-0.244140625,-0.79345703125,-0.18310546875,[0. 0. 0. 0. 0. 0. 0. 0. 0.],-0.03759765625,0.02685546875,1.00341796875,[0. 0. 0. 0. 0. 0. 0. 0. 0.]
4.035057306289673,-0.014882722869515419,-0.016773473471403122,0.13643495738506317,-0.9903952479362488,[0. 0. 0. 0. 0. 0. 0. 0. 0.],0.244140625,-0.30517578125,-0.06103515625,[0. 0. 0. 0. 0. 0. 0. 0. 0.],-0.037109375,0.02490234375,1.00341796875,[0. 0. 0. 0. 0. 0. 0. 0. 0.]
4.066514730453491,-0.015782400965690613,-0.01727025955915451,0.1364685744047165,-0.9903681874275208,[0. 0. 0. 0. 0. 0. 0. 0. 0.],-0.18310546875,-0.3662109375,-0.244140625,[0. 0. 0. 0. 0. 0. 0. 0. 0.],-0.03857421875,0.02685546875,1.00390625,[0. 0. 0. 0. 0. 0. 0. 0. 0.]
4.079965829849243,-0.01533603947609663,-0.017443247139453888,0.13651730120182037,-0.9903653264045715,[0. 0. 0. 0. 0. 0. 0. 0. 0.],-0.1220703125,-1.0986328125,-0.244140625,[0. 0. 0. 0. 0. 0. 0. 0. 0.],-0.03857421875,0.0263671875,1.0048828125,[0. 0. 0. 0. 0. 0. 0. 0. 0.]
4.100632429122925,-0.01463011559098959,-0.01686401665210724,0.13656626641750336,-0.9903793334960938,[0. 0. 0. 0. 0. 0. 0. 0. 0.],0.1220703125,-0.8544921875,-0.18310546875,[0. 0. 0. 0. 0. 0. 0. 0. 0.],-0.03857421875,0.02392578125,1.00439453125,[0. 0. 0. 0. 0. 0. 0. 0. 0.]
4.1197028160095215,-0.015355173498392105,-0.01731138862669468,0.1365748941898346,-0.9903594255447388,[0. 0. 0. 0. 0. 0. 0. 0. 0.],-0.06103515625,-0.48828125,-0.244140625,[0. 0. 0. 0. 0. 0. 0. 0. 0.],-0.03857421875,0.02587890625,1.001953125,[0. 0. 0. 0. 0. 0. 0. 0. 0.]
4.139601230621338,-0.015742218121886253,-0.01661917380988598,0.13657473027706146,-0.9903653264045715,[0. 0. 0. 0. 0. 0. 0. 0. 0.],-0.244140625,-0.3662109375,0.0,[0. 0. 0. 0. 0. 0. 0. 0. 0.],-0.03759765625,0.02685546875,1.005859375,[0. 0. 0. 0. 0. 0. 0. 0. 0.]
4.160564422607422,-0.014960894361138344,-0.01722428761422634,0.13662785291671753,-0.9903596639633179,[0. 0. 0. 0. 0. 0. 0. 0. 0.],-0.30517578125,-0.67138671875,-0.06103515625,[0. 0. 0. 0. 0. 0. 0. 0. 0.],-0.03857421875,0.02490234375,1.00341796875,[0. 0. 0. 0. 0. 0. 0. 0. 0.]
4.180111646652222,-0.015632163733243942,-0.016801556572318077,0.13666047155857086,-0.9903520941734314,[0. 0. 0. 0. 0. 0. 0. 0. 0.],0.18310546875,-0.54931640625,-0.1220703125,[0. 0. 0. 0. 0. 0. 0. 0. 0.],-0.03759765625,0.0263671875,1.0048828125,[0. 0. 0. 0. 0. 0. 0. 0. 0.]
4.199523210525513,-0.014934446662664413,-0.016731491312384605,0.13670822978019714,-0.9903574585914612,[0. 0. 0. 0. 0. 0. 0. 0. 0.],0.0,-0.67138671875,-0.3662109375,[0. 0. 0. 0. 0. 0. 0. 0. 0.],-0.03759765625,0.0244140625,1.0029296875,[0. 0. 0. 0. 0. 0. 0. 0. 0.]
4.22076940536499,-0.015341836959123611,-0.01620377227663994,0.13671478629112244,-0.9903591871261597,[0. 0. 0. 0. 0. 0. 0. 0. 0.],-0.30517578125,-1.03759765625,-0.244140625,[0. 0. 0. 0. 0. 0. 0. 0. 0.],-0.0361328125,0.0263671875,1.00341796875,[0. 0. 0. 0. 0. 0. 0. 0. 0.]
4.2397544384002686,-0.015321426093578339,-0.016894493252038956,0.1367386430501938,-0.9903446435928345,[0. 0. 0. 0. 0. 0. 0. 0. 0.],-0.244140625,-0.48828125,-0.1220703125,[0. 0. 0. 0. 0. 0. 0. 0. 0.],-0.03857421875,0.02587890625,1.0048828125,[0. 0. 0. 0. 0. 0. 0. 0. 0.]
4.261863470077515,-0.015562383458018303,-0.017165644094347954,0.13676217198371887,-0.9903329610824585,[0. 0. 0. 0. 0. 0. 0. 0. 0.],0.3662109375,-0.54931640625,-0.06103515625,[0. 0. 0. 0. 0. 0. 0. 0. 0.],-0.03857421875,0.025390625,1.00341796875,[0. 0. 0. 0. 0. 0. 0. 0. 0.]
4.2759716510772705,-0.015286228619515896,-0.017082680016756058,0.13679595291614532,-0.9903340339660645,[0. 0. 0. 0. 0. 0. 0. 0. 0.],0.244140625,-0.732421875,-0.244140625,[0. 0. 0. 0. 0. 0. 0. 0. 0.],-0.03857421875,0.0263671875,1.005859375,[0. 0. 0. 0. 0. 0. 0. 0. 0.]
4.295526027679443,-0.014541481621563435,-0.016930583864450455,0.13682860136032104,-0.9903433918952942,[0. 0. 0. 0. 0. 0. 0. 0. 0.],-0.42724609375,-1.03759765625,-0.244140625,[0. 0. 0. 0. 0. 0. 0. 0. 0.],-0.037109375,0.02490234375,1.00634765625,[0. 0. 0. 0. 0. 0. 0. 0. 0.]
4.3208513259887695,-0.015941264107823372,-0.01784643903374672,0.13684120774269104,-0.9903039336204529,[0. 0. 0. 0. 0. 0. 0. 0. 0.],-0.30517578125,-0.67138671875,-0.18310546875,[0. 0. 0. 0. 0. 0. 0. 0. 0.],-0.04052734375,0.02783203125,1.001953125,[0. 0. 0. 0. 0. 0. 0. 0. 0.]
4.340078115463257,-0.015471173450350761,-0.017688104882836342,0.1368895024061203,-0.9903075695037842,[0. 0. 0. 0. 0. 0. 0. 0. 0.],0.0,-0.3662109375,-0.244140625,[0. 0. 0. 0. 0. 0. 0. 0. 0.],-0.03759765625,0.025390625,1.005859375,[0. 0. 0. 0. 0. 0. 0. 0. 0.]
4.359563589096069,-0.016001207754015923,-0.01771707274019718,0.1369076669216156,-0.9902961254119873,[0. 0. 0. 0. 0. 0. 0. 0. 0.],-0.244140625,-0.48828125,-0.1220703125,[0. 0. 0. 0. 0. 0. 0. 0. 0.],-0.03955078125,0.02685546875,1.00537109375,[0. 0. 0. 0. 0. 0. 0. 0. 0.]
4.37947416305542,-0.015064003877341747,-0.018375778570771217,0.13695481419563293,-0.9902923703193665,[0. 0. 0. 0. 0. 0. 0. 0. 0.],-0.244140625,-0.8544921875,-0.06103515625,[0. 0. 0. 0. 0. 0. 0. 0. 0.],-0.041015625,0.02490234375,1.0048828125,[0. 0. 0. 0. 0. 0. 0. 0. 0.]
4.400323867797852,-0.01566268503665924,-0.017600437626242638,0.1369682401418686,-0.9902952313423157,[0. 0. 0. 0. 0. 0. 0. 0. 0.],0.06103515625,-0.9765625,-0.244140625,[0. 0. 0. 0. 0. 0. 0. 0. 0.],-0.03857421875,0.02685546875,1.0048828125,[0. 0. 0. 0. 0. 0. 0. 0. 0.]
4.420506238937378,-0.015504331327974796,-0.016530891880393028,0.13696947693824768,-0.9903160333633423,[0. 0. 0. 0. 0. 0. 0. 0. 0.],0.0,-0.18310546875,-0.06103515625,[0. 0. 0. 0. 0. 0. 0. 0. 0.],-0.03759765625,0.0263671875,1.0048828125,[0. 0. 0. 0. 0. 0. 0. 0. 0.]
4.43653130531311,-0.014999732375144958,-0.017330149188637733,0.1370248794555664,-0.9903023838996887,[0. 0. 0. 0. 0. 0. 0. 0. 0.],-0.18310546875,1.28173828125,-0.6103515625,[0. 0. 0. 0. 0. 0. 0. 0. 0.],-0.037109375,0.02587890625,1.00341796875,[0. 0. 0. 0. 0. 0. 0. 0. 0.]
4.459967136383057,-0.01507437601685524,-0.015697896480560303,0.13744482398033142,-0.9902703166007996,[0. 0. 0. 0. 0. 0. 0. 0. 0.],-0.244140625,1.8310546875,-4.0283203125,[0. 0. 0. 0. 0. 0. 0. 0. 0.],-0.02880859375,0.0283203125,1.001953125,[0. 0. 0. 0. 0. 0. 0. 0. 0.]
4.480922222137451,-0.015880893915891647,-0.01690279133617878,0.13834430277347565,-0.9901126027107239,[0. 0. 0. 0. 0. 0. 0. 0. 0.],-0.1220703125,0.79345703125,-5.2490234375,[0. 0. 0. 0. 0. 0. 0. 0. 0.],-0.0712890625,0.025390625,1.00244140625,[0. 0. 0. 0. 0. 0. 0. 0. 0.]
4.494994401931763,-0.015849648043513298,-0.01886272430419922,0.13924647867679596,-0.9899513125419617,[0. 0. 0. 0. 0. 0. 0. 0. 0.],0.30517578125,0.06103515625,-5.0048828125,[0. 0. 0. 0. 0. 0. 0. 0. 0.],-0.0625,0.02001953125,1.0048828125,[0. 0. 0. 0. 0. 0. 0. 0. 0.]
4.519993305206299,-0.015101557597517967,-0.018161864951252937,0.14022661745548248,-0.9898377656936646,[0. 0. 0. 0. 0. 0. 0. 0. 0.],0.1220703125,1.3427734375,-6.04248046875,[0. 0. 0. 0. 0. 0. 0. 0. 0.],-0.013671875,0.0234375,1.00439453125,[0. 0. 0. 0. 0. 0. 0. 0. 0.]
4.539894104003906,-0.014017436653375626,-0.017227375879883766,0.14130046963691711,-0.9897176027297974,[0. 0. 0. 0. 0. 0. 0. 0. 0.],-2.9296875,4.638671875,-6.34765625,[0. 0. 0. 0. 0. 0. 0. 0. 0.],-0.01904296875,-0.00732421875,0.98095703125,[0. 0. 0. 0. 0. 0. 0. 0. 0.]
4.559485673904419,-0.010706905275583267,-0.01876051165163517,0.1422797292470932,-0.9895908832550049,[0. 0. 0. 0. 0. 0. 0. 0. 0.],-10.43701171875,1.8310546875,-6.53076171875,[0. 0. 0. 0. 0. 0. 0. 0. 0.],-0.0478515625,-0.2197265625,0.9482421875,[0. 0. 0. 0. 0. 0. 0. 0. 0.]
4.5797929763793945,-0.007987529039382935,-0.020254483446478844,0.1436329483985901,-0.989391565322876,[0. 0. 0. 0. 0. 0. 0. 0. 0.],-4.82177734375,6.16455078125,-9.033203125,[0. 0. 0. 0. 0. 0. 0. 0. 0.],-0.04541015625,-0.28369140625,1.02783203125,[0. 0. 0. 0. 0. 0. 0. 0. 0.]
4.600325107574463,-0.005794507451355457,-0.021262135356664658,0.1455686390399933,-0.9891027212142944,[0. 0. 0. 0. 0. 0. 0. 0. 0.],-2.01416015625,2.685546875,-11.41357421875,[0. 0. 0. 0. 0. 0. 0. 0. 0.],-0.0595703125,-0.33349609375,1.03515625,[0. 0. 0. 0. 0. 0. 0. 0. 0.]
4.619657754898071,-0.0040877400897443295,-0.022556226700544357,0.1477927267551422,-0.9887527227401733,[0. 0. 0. 0. 0. 0. 0. 0. 0.],-1.220703125,6.4697265625,-13.85498046875,[0. 0. 0. 0. 0. 0. 0. 0. 0.],-0.06298828125,-0.33447265625,1.0419921875,[0. 0. 0. 0. 0. 0. 0. 0. 0.]
4.639556169509888,-0.0025145052932202816,-0.02369203045964241,0.15066787600517273,-0.9882972836494446,[0. 0. 0. 0. 0. 0. 0. 0. 0.],-0.48828125,3.90625,-18.61572265625,[0. 0. 0. 0. 0. 0. 0. 0. 0.],-0.0576171875,-0.2919921875,1.009765625,[0. 0. 0. 0. 0. 0. 0. 0. 0.]
4.65966010093689,-0.0009348184685222805,-0.024873828515410423,0.15439735352993011,-0.9876952767372131,[0. 0. 0. 0. 0. 0. 0. 0. 0.],0.06103515625,4.39453125,-23.5595703125,[0. 0. 0. 0. 0. 0. 0. 0. 0.],-0.05712890625,-0.228515625,0.92822265625,[0. 0. 0. 0. 0. 0. 0. 0. 0.]
4.675590515136719,0.0012119397288188338,-0.02634689398109913,0.15877488255500793,-0.9869624972343445,[0. 0. 0. 0. 0. 0. 0. 0. 0.],-2.9296875,5.31005859375,-26.123046875,[0. 0. 0. 0. 0. 0. 0. 0. 0.],-0.1015625,-0.236328125,0.9541015625,[0. 0. 0. 0. 0. 0. 0. 0. 0.]
4.699574947357178,0.0027574817650020123,-0.027845242992043495,0.1632421463727951,-0.9861891269683838,[0. 0. 0. 0. 0. 0. 0. 0. 0.],0.3662109375,4.2724609375,-25.93994140625,[0. 0. 0. 0. 0. 0. 0. 0. 0.],-0.14794921875,-0.24951171875,1.0673828125,[0. 0. 0. 0. 0. 0. 0. 0. 0.]
4.71950101852417,0.0039028555620461702,-0.02888615056872368,0.1680925041437149,-0.9853402376174927,[0. 0. 0. 0. 0. 0. 0. 0. 0.],0.91552734375,0.244140625,-29.4189453125,[0. 0. 0. 0. 0. 0. 0. 0. 0.],-0.13623046875,-0.2373046875,1.0341796875,[0. 0. 0. 0. 0. 0. 0. 0. 0.]
4.739351272583008,0.005351555533707142,-0.029820749536156654,0.17349028587341309,-0.9843695163726807,[0. 0. 0. 0. 0. 0. 0. 0. 0.],1.8310546875,0.54931640625,-33.8134765625,[0. 0. 0. 0. 0. 0. 0. 0. 0.],-0.10107421875,-0.2490234375,0.93701171875,[0. 0. 0. 0. 0. 0. 0. 0. 0.]
4.759467601776123,0.0067080361768603325,-0.03035387396812439,0.17968671023845673,-0.9832326173782349,[0. 0. 0. 0. 0. 0. 0. 0. 0.],3.35693359375,0.732421875,-37.29248046875,[0. 0. 0. 0. 0. 0. 0. 0. 0.],-0.08447265625,-0.2900390625,0.99462890625,[0. 0. 0. 0. 0. 0. 0. 0. 0.]
4.779613733291626,0.007667406462132931,-0.03082597628235817,0.18617768585681915,-0.9820024967193604,[0. 0. 0. 0. 0. 0. 0. 0. 0.],4.21142578125,-3.23486328125,-37.53662109375,[0. 0. 0. 0. 0. 0. 0. 0. 0.],-0.1435546875,-0.23193359375,0.98876953125,[0. 0. 0. 0. 0. 0. 0. 0. 0.]
4.803672790527344,0.008868811652064323,-0.03188032656908035,0.19249556958675385,-0.9807397723197937,[0. 0. 0. 0. 0. 0. 0. 0. 0.],1.52587890625,-2.86865234375,-38.330078125,[0. 0. 0. 0. 0. 0. 0. 0. 0.],-0.16015625,-0.18017578125,0.9365234375,[0. 0. 0. 0. 0. 0. 0. 0. 0.]
4.8201377391815186,0.010076350532472134,-0.0327046699821949,0.1993781477212906,-0.9793249368667603,[0. 0. 0. 0. 0. 0. 0. 0. 0.],5.126953125,-2.38037109375,-43.8232421875,[0. 0. 0. 0. 0. 0. 0. 0. 0.],-0.0595703125,-0.1787109375,1.11962890625,[0. 0. 0. 0. 0. 0. 0. 0. 0.]
4.839895963668823,0.010353698395192623,-0.03289050981402397,0.20702014863491058,-0.9777287840843201,[0. 0. 0. 0. 0. 0. 0. 0. 0.],9.765625,3.662109375,-44.98291015625,[0. 0. 0. 0. 0. 0. 0. 0. 0.],-0.0546875,-0.109375,1.05908203125,[0. 0. 0. 0. 0. 0. 0. 0. 0.]
4.859878301620483,0.008336552418768406,-0.0331675186753273,0.2151392251253128,-0.975984513759613,[0. 0. 0. 0. 0. 0. 0. 0. 0.],7.14111328125,6.28662109375,-46.2646484375,[0. 0. 0. 0. 0. 0. 0. 0. 0.],-0.08740234375,0.02197265625,0.92919921875,[0. 0. 0. 0. 0. 0. 0. 0. 0.]
4.879603385925293,0.005488483235239983,-0.03349100053310394,0.22340698540210724,-0.9741342663764954,[0. 0. 0. 0. 0. 0. 0. 0. 0.],5.55419921875,-1.5869140625,-48.828125,[0. 0. 0. 0. 0. 0. 0. 0. 0.],-0.1103515625,0.06494140625,0.88720703125,[0. 0. 0. 0. 0. 0. 0. 0. 0.]
4.8961169719696045,0.0042105019092559814,-0.034000929445028305,0.23386479914188385,-0.9716653823852539,[0. 0. 0. 0. 0. 0. 0. 0. 0.],-0.244140625,-3.2958984375,-51.1474609375,[0. 0. 0. 0. 0. 0. 0. 0. 0.],-0.1181640625,0.09716796875,0.986328125,[0. 0. 0. 0. 0. 0. 0. 0. 0.]
4.9198877811431885,0.0033406135626137257,-0.03396076709032059,0.24025627970695496,-0.9701095223426819,[0. 0. 0. 0. 0. 0. 0. 0. 0.],-1.28173828125,-3.84521484375,-51.45263671875,[0. 0. 0. 0. 0. 0. 0. 0. 0.],-0.123046875,0.07080078125,1.02490234375,[0. 0. 0. 0. 0. 0. 0. 0. 0.]
4.939399242401123,0.001847004285082221,-0.03449324890971184,0.24879896640777588,-0.9679390788078308,[0. 0. 0. 0. 0. 0. 0. 0. 0.],4.94384765625,-2.99072265625,-50.1708984375,[0. 0. 0. 0. 0. 0. 0. 0. 0.],-0.1181640625,0.0185546875,1.0439453125,[0. 0. 0. 0. 0. 0. 0. 0. 0.]
4.959457635879517,-0.000591296935454011,-0.0353911817073822,0.2570156157016754,-0.9657588005065918,[0. 0. 0. 0. 0. 0. 0. 0. 0.],7.8125,0.42724609375,-47.8515625,[0. 0. 0. 0. 0. 0. 0. 0. 0.],-0.1181640625,0.02001953125,1.04541015625,[0. 0. 0. 0. 0. 0. 0. 0. 0.]
4.979873418807983,-0.002154747024178505,-0.035706087946891785,0.2648954391479492,-0.9636135101318359,[0. 0. 0. 0. 0. 0. 0. 0. 0.],-2.685546875,-2.5634765625,-46.2646484375,[0. 0. 0. 0. 0. 0. 0. 0. 0.],-0.14892578125,0.08203125,0.91943359375,[0. 0. 0. 0. 0. 0. 0. 0. 0.]
4.99992036819458,-0.002897453960031271,-0.03640264272689819,0.2723177969455719,-0.9615142345428467,[0. 0. 0. 0. 0. 0. 0. 0. 0.],-2.5634765625,-2.3193359375,-44.921875,[0. 0. 0. 0. 0. 0. 0. 0. 0.],-0.1318359375,0.05810546875,0.98486328125,[0. 0. 0. 0. 0. 0. 0. 0. 0.]
5.019850015640259,-0.004027397837489843,-0.03686368837952614,0.27983617782592773,-0.9593312740325928,[0. 0. 0. 0. 0. 0. 0. 0. 0.],-2.685546875,1.89208984375,-46.630859375,[0. 0. 0. 0. 0. 0. 0. 0. 0.],-0.06884765625,0.02734375,1.0068359375,[0. 0. 0. 0. 0. 0. 0. 0. 0.]
5.039516448974609,-0.005780491512268782,-0.03675512224435806,0.28736767172813416,-0.9570974111557007,[0. 0. 0. 0. 0. 0. 0. 0. 0.],4.82177734375,-4.5166015625,-44.37255859375,[0. 0. 0. 0. 0. 0. 0. 0. 0.],-0.095703125,0.00439453125,1.02685546875,[0. 0. 0. 0. 0. 0. 0. 0. 0.]
5.060127258300781,-0.0074198623187839985,-0.03637648746371269,0.2943005859851837,-0.9549915194511414,[0. 0. 0. 0. 0. 0. 0. 0. 0.],0.732421875,-6.2255859375,-39.48974609375,[0. 0. 0. 0. 0. 0. 0. 0. 0.],-0.0830078125,0.02880859375,0.9658203125,[0. 0. 0. 0. 0. 0. 0. 0. 0.]
5.079784393310547,-0.00743011524900794,-0.035173870623111725,0.30036410689353943,-0.9531469345092773,[0. 0. 0. 0. 0. 0. 0. 0. 0.],-5.0048828125,1.40380859375,-35.0341796875,[0. 0. 0. 0. 0. 0. 0. 0. 0.],-0.00048828125,0.03857421875,1.017578125,[0. 0. 0. 0. 0. 0. 0. 0. 0.]
5.101885080337524,-0.007320081815123558,-0.03336595371365547,0.3054713308811188,-0.9515883922576904,[0. 0. 0. 0. 0. 0. 0. 0. 0.],4.33349609375,-4.08935546875,-27.9541015625,[0. 0. 0. 0. 0. 0. 0. 0. 0.],-0.02392578125,-0.00048828125,1.18359375,[0. 0. 0. 0. 0. 0. 0. 0. 0.]
5.119534015655518,-0.00755672249943018,-0.030100634321570396,0.30923667550086975,-0.9504786729812622,[0. 0. 0. 0. 0. 0. 0. 0. 0.],6.65283203125,-10.43701171875,-18.98193359375,[0. 0. 0. 0. 0. 0. 0. 0. 0.],-0.04833984375,0.0048828125,1.01513671875,[0. 0. 0. 0. 0. 0. 0. 0. 0.]
5.13958215713501,-0.00899282842874527,-0.026937659829854965,0.31153011322021484,-0.9498118758201599,[0. 0. 0. 0. 0. 0. 0. 0. 0.],5.2490234375,-5.43212890625,-10.8642578125,[0. 0. 0. 0. 0. 0. 0. 0. 0.],-0.029296875,0.03125,0.92822265625,[0. 0. 0. 0. 0. 0. 0. 0. 0.]
5.159722089767456,-0.010267751291394234,-0.024945542216300964,0.3129369616508484,-0.9493907690048218,[0. 0. 0. 0. 0. 0. 0. 0. 0.],0.8544921875,1.15966796875,-7.8125,[0. 0. 0. 0. 0. 0. 0. 0. 0.],0.01318359375,0.05859375,0.9794921875,[0. 0. 0. 0. 0. 0. 0. 0. 0.]
5.179724216461182,-0.011097188107669353,-0.024362046271562576,0.31400609016418457,-0.9490435123443604,[0. 0. 0. 0. 0. 0. 0. 0. 0.],-4.57763671875,0.3662109375,-6.53076171875,[0. 0. 0. 0. 0. 0. 0. 0. 0.],-0.0478515625,0.0654296875,0.96337890625,[0. 0. 0. 0. 0. 0. 0. 0. 0.]
5.199427843093872,-0.011917328462004662,-0.024905649945139885,0.3148239254951477,-0.9487484693527222,[0. 0. 0. 0. 0. 0. 0. 0. 0.],0.79345703125,-4.39453125,-5.0048828125,[0. 0. 0. 0. 0. 0. 0. 0. 0.],-0.08837890625,0.0107421875,1.04736328125,[0. 0. 0. 0. 0. 0. 0. 0. 0.]
5.221231937408447,-0.013019690290093422,-0.02437962032854557,0.3157811760902405,-0.9484294056892395,[0. 0. 0. 0. 0. 0. 0. 0. 0.],4.45556640625,-3.72314453125,-6.4697265625,[0. 0. 0. 0. 0. 0. 0. 0. 0.],-0.0458984375,0.01953125,1.00927734375,[0. 0. 0. 0. 0. 0. 0. 0. 0.]
5.239456415176392,-0.012077839113771915,-0.022966928780078888,0.31698477268218994,-0.9480756521224976,[0. 0. 0. 0. 0. 0. 0. 0. 0.],-7.01904296875,-0.732421875,-6.65283203125,[0. 0. 0. 0. 0. 0. 0. 0. 0.],-0.03857421875,-0.02783203125,0.8974609375,[0. 0. 0. 0. 0. 0. 0. 0. 0.]
5.260815620422363,-0.009090300649404526,-0.024635788053274155,0.31788355112075806,-0.9477660059928894,[0. 0. 0. 0. 0. 0. 0. 0. 0.],0.1220703125,5.2490234375,-0.48828125,[0. 0. 0. 0. 0. 0. 0. 0. 0.],-0.10595703125,-0.193359375,1.0439453125,[0. 0. 0. 0. 0. 0. 0. 0. 0.]
5.2824273109436035,-0.009516214020550251,-0.02399001270532608,0.3184974491596222,-0.9475724101066589,[0. 0. 0. 0. 0. 0. 0. 0. 0.],12.451171875,0.732421875,-2.86865234375,[0. 0. 0. 0. 0. 0. 0. 0. 0.],-0.03076171875,0.05810546875,1.13818359375,[0. 0. 0. 0. 0. 0. 0. 0. 0.]
5.299636125564575,-0.011361749842762947,-0.023222552612423897,0.3191063404083252,-0.9473662376403809,[0. 0. 0. 0. 0. 0. 0. 0. 0.],5.2490234375,0.54931640625,-6.9580078125,[0. 0. 0. 0. 0. 0. 0. 0. 0.],-0.00146484375,0.1376953125,1.0224609375,[0. 0. 0. 0. 0. 0. 0. 0. 0.]
5.320183038711548,-0.012509833090007305,-0.02242158353328705,0.31997811794281006,-0.9470769166946411,[0. 0. 0. 0. 0. 0. 0. 0. 0.],-4.57763671875,-4.45556640625,-5.4931640625,[0. 0. 0. 0. 0. 0. 0. 0. 0.],-0.06787109375,0.13916015625,0.89501953125,[0. 0. 0. 0. 0. 0. 0. 0. 0.]
5.336463928222656,-0.013644338585436344,-0.02197752334177494,0.32078444957733154,-0.9467989206314087,[0. 0. 0. 0. 0. 0. 0. 0. 0.],-2.50244140625,-0.8544921875,-4.33349609375,[0. 0. 0. 0. 0. 0. 0. 0. 0.],-0.064453125,0.0791015625,0.9931640625,[0. 0. 0. 0. 0. 0. 0. 0. 0.]
5.359752893447876,-0.016042420640587807,-0.021202469244599342,0.32135719060897827,-0.9465847015380859,[0. 0. 0. 0. 0. 0. 0. 0. 0.],6.34765625,-3.5400390625,-2.86865234375,[0. 0. 0. 0. 0. 0. 0. 0. 0.],-0.064453125,0.0498046875,1.0263671875,[0. 0. 0. 0. 0. 0. 0. 0. 0.]
5.380504846572876,-0.01836518943309784,-0.02026156708598137,0.321744441986084,-0.9464316368103027,[0. 0. 0. 0. 0. 0. 0. 0. 0.],1.28173828125,-5.18798828125,-2.38037109375,[0. 0. 0. 0. 0. 0. 0. 0. 0.],-0.072265625,0.1044921875,0.91845703125,[0. 0. 0. 0. 0. 0. 0. 0. 0.]
5.399011135101318,-0.01979169435799122,-0.01921023614704609,0.32212385535240173,-0.9462957382202148,[0. 0. 0. 0. 0. 0. 0. 0. 0.],-1.64794921875,-1.28173828125,-2.8076171875,[0. 0. 0. 0. 0. 0. 0. 0. 0.],-0.05029296875,0.10986328125,1.06494140625,[0. 0. 0. 0. 0. 0. 0. 0. 0.]
5.424833059310913,-0.020577559247612953,-0.01824115216732025,0.3224213123321533,-0.9461968541145325,[0. 0. 0. 0. 0. 0. 0. 0. 0.],0.06103515625,-1.0986328125,-2.8076171875,[0. 0. 0. 0. 0. 0. 0. 0. 0.],-0.01904296875,0.09423828125,1.0869140625,[0. 0. 0. 0. 0. 0. 0. 0. 0.]
5.439635515213013,-0.021366717293858528,-0.01726038008928299,0.3227243721485138,-0.9460943937301636,[0. 0. 0. 0. 0. 0. 0. 0. 0.],-6.53076171875,-0.9765625,-1.40380859375,[0. 0. 0. 0. 0. 0. 0. 0. 0.],-0.04541015625,0.10546875,0.94482421875,[0. 0. 0. 0. 0. 0. 0. 0. 0.]
5.459480047225952,-0.022810639813542366,-0.01644180901348591,0.3228582739830017,-0.946029543876648,[0. 0. 0. 0. 0. 0. 0. 0. 0.],2.44140625,0.48828125,-1.0986328125,[0. 0. 0. 0. 0. 0. 0. 0. 0.],-0.03369140625,0.083984375,1.017578125,[0. 0. 0. 0. 0. 0. 0. 0. 0.]
5.4762678146362305,-0.02520887367427349,-0.01456714328378439,0.32298704981803894,-0.9459555149078369,[0. 0. 0. 0. 0. 0. 0. 0. 0.],4.21142578125,-2.62451171875,-0.91552734375,[0. 0. 0. 0. 0. 0. 0. 0. 0.],-0.03466796875,0.09130859375,1.0087890625,[0. 0. 0. 0. 0. 0. 0. 0. 0.]
5.497115850448608,-0.0260754507035017,-0.013961137272417545,0.3230478763580322,-0.9459203481674194,[0. 0. 0. 0. 0. 0. 0. 0. 0.],-6.2255859375,-3.173828125,-0.8544921875,[0. 0. 0. 0. 0. 0. 0. 0. 0.],-0.04541015625,0.134765625,0.8916015625,[0. 0. 0. 0. 0. 0. 0. 0. 0.]
5.515557527542114,-0.026510749012231827,-0.013287180103361607,0.32329028844833374,-0.9458351135253906,[0. 0. 0. 0. 0. 0. 0. 0. 0.],-4.21142578125,2.38037109375,-2.197265625,[0. 0. 0. 0. 0. 0. 0. 0. 0.],-0.01123046875,0.10986328125,1.03515625,[0. 0. 0. 0. 0. 0. 0. 0. 0.]
5.536007642745972,-0.02745741233229637,-0.012183316983282566,0.3238380253314972,-0.9456355571746826,[0. 0. 0. 0. 0. 0. 0. 0. 0.],4.33349609375,1.953125,-3.96728515625,[0. 0. 0. 0. 0. 0. 0. 0. 0.],0.01025390625,0.0908203125,1.20849609375,[0. 0. 0. 0. 0. 0. 0. 0. 0.]
5.5595574378967285,-0.029095418751239777,-0.010747277177870274,0.3245876431465149,-0.945347011089325,[0. 0. 0. 0. 0. 0. 0. 0. 0.],3.84521484375,-2.86865234375,-4.45556640625,[0. 0. 0. 0. 0. 0. 0. 0. 0.],-0.0322265625,0.10791015625,1.01708984375,[0. 0. 0. 0. 0. 0. 0. 0. 0.]
5.5796754360198975,-0.03058016486465931,-0.010032703168690205,0.32523098587989807,-0.9450867176055908,[0. 0. 0. 0. 0. 0. 0. 0. 0.],-0.54931640625,-2.685546875,-3.72314453125,[0. 0. 0. 0. 0. 0. 0. 0. 0.],-0.05126953125,0.10498046875,0.8876953125,[0. 0. 0. 0. 0. 0. 0. 0. 0.]
5.60298228263855,-0.03235200047492981,-0.009484391659498215,0.3258630335330963,-0.9448156952857971,[0. 0. 0. 0. 0. 0. 0. 0. 0.],2.01416015625,-1.0986328125,-3.84521484375,[0. 0. 0. 0. 0. 0. 0. 0. 0.],-0.041015625,0.08056640625,0.95751953125,[0. 0. 0. 0. 0. 0. 0. 0. 0.]
5.620217323303223,-0.03436492010951042,-0.008204149082303047,0.32654985785484314,-0.9445194602012634,[0. 0. 0. 0. 0. 0. 0. 0. 0.],2.685546875,1.15966796875,-5.0048828125,[0. 0. 0. 0. 0. 0. 0. 0. 0.],-0.0234375,0.09521484375,1.0439453125,[0. 0. 0. 0. 0. 0. 0. 0. 0.]
5.639389991760254,-0.036051083356142044,-0.00763977924361825,0.32720017433166504,-0.9442362189292908,[0. 0. 0. 0. 0. 0. 0. 0. 0.],-0.67138671875,-0.67138671875,-3.662109375,[0. 0. 0. 0. 0. 0. 0. 0. 0.],-0.046875,0.12158203125,1.03515625,[0. 0. 0. 0. 0. 0. 0. 0. 0.]
5.66096305847168,-0.037415359169244766,-0.0078397486358881,0.3276415169239044,-0.9440284967422485,[0. 0. 0. 0. 0. 0. 0. 0. 0.],-1.52587890625,-0.18310546875,-2.50244140625,[0. 0. 0. 0. 0. 0. 0. 0. 0.],-0.060546875,0.103515625,1.033203125,[0. 0. 0. 0. 0. 0. 0. 0. 0.]
5.679494619369507,-0.03855612501502037,-0.008848230354487896,0.32805147767066956,-0.9438312649726868,[0. 0. 0. 0. 0. 0. 0. 0. 0.],1.89208984375,0.48828125,-2.3193359375,[0. 0. 0. 0. 0. 0. 0. 0. 0.],-0.05908203125,0.06201171875,1.00634765625,[0. 0. 0. 0. 0. 0. 0. 0. 0.]
5.6997458934783936,-0.03662027418613434,-0.01020580343902111,0.32839375734329224,-0.9437756538391113,[0. 0. 0. 0. 0. 0. 0. 0. 0.],-3.5400390625,5.06591796875,-0.18310546875,[0. 0. 0. 0. 0. 0. 0. 0. 0.],-0.0615234375,-0.1142578125,0.89990234375,[0. 0. 0. 0. 0. 0. 0. 0. 0.]
5.715279579162598,-0.03468974679708481,-0.012037894688546658,0.3294011056423187,-0.9434759020805359,[0. 0. 0. 0. 0. 0. 0. 0. 0.],-3.47900390625,14.46533203125,-7.568359375,[0. 0. 0. 0. 0. 0. 0. 0. 0.],-0.04296875,-0.1689453125,1.00439453125,[0. 0. 0. 0. 0. 0. 0. 0. 0.]
5.7395336627960205,-0.034140050411224365,-0.013990640640258789,0.33201608061790466,-0.9425519704818726,[0. 0. 0. 0. 0. 0. 0. 0. 0.],3.60107421875,7.2021484375,-16.7236328125,[0. 0. 0. 0. 0. 0. 0. 0. 0.],-0.154296875,-0.083984375,1.009765625,[0. 0. 0. 0. 0. 0. 0. 0. 0.]
5.759702920913696,-0.03375546634197235,-0.016423041000962257,0.3352578580379486,-0.9413783550262451,[0. 0. 0. 0. 0. 0. 0. 0. 0.],1.5869140625,6.28662109375,-19.71435546875,[0. 0. 0. 0. 0. 0. 0. 0. 0.],-0.12890625,-0.06689453125,0.97021484375,[0. 0. 0. 0. 0. 0. 0. 0. 0.]
5.7796790599823,-0.03196291625499725,-0.018696026876568794,0.3396604061126709,-0.9398189187049866,[0. 0. 0. 0. 0. 0. 0. 0. 0.],-3.5400390625,7.080078125,-29.9072265625,[0. 0. 0. 0. 0. 0. 0. 0. 0.],-0.056640625,-0.04296875,1.05615234375,[0. 0. 0. 0. 0. 0. 0. 0. 0.]
5.799623966217041,-0.030428098514676094,-0.020700186491012573,0.3454417586326599,-0.937718391418457,[0. 0. 0. 0. 0. 0. 0. 0. 0.],-0.42724609375,5.0048828125,-37.90283203125,[0. 0. 0. 0. 0. 0. 0. 0. 0.],-0.0927734375,-0.06103515625,1.06005859375,[0. 0. 0. 0. 0. 0. 0. 0. 0.]
5.819978475570679,-0.029356658458709717,-0.02264634519815445,0.35214105248451233,-0.935212254524231,[0. 0. 0. 0. 0. 0. 0. 0. 0.],-1.77001953125,1.220703125,-43.0908203125,[0. 0. 0. 0. 0. 0. 0. 0. 0.],-0.13671875,-0.0576171875,0.9638671875,[0. 0. 0. 0. 0. 0. 0. 0. 0.]
5.838696479797363,-0.02842576801776886,-0.024036923423409462,0.3592880070209503,-0.9324840307235718,[0. 0. 0. 0. 0. 0. 0. 0. 0.],3.5400390625,-1.3427734375,-42.48046875,[0. 0. 0. 0. 0. 0. 0. 0. 0.],-0.140625,-0.07177734375,0.978515625,[0. 0. 0. 0. 0. 0. 0. 0. 0.]
5.85609769821167,-0.02762177400290966,-0.02521985024213791,0.3659685254096985,-0.929875373840332,[0. 0. 0. 0. 0. 0. 0. 0. 0.],3.60107421875,-1.15966796875,-39.794921875,[0. 0. 0. 0. 0. 0. 0. 0. 0.],-0.1240234375,-0.08935546875,0.9794921875,[0. 0. 0. 0. 0. 0. 0. 0. 0.]
5.875776052474976,-0.026092706248164177,-0.026058292016386986,0.372134268283844,-0.9274460673332214,[0. 0. 0. 0. 0. 0. 0. 0. 0.],-2.38037109375,-5.79833984375,-35.888671875,[0. 0. 0. 0. 0. 0. 0. 0. 0.],-0.1337890625,-0.0439453125,0.9619140625,[0. 0. 0. 0. 0. 0. 0. 0. 0.]
5.900005578994751,-0.02394193597137928,-0.026847509667277336,0.3778052031993866,-0.925186038017273,[0. 0. 0. 0. 0. 0. 0. 0. 0.],-1.220703125,-2.13623046875,-32.89794921875,[0. 0. 0. 0. 0. 0. 0. 0. 0.],-0.06201171875,-0.06787109375,0.98828125,[0. 0. 0. 0. 0. 0. 0. 0. 0.]
5.92204737663269,-0.02066979929804802,-0.02753314934670925,0.3836742043495178,-0.9228265881538391,[0. 0. 0. 0. 0. 0. 0. 0. 0.],-4.82177734375,-0.42724609375,-22.64404296875,[0. 0. 0. 0. 0. 0. 0. 0. 0.],-0.07421875,-0.17529296875,0.93994140625,[0. 0. 0. 0. 0. 0. 0. 0. 0.]
5.941007614135742,-0.01826401799917221,-0.027408093214035034,0.3863401710987091,-0.9217681288719177,[0. 0. 0. 0. 0. 0. 0. 0. 0.],1.8310546875,-5.43212890625,-13.0615234375,[0. 0. 0. 0. 0. 0. 0. 0. 0.],-0.0380859375,-0.154296875,1.060546875,[0. 0. 0. 0. 0. 0. 0. 0. 0.]
5.959583044052124,-0.017240088433027267,-0.026919139549136162,0.38761016726493835,-0.9212689995765686,[0. 0. 0. 0. 0. 0. 0. 0. 0.],0.18310546875,-0.06103515625,-9.33837890625,[0. 0. 0. 0. 0. 0. 0. 0. 0.],0.0849609375,-0.10107421875,1.06640625,[0. 0. 0. 0. 0. 0. 0. 0. 0.]
5.9798338413238525,-0.015364483930170536,-0.025505753234028816,0.3884034752845764,-0.9210082292556763,[0. 0. 0. 0. 0. 0. 0. 0. 0.],0.1220703125,-9.033203125,-2.25830078125,[0. 0. 0. 0. 0. 0. 0. 0. 0.],-0.037109375,-0.05126953125,0.9814453125,[0. 0. 0. 0. 0. 0. 0. 0. 0.]
5.9995200634002686,-0.013608128763735294,-0.024748021736741066,0.38856953382492065,-0.920986533164978,[0. 0. 0. 0. 0. 0. 0. 0. 0.],2.9296875,5.126953125,-0.48828125,[0. 0. 0. 0. 0. 0. 0. 0. 0.],0.0400390625,-0.05078125,1.06884765625,[0. 0. 0. 0. 0. 0. 0. 0. 0.]
6.019548654556274,-0.013476671651005745,-0.024201057851314545,0.3888733386993408,-0.9208747148513794,[0. 0. 0. 0. 0. 0. 0. 0. 0.],2.86865234375,5.4931640625,-1.03759765625,[0. 0. 0. 0. 0. 0. 0. 0. 0.],0.02685546875,-0.01953125,1.08447265625,[0. 0. 0. 0. 0. 0. 0. 0. 0.]
6.041088104248047,-0.012735291384160519,-0.024095965549349785,0.389210969209671,-0.9207454323768616,[0. 0. 0. 0. 0. 0. 0. 0. 0.],-4.0283203125,-0.244140625,-0.8544921875,[0. 0. 0. 0. 0. 0. 0. 0. 0.],-0.06689453125,0.0009765625,0.9287109375,[0. 0. 0. 0. 0. 0. 0. 0. 0.]
6.059589624404907,-0.011227796785533428,-0.023781802505254745,0.38981112837791443,-0.9205192923545837,[0. 0. 0. 0. 0. 0. 0. 0. 0.],3.47900390625,0.8544921875,-3.5400390625,[0. 0. 0. 0. 0. 0. 0. 0. 0.],-0.01220703125,-0.04052734375,1.0087890625,[0. 0. 0. 0. 0. 0. 0. 0. 0.]
6.076714515686035,-0.009778798557817936,-0.022816302254796028,0.39093253016471863,-0.9200845956802368,[0. 0. 0. 0. 0. 0. 0. 0. 0.],-0.67138671875,4.69970703125,-5.2490234375,[0. 0. 0. 0. 0. 0. 0. 0. 0.],-0.03125,-0.00048828125,0.9775390625,[0. 0. 0. 0. 0. 0. 0. 0. 0.]
6.100025653839111,-0.009851787239313126,-0.022381428629159927,0.3916008472442627,-0.9198102951049805,[0. 0. 0. 0. 0. 0. 0. 0. 0.],-6.7138671875,4.45556640625,-5.615234375,[0. 0. 0. 0. 0. 0. 0. 0. 0.],-0.03662109375,0.0126953125,0.98681640625,[0. 0. 0. 0. 0. 0. 0. 0. 0.]
6.121999025344849,-0.009226585738360882,-0.024225076660513878,0.39232972264289856,-0.919459342956543,[0. 0. 0. 0. 0. 0. 0. 0. 0.],6.591796875,-3.11279296875,-2.62451171875,[0. 0. 0. 0. 0. 0. 0. 0. 0.],-0.1005859375,-0.0625,1.01953125,[0. 0. 0. 0. 0. 0. 0. 0. 0.]
6.1397974491119385,-0.00897049531340599,-0.024886643514037132,0.39262300729751587,-0.9193190336227417,[0. 0. 0. 0. 0. 0. 0. 0. 0.],3.84521484375,-2.0751953125,-1.89208984375,[0. 0. 0. 0. 0. 0. 0. 0. 0.],-0.06884765625,-0.029296875,0.91162109375,[0. 0. 0. 0. 0. 0. 0. 0. 0.]
6.159708261489868,-0.009576535783708096,-0.02476544864475727,0.3930498957633972,-0.919133722782135,[0. 0. 0. 0. 0. 0. 0. 0. 0.],-3.96728515625,8.48388671875,-3.23486328125,[0. 0. 0. 0. 0. 0. 0. 0. 0.],0.01171875,0.04541015625,1.0,[0. 0. 0. 0. 0. 0. 0. 0. 0.]
6.1747002601623535,-0.00988086685538292,-0.02407076209783554,0.3935774266719818,-0.9189231991767883,[0. 0. 0. 0. 0. 0. 0. 0. 0.],-1.40380859375,0.0,-3.41796875,[0. 0. 0. 0. 0. 0. 0. 0. 0.],-0.05712890625,0.01318359375,1.14306640625,[0. 0. 0. 0. 0. 0. 0. 0. 0.]
6.202935695648193,-0.010354897007346153,-0.025194553658366203,0.39388206601142883,-0.9187572598457336,[0. 0. 0. 0. 0. 0. 0. 0. 0.],2.685546875,-0.67138671875,-1.3427734375,[0. 0. 0. 0. 0. 0. 0. 0. 0.],-0.0751953125,-0.0078125,0.99169921875,[0. 0. 0. 0. 0. 0. 0. 0. 0.]
6.219853401184082,-0.011069243773818016,-0.026268649846315384,0.39400070905685425,-0.9186680912971497,[0. 0. 0. 0. 0. 0. 0. 0. 0.],0.30517578125,-8.056640625,0.244140625,[0. 0. 0. 0. 0. 0. 0. 0. 0.],-0.10546875,0.0087890625,0.83984375,[0. 0. 0. 0. 0. 0. 0. 0. 0.]
6.2405312061309814,-0.011112116277217865,-0.02603227272629738,0.39416301250457764,-0.9186045527458191,[0. 0. 0. 0. 0. 0. 0. 0. 0.],-4.57763671875,-2.5634765625,-1.220703125,[0. 0. 0. 0. 0. 0. 0. 0. 0.],-0.056640625,0.0224609375,0.8994140625,[0. 0. 0. 0. 0. 0. 0. 0. 0.]
6.254704713821411,-0.010004024021327496,-0.024605518206954002,0.39472153782844543,-0.9184167981147766,[0. 0. 0. 0. 0. 0. 0. 0. 0.],-2.685546875,-3.5400390625,-3.2958984375,[0. 0. 0. 0. 0. 0. 0. 0. 0.],-0.00732421875,-0.0009765625,1.04150390625,[0. 0. 0. 0. 0. 0. 0. 0. 0.]
6.27979850769043,-0.008906091563403606,-0.022364957258105278,0.39530885219573975,-0.9182328581809998,[0. 0. 0. 0. 0. 0. 0. 0. 0.],0.6103515625,1.03759765625,-3.2958984375,[0. 0. 0. 0. 0. 0. 0. 0. 0.],-0.00244140625,-0.00146484375,1.08544921875,[0. 0. 0. 0. 0. 0. 0. 0. 0.]
6.294739007949829,-0.008960896171629429,-0.021608037874102592,0.39581361413002014,-0.9180328845977783,[0. 0. 0. 0. 0. 0. 0. 0. 0.],-2.44140625,0.42724609375,-2.5634765625,[0. 0. 0. 0. 0. 0. 0. 0. 0.],0.0009765625,0.02978515625,1.00927734375,[0. 0. 0. 0. 0. 0. 0. 0. 0.]
6.315568447113037,-0.009384308010339737,-0.020456857979297638,0.3960717022418976,-0.9179437756538391,[0. 0. 0. 0. 0. 0. 0. 0. 0.],-1.03759765625,-10.43701171875,-1.5869140625,[0. 0. 0. 0. 0. 0. 0. 0. 0.],-0.078125,0.03125,1.01611328125,[0. 0. 0. 0. 0. 0. 0. 0. 0.]
6.33976936340332,-0.009954160079360008,-0.019146598875522614,0.3968580365180969,-0.9176263213157654,[0. 0. 0. 0. 0. 0. 0. 0. 0.],4.638671875,4.82177734375,-6.16455078125,[0. 0. 0. 0. 0. 0. 0. 0. 0.],0.06787109375,0.02783203125,1.14599609375,[0. 0. 0. 0. 0. 0. 0. 0. 0.]
6.35538649559021,-0.01098046824336052,-0.017627298831939697,0.39798393845558167,-0.9171573519706726,[0. 0. 0. 0. 0. 0. 0. 0. 0.],-0.732421875,-4.33349609375,-6.8359375,[0. 0. 0. 0. 0. 0. 0. 0. 0.],-0.05419921875,0.056640625,0.9736328125,[0. 0. 0. 0. 0. 0. 0. 0. 0.]
6.3832786083221436,-0.01206482294946909,-0.017217911779880524,0.39903172850608826,-0.9166960716247559,[0. 0. 0. 0. 0. 0. 0. 0. 0.],-1.77001953125,1.8310546875,-7.01904296875,[0. 0. 0. 0. 0. 0. 0. 0. 0.],-0.02294921875,0.04150390625,0.95849609375,[0. 0. 0. 0. 0. 0. 0. 0. 0.]
6.400189399719238,-0.011980690062046051,-0.015103606507182121,0.4002242684364319,-0.9162144660949707,[0. 0. 0. 0. 0. 0. 0. 0. 0.],3.7841796875,-2.3193359375,-7.62939453125,[0. 0. 0. 0. 0. 0. 0. 0. 0.],-0.0390625,0.009765625,1.025390625,[0. 0. 0. 0. 0. 0. 0. 0. 0.]
6.419917821884155,-0.013812280260026455,-0.01504265982657671,0.4014420807361603,-0.9156566858291626,[0. 0. 0. 0. 0. 0. 0. 0. 0.],-1.28173828125,4.0283203125,-8.056640625,[0. 0. 0. 0. 0. 0. 0. 0. 0.],-0.03125,0.04541015625,0.978515625,[0. 0. 0. 0. 0. 0. 0. 0. 0.]
6.440020561218262,-0.015133658424019814,-0.01549542136490345,0.40245717763900757,-0.9151825904846191,[0. 0. 0. 0. 0. 0. 0. 0. 0.],-3.35693359375,-0.79345703125,-6.16455078125,[0. 0. 0. 0. 0. 0. 0. 0. 0.],-0.07568359375,0.0322265625,1.00634765625,[0. 0. 0. 0. 0. 0. 0. 0. 0.]
6.461303949356079,-0.015306406654417515,-0.016806013882160187,0.4032605290412903,-0.9148028492927551,[0. 0. 0. 0. 0. 0. 0. 0. 0.],4.94384765625,-2.01416015625,-4.5166015625,[0. 0. 0. 0. 0. 0. 0. 0. 0.],-0.08837890625,-0.01708984375,0.96337890625,[0. 0. 0. 0. 0. 0. 0. 0. 0.]
6.480320930480957,-0.01639927364885807,-0.01719425804913044,0.4040663540363312,-0.914421021938324,[0. 0. 0. 0. 0. 0. 0. 0. 0.],-0.1220703125,2.685546875,-6.04248046875,[0. 0. 0. 0. 0. 0. 0. 0. 0.],-0.0302734375,0.04150390625,0.9658203125,[0. 0. 0. 0. 0. 0. 0. 0. 0.]
6.5038228034973145,-0.017474761232733727,-0.016343722119927406,0.40505996346473694,-0.9139770865440369,[0. 0. 0. 0. 0. 0. 0. 0. 0.],-0.91552734375,2.9296875,-7.26318359375,[0. 0. 0. 0. 0. 0. 0. 0. 0.],-0.02294921875,0.0546875,1.1015625,[0. 0. 0. 0. 0. 0. 0. 0. 0.]
6.519700765609741,-0.018524236977100372,-0.01634877361357212,0.40597453713417053,-0.9135504364967346,[0. 0. 0. 0. 0. 0. 0. 0. 0.],0.79345703125,-5.43212890625,-6.16455078125,[0. 0. 0. 0. 0. 0. 0. 0. 0.],-0.08349609375,0.02685546875,1.07275390625,[0. 0. 0. 0. 0. 0. 0. 0. 0.]
6.54030442237854,-0.01874662935733795,-0.016879040747880936,0.406825989484787,-0.9131573438644409,[0. 0. 0. 0. 0. 0. 0. 0. 0.],-0.54931640625,0.48828125,-4.638671875,[0. 0. 0. 0. 0. 0. 0. 0. 0.],-0.04541015625,0.02001953125,0.9052734375,[0. 0. 0. 0. 0. 0. 0. 0. 0.]
6.562683343887329,-0.018960673362016678,-0.017423687502741814,0.40738728642463684,-0.9128924012184143,[0. 0. 0. 0. 0. 0. 0. 0. 0.],-4.69970703125,-9.94873046875,-4.0283203125,[0. 0. 0. 0. 0. 0. 0. 0. 0.],-0.11279296875,0.0302734375,0.8466796875,[0. 0. 0. 0. 0. 0. 0. 0. 0.]
6.580172777175903,-0.018557583913207054,-0.01813880354166031,0.4079532325267792,-0.9126339554786682,[0. 0. 0. 0. 0. 0. 0. 0. 0.],-3.35693359375,-0.1220703125,-4.33349609375,[0. 0. 0. 0. 0. 0. 0. 0. 0.],-0.04296875,0.0146484375,0.97705078125,[0. 0. 0. 0. 0. 0. 0. 0. 0.]
6.601000070571899,-0.01704353466629982,-0.01848062127828598,0.40875834226608276,-0.9122964143753052,[0. 0. 0. 0. 0. 0. 0. 0. 0.],0.06103515625,-5.18798828125,-3.90625,[0. 0. 0. 0. 0. 0. 0. 0. 0.],-0.0576171875,0.0107421875,1.080078125,[0. 0. 0. 0. 0. 0. 0. 0. 0.]
6.620738506317139,-0.016854748129844666,-0.01777203381061554,0.4091948866844177,-0.9121181964874268,[0. 0. 0. 0. 0. 0. 0. 0. 0.],0.06103515625,7.62939453125,-3.90625,[0. 0. 0. 0. 0. 0. 0. 0. 0.],0.02197265625,0.02685546875,1.05029296875,[0. 0. 0. 0. 0. 0. 0. 0. 0.]
6.639491319656372,-0.01658041961491108,-0.017374182119965553,0.40948987007141113,-0.9119985699653625,[0. 0. 0. 0. 0. 0. 0. 0. 0.],-7.01904296875,-12.0849609375,-0.732421875,[0. 0. 0. 0. 0. 0. 0. 0. 0.],-0.12255859375,-0.00390625,0.95849609375,[0. 0. 0. 0. 0. 0. 0. 0. 0.]
6.659439563751221,-0.014579560607671738,-0.017173923552036285,0.4097306430339813,-0.9119283556938171,[0. 0. 0. 0. 0. 0. 0. 0. 0.],5.06591796875,0.54931640625,-3.173828125,[0. 0. 0. 0. 0. 0. 0. 0. 0.],0.0439453125,-0.0654296875,1.18505859375,[0. 0. 0. 0. 0. 0. 0. 0. 0.]
6.679733753204346,-0.01481129601597786,-0.01573062874376774,0.4104457199573517,-0.9116290211677551,[0. 0. 0. 0. 0. 0. 0. 0. 0.],8.23974609375,-2.62451171875,-4.69970703125,[0. 0. 0. 0. 0. 0. 0. 0. 0.],-0.0146484375,-0.013671875,1.04638671875,[0. 0. 0. 0. 0. 0. 0. 0. 0.]
6.699669122695923,-0.015486384741961956,-0.01658407412469387,0.41096752882003784,-0.9113675951957703,[0. 0. 0. 0. 0. 0. 0. 0. 0.],-3.7841796875,0.54931640625,-2.685546875,[0. 0. 0. 0. 0. 0. 0. 0. 0.],-0.06298828125,0.03466796875,0.853515625,[0. 0. 0. 0. 0. 0. 0. 0. 0.]
6.7198333740234375,-0.014305946417152882,-0.017194556072354317,0.4113965928554535,-0.9111820459365845,[0. 0. 0. 0. 0. 0. 0. 0. 0.],3.0517578125,-3.60107421875,-2.01416015625,[0. 0. 0. 0. 0. 0. 0. 0. 0.],-0.04296875,-0.02880859375,1.03564453125,[0. 0. 0. 0. 0. 0. 0. 0. 0.]
6.739536285400391,-0.013172929175198078,-0.016164671629667282,0.41195738315582275,-0.9109644889831543,[0. 0. 0. 0. 0. 0. 0. 0. 0.],6.2255859375,-2.44140625,-4.69970703125,[0. 0. 0. 0. 0. 0. 0. 0. 0.],-0.00439453125,-0.021484375,1.02685546875,[0. 0. 0. 0. 0. 0. 0. 0. 0.]
6.759838581085205,-0.011465124785900116,-0.015603494830429554,0.4126914143562317,-0.9106650352478027,[0. 0. 0. 0. 0. 0. 0. 0. 0.],-8.30078125,0.48828125,-2.197265625,[0. 0. 0. 0. 0. 0. 0. 0. 0.],-0.05419921875,-0.04150390625,0.92724609375,[0. 0. 0. 0. 0. 0. 0. 0. 0.]
6.780662298202515,-0.009415327571332455,-0.016918137669563293,0.41275253891944885,-0.9106374382972717,[0. 0. 0. 0. 0. 0. 0. 0. 0.],-7.26318359375,-2.9296875,-0.3662109375,[0. 0. 0. 0. 0. 0. 0. 0. 0.],-0.10498046875,-0.17578125,0.9140625,[0. 0. 0. 0. 0. 0. 0. 0. 0.]
6.803332090377808,-0.0072658429853618145,-0.017830846831202507,0.41308340430259705,-0.9104897379875183,[0. 0. 0. 0. 0. 0. 0. 0. 0.],-0.91552734375,2.01416015625,-1.953125,[0. 0. 0. 0. 0. 0. 0. 0. 0.],0.00927734375,-0.2392578125,1.08447265625,[0. 0. 0. 0. 0. 0. 0. 0. 0.]
6.8197021484375,-0.006014455109834671,-0.018621403723955154,0.413200706243515,-0.9104297757148743,[0. 0. 0. 0. 0. 0. 0. 0. 0.],-2.99072265625,-1.89208984375,-0.3662109375,[0. 0. 0. 0. 0. 0. 0. 0. 0.],-0.06689453125,-0.22265625,1.03125,[0. 0. 0. 0. 0. 0. 0. 0. 0.]
6.840357780456543,-0.003276380244642496,-0.01918402500450611,0.4133518636226654,-0.9103633761405945,[0. 0. 0. 0. 0. 0. 0. 0. 0.],-7.26318359375,-6.40869140625,-0.732421875,[0. 0. 0. 0. 0. 0. 0. 0. 0.],-0.08544921875,-0.2333984375,0.9384765625,[0. 0. 0. 0. 0. 0. 0. 0. 0.]
6.861521005630493,0.0005086177261546254,-0.020375562831759453,0.41334161162376404,-0.9103479385375977,[0. 0. 0. 0. 0. 0. 0. 0. 0.],-8.85009765625,-3.90625,0.0,[0. 0. 0. 0. 0. 0. 0. 0. 0.],-0.01708984375,-0.24658203125,0.86328125,[0. 0. 0. 0. 0. 0. 0. 0. 0.]
6.879725933074951,0.003468064358457923,-0.020092599093914032,0.41332679986953735,-0.910354495048523,[0. 0. 0. 0. 0. 0. 0. 0. 0.],-8.4228515625,-10.7421875,2.13623046875,[0. 0. 0. 0. 0. 0. 0. 0. 0.],-0.04345703125,-0.25341796875,0.88232421875,[0. 0. 0. 0. 0. 0. 0. 0. 0.]
6.8994903564453125,0.007175195962190628,-0.019165731966495514,0.4118614196777344,-0.9110166430473328,[0. 0. 0. 0. 0. 0. 0. 0. 0.],-3.90625,-22.3388671875,14.95361328125,[0. 0. 0. 0. 0. 0. 0. 0. 0.],-0.02880859375,-0.3466796875,1.044921875,[0. 0. 0. 0. 0. 0. 0. 0. 0.]
6.919600248336792,0.009434669278562069,-0.017599625512957573,0.40772175788879395,-0.9128878116607666,[0. 0. 0. 0. 0. 0. 0. 0. 0.],2.9296875,-8.85009765625,30.6396484375,[0. 0. 0. 0. 0. 0. 0. 0. 0.],0.0966796875,-0.3662109375,1.1845703125,[0. 0. 0. 0. 0. 0. 0. 0. 0.]
6.940619707107544,0.011360296979546547,-0.015186541713774204,0.39927855134010315,-0.9166335463523865,[0. 0. 0. 0. 0. 0. 0. 0. 0.],2.38037109375,-10.498046875,50.59814453125,[0. 0. 0. 0. 0. 0. 0. 0. 0.],0.08740234375,-0.30224609375,1.07275390625,[0. 0. 0. 0. 0. 0. 0. 0. 0.]
6.959734916687012,0.012417716905474663,-0.014713800512254238,0.3919174075126648,-0.9197989106178284,[0. 0. 0. 0. 0. 0. 0. 0. 0.],-1.46484375,-4.150390625,64.63623046875,[0. 0. 0. 0. 0. 0. 0. 0. 0.],0.09033203125,-0.25927734375,0.9892578125,[0. 0. 0. 0. 0. 0. 0. 0. 0.]
6.980716705322266,0.01442786119878292,-0.013632813468575478,0.3799115717411041,-0.9248098134994507,[0. 0. 0. 0. 0. 0. 0. 0. 0.],1.0986328125,-3.662109375,81.35986328125,[0. 0. 0. 0. 0. 0. 0. 0. 0.],0.04248046875,-0.2578125,0.8857421875,[0. 0. 0. 0. 0. 0. 0. 0. 0.]
6.999706268310547,0.015974940732121468,-0.011944498866796494,0.3655451834201813,-0.9305798411369324,[0. 0. 0. 0. 0. 0. 0. 0. 0.],2.44140625,-9.82666015625,96.19140625,[0. 0. 0. 0. 0. 0. 0. 0. 0.],0.1171875,-0.2685546875,1.0,[0. 0. 0. 0. 0. 0. 0. 0. 0.]
7.019590854644775,0.018847916275262833,-0.009083705954253674,0.34851589798927307,-0.9370694160461426,[0. 0. 0. 0. 0. 0. 0. 0. 0.],-3.662109375,-12.8173828125,110.83984375,[0. 0. 0. 0. 0. 0. 0. 0. 0.],0.11328125,-0.18408203125,0.8271484375,[0. 0. 0. 0. 0. 0. 0. 0. 0.]
7.039635419845581,0.02146420069038868,-0.009007174521684647,0.32901498675346375,-0.9440377354621887,[0. 0. 0. 0. 0. 0. 0. 0. 0.],-5.67626953125,-6.34765625,123.6572265625,[0. 0. 0. 0. 0. 0. 0. 0. 0.],0.2138671875,-0.232421875,0.91015625,[0. 0. 0. 0. 0. 0. 0. 0. 0.]
7.061209440231323,0.02427545003592968,-0.006339184008538723,0.3079999089241028,-0.9510555863380432,[0. 0. 0. 0. 0. 0. 0. 0. 0.],-2.3193359375,-12.451171875,130.615234375,[0. 0. 0. 0. 0. 0. 0. 0. 0.],0.251953125,-0.35595703125,1.1943359375,[0. 0. 0. 0. 0. 0. 0. 0. 0.]
7.079999208450317,0.02508494257926941,-0.004034338518977165,0.28588324785232544,-0.9579275846481323,[0. 0. 0. 0. 0. 0. 0. 0. 0.],9.765625,-4.45556640625,135.009765625,[0. 0. 0. 0. 0. 0. 0. 0. 0.],0.34814453125,-0.35693359375,1.17822265625,[0. 0. 0. 0. 0. 0. 0. 0. 0.]
7.100702285766602,0.02491038478910923,-0.0017434442415833473,0.2559380829334259,-0.9663705825805664,[0. 0. 0. 0. 0. 0. 0. 0. 0.],0.91552734375,-3.7841796875,149.71923828125,[0. 0. 0. 0. 0. 0. 0. 0. 0.],0.1953125,-0.23876953125,0.865234375,[0. 0. 0. 0. 0. 0. 0. 0. 0.]
7.119592189788818,0.02594968117773533,-1.454920038668206e-05,0.23625776171684265,-0.9713438749313354,[0. 0. 0. 0. 0. 0. 0. 0. 0.],-0.91552734375,-10.6201171875,160.82763671875,[0. 0. 0. 0. 0. 0. 0. 0. 0.],0.21826171875,-0.212890625,0.8681640625,[0. 0. 0. 0. 0. 0. 0. 0. 0.]
7.140204906463623,0.029554378241300583,0.0012926351046189666,0.20811131596565247,-0.977657675743103,[0. 0. 0. 0. 0. 0. 0. 0. 0.],-5.7373046875,-22.705078125,166.015625,[0. 0. 0. 0. 0. 0. 0. 0. 0.],0.17333984375,-0.2373046875,0.7587890625,[0. 0. 0. 0. 0. 0. 0. 0. 0.]
7.160854816436768,0.032116446644067764,0.004368927795439959,0.17901109158992767,-0.9833130240440369,[0. 0. 0. 0. 0. 0. 0. 0. 0.],-0.1220703125,-3.173828125,172.2412109375,[0. 0. 0. 0. 0. 0. 0. 0. 0.],0.392578125,-0.43505859375,1.189453125,[0. 0. 0. 0. 0. 0. 0. 0. 0.]
7.179760217666626,0.03134823590517044,0.00668015843257308,0.14959070086479187,-0.988228440284729,[0. 0. 0. 0. 0. 0. 0. 0. 0.],12.26806640625,-5.615234375,172.119140625,[0. 0. 0. 0. 0. 0. 0. 0. 0.],0.48828125,-0.3828125,1.203125,[0. 0. 0. 0. 0. 0. 0. 0. 0.]
7.196194171905518,0.03161024674773216,0.008557558059692383,0.11081990599632263,-0.9933008551597595,[0. 0. 0. 0. 0. 0. 0. 0. 0.],1.03759765625,-8.30078125,181.15234375,[0. 0. 0. 0. 0. 0. 0. 0. 0.],0.34033203125,-0.29345703125,0.9794921875,[0. 0. 0. 0. 0. 0. 0. 0. 0.]
7.2198121547698975,0.03239157050848007,0.009849258698523045,0.08651015162467957,-0.9956755638122559,[0. 0. 0. 0. 0. 0. 0. 0. 0.],-2.74658203125,-8.11767578125,188.29345703125,[0. 0. 0. 0. 0. 0. 0. 0. 0.],0.23876953125,-0.23876953125,0.74169921875,[0. 0. 0. 0. 0. 0. 0. 0. 0.]
7.239553451538086,0.03402663394808769,0.013674640096724033,0.05318498611450195,-0.9979110360145569,[0. 0. 0. 0. 0. 0. 0. 0. 0.],5.126953125,-28.01513671875,192.87109375,[0. 0. 0. 0. 0. 0. 0. 0. 0.],0.259765625,-0.33984375,0.8740234375,[0. 0. 0. 0. 0. 0. 0. 0. 0.]
7.25989842414856,0.034418292343616486,0.016107788309454918,0.018725039437413216,-0.9991022944450378,[0. 0. 0. 0. 0. 0. 0. 0. 0.],13.24462890625,-7.8125,199.462890625,[0. 0. 0. 0. 0. 0. 0. 0. 0.],0.50048828125,-0.400390625,1.173828125,[0. 0. 0. 0. 0. 0. 0. 0. 0.]
7.274760961532593,0.03306235745549202,0.017669882625341415,-0.015454244799911976,-0.9991775751113892,[0. 0. 0. 0. 0. 0. 0. 0. 0.],23.0712890625,-23.5595703125,194.88525390625,[0. 0. 0. 0. 0. 0. 0. 0. 0.],0.5322265625,-0.28955078125,1.123046875,[0. 0. 0. 0. 0. 0. 0. 0. 0.]
7.303649663925171,0.030949359759688377,0.01985989324748516,-0.058573778718709946,-0.9976056218147278,[0. 0. 0. 0. 0. 0. 0. 0. 0.],4.5166015625,-5.2490234375,200.25634765625,[0. 0. 0. 0. 0. 0. 0. 0. 0.],0.52490234375,-0.1005859375,0.810546875,[0. 0. 0. 0. 0. 0. 0. 0. 0.]
7.3199615478515625,0.03075222112238407,0.02320942096412182,-0.08445563167333603,-0.9956821203231812,[0. 0. 0. 0. 0. 0. 0. 0. 0.],3.2958984375,-23.74267578125,196.77734375,[0. 0. 0. 0. 0. 0. 0. 0. 0.],0.43310546875,-0.1650390625,0.7373046875,[0. 0. 0. 0. 0. 0. 0. 0. 0.]
7.339658737182617,0.03130827844142914,0.02550262026488781,-0.11852508038282394,-0.9921296834945679,[0. 0. 0. 0. 0. 0. 0. 0. 0.],0.79345703125,-9.21630859375,192.87109375,[0. 0. 0. 0. 0. 0. 0. 0. 0.],0.6279296875,-0.23779296875,0.94970703125,[0. 0. 0. 0. 0. 0. 0. 0. 0.]
7.359402179718018,0.030447181314229965,0.02631646767258644,-0.15074275434017181,-0.9877535104751587,[0. 0. 0. 0. 0. 0. 0. 0. 0.],20.263671875,-5.18798828125,183.16650390625,[0. 0. 0. 0. 0. 0. 0. 0. 0.],0.6982421875,-0.2822265625,1.123046875,[0. 0. 0. 0. 0. 0. 0. 0. 0.]
7.379669904708862,0.028033489361405373,0.027260297909379005,-0.18133236467838287,-0.9826441407203674,[0. 0. 0. 0. 0. 0. 0. 0. 0.],16.66259765625,-13.00048828125,175.59814453125,[0. 0. 0. 0. 0. 0. 0. 0. 0.],0.64794921875,-0.2373046875,1.048828125,[0. 0. 0. 0. 0. 0. 0. 0. 0.]
7.399573564529419,0.026596760377287865,0.028456153348088264,-0.21053771674633026,-0.9768094420433044,[0. 0. 0. 0. 0. 0. 0. 0. 0.],5.55419921875,6.8359375,168.8232421875,[0. 0. 0. 0. 0. 0. 0. 0. 0.],0.6640625,-0.1328125,0.916015625,[0. 0. 0. 0. 0. 0. 0. 0. 0.]
7.419542074203491,0.027449974790215492,0.028355838730931282,-0.23840020596981049,-0.9703647494316101,[0. 0. 0. 0. 0. 0. 0. 0. 0.],-3.2958984375,-7.50732421875,160.64453125,[0. 0. 0. 0. 0. 0. 0. 0. 0.],0.53369140625,-0.119140625,0.78173828125,[0. 0. 0. 0. 0. 0. 0. 0. 0.]
7.439729690551758,0.0267085749655962,0.03285686671733856,-0.2648308277130127,-0.9633648991584778,[0. 0. 0. 0. 0. 0. 0. 0. 0.],1.46484375,-25.93994140625,151.79443359375,[0. 0. 0. 0. 0. 0. 0. 0. 0.],0.509765625,-0.1875,0.88232421875,[0. 0. 0. 0. 0. 0. 0. 0. 0.]
7.460179805755615,0.025540728121995926,0.036269716918468475,-0.2894643247127533,-0.956160306930542,[0. 0. 0. 0. 0. 0. 0. 0. 0.],11.8408203125,-12.14599609375,140.56396484375,[0. 0. 0. 0. 0. 0. 0. 0. 0.],0.80078125,-0.169921875,1.076171875,[0. 0. 0. 0. 0. 0. 0. 0. 0.]
7.474891662597656,0.02449461817741394,0.03471752628684044,-0.3120771050453186,-0.9491062760353088,[0. 0. 0. 0. 0. 0. 0. 0. 0.],17.2119140625,6.9580078125,134.33837890625,[0. 0. 0. 0. 0. 0. 0. 0. 0.],0.78857421875,-0.12158203125,1.1064453125,[0. 0. 0. 0. 0. 0. 0. 0. 0.]
7.499739170074463,0.02254461869597435,0.035879649221897125,-0.3333267867565155,-0.9418586492538452,[0. 0. 0. 0. 0. 0. 0. 0. 0.],12.20703125,-18.310546875,125.8544921875,[0. 0. 0. 0. 0. 0. 0. 0. 0.],0.59033203125,-0.08984375,0.9951171875,[0. 0. 0. 0. 0. 0. 0. 0. 0.]
7.519495725631714,0.020111382007598877,0.037937674671411514,-0.35334858298301697,-0.934505820274353,[0. 0. 0. 0. 0. 0. 0. 0. 0.],12.6953125,0.30517578125,120.78857421875,[0. 0. 0. 0. 0. 0. 0. 0. 0.],0.6728515625,-0.06689453125,0.97265625,[0. 0. 0. 0. 0. 0. 0. 0. 0.]
7.54024863243103,0.019137222319841385,0.03613059222698212,-0.372476726770401,-0.9271405339241028,[0. 0. 0. 0. 0. 0. 0. 0. 0.],11.1083984375,0.732421875,116.27197265625,[0. 0. 0. 0. 0. 0. 0. 0. 0.],0.619140625,-0.03271484375,0.8955078125,[0. 0. 0. 0. 0. 0. 0. 0. 0.]
7.559615135192871,0.018693286925554276,0.03854363039135933,-0.391103595495224,-0.919349193572998,[0. 0. 0. 0. 0. 0. 0. 0. 0.],-7.01904296875,-15.93017578125,111.6943359375,[0. 0. 0. 0. 0. 0. 0. 0. 0.],0.4814453125,-0.001953125,0.74072265625,[0. 0. 0. 0. 0. 0. 0. 0. 0.]
7.57988715171814,0.018172821030020714,0.04074908420443535,-0.4067137837409973,-0.9124653935432434,[0. 0. 0. 0. 0. 0. 0. 0. 0.],9.70458984375,2.86865234375,82.94677734375,[0. 0. 0. 0. 0. 0. 0. 0. 0.],0.78271484375,-0.0087890625,1.10302734375,[0. 0. 0. 0. 0. 0. 0. 0. 0.]
7.599681854248047,0.017108134925365448,0.04067490994930267,-0.41727474331855774,-0.9077085256576538,[0. 0. 0. 0. 0. 0. 0. 0. 0.],12.63427734375,-9.8876953125,56.33544921875,[0. 0. 0. 0. 0. 0. 0. 0. 0.],0.6484375,0.04248046875,1.03955078125,[0. 0. 0. 0. 0. 0. 0. 0. 0.]
7.619961500167847,0.015246659517288208,0.03951805830001831,-0.42333489656448364,-0.9049825668334961,[0. 0. 0. 0. 0. 0. 0. 0. 0.],11.16943359375,13.61083984375,27.9541015625,[0. 0. 0. 0. 0. 0. 0. 0. 0.],0.69091796875,0.10595703125,1.04296875,[0. 0. 0. 0. 0. 0. 0. 0. 0.]
7.639881372451782,0.01464395597577095,0.03776412829756737,-0.42414364218711853,-0.9046886563301086,[0. 0. 0. 0. 0. 0. 0. 0. 0.],-0.48828125,17.822265625,-9.21630859375,[0. 0. 0. 0. 0. 0. 0. 0. 0.],0.61962890625,0.19970703125,0.96630859375,[0. 0. 0. 0. 0. 0. 0. 0. 0.]
7.659898996353149,0.01415015384554863,0.037048522382974625,-0.41884779930114746,-0.9071899652481079,[0. 0. 0. 0. 0. 0. 0. 0. 0.],2.5634765625,3.0517578125,-47.30224609375,[0. 0. 0. 0. 0. 0. 0. 0. 0.],0.52880859375,0.16748046875,0.98583984375,[0. 0. 0. 0. 0. 0. 0. 0. 0.]
7.68033504486084,0.011479347944259644,0.037015151232481,-0.40809112787246704,-0.9121183156967163,[0. 0. 0. 0. 0. 0. 0. 0. 0.],7.6904296875,5.18798828125,-81.6650390625,[0. 0. 0. 0. 0. 0. 0. 0. 0.],0.46142578125,0.16064453125,0.96533203125,[0. 0. 0. 0. 0. 0. 0. 0. 0.]
7.700097560882568,0.010109794326126575,0.033541351556777954,-0.39276769757270813,-0.9189702868461609,[0. 0. 0. 0. 0. 0. 0. 0. 0.],7.26318359375,34.0576171875,-101.62353515625,[0. 0. 0. 0. 0. 0. 0. 0. 0.],0.35595703125,0.25439453125,0.99951171875,[0. 0. 0. 0. 0. 0. 0. 0. 0.]
7.719666957855225,0.008993512019515038,0.028091363608837128,-0.3757104277610779,-0.926267683506012,[0. 0. 0. 0. 0. 0. 0. 0. 0.],8.544921875,23.4375,-108.642578125,[0. 0. 0. 0. 0. 0. 0. 0. 0.],-0.0224609375,0.2568359375,1.00634765625,[0. 0. 0. 0. 0. 0. 0. 0. 0.]
7.739623785018921,0.007598481141030788,0.02343607321381569,-0.3582465350627899,-0.9333019852638245,[0. 0. 0. 0. 0. 0. 0. 0. 0.],8.11767578125,15.68603515625,-107.23876953125,[0. 0. 0. 0. 0. 0. 0. 0. 0.],-0.22900390625,0.3232421875,0.99755859375,[0. 0. 0. 0. 0. 0. 0. 0. 0.]
7.759595632553101,0.005195545963943005,0.020815271884202957,-0.34025242924690247,-0.9400894045829773,[0. 0. 0. 0. 0. 0. 0. 0. 0.],9.58251953125,4.8828125,-110.2294921875,[0. 0. 0. 0. 0. 0. 0. 0. 0.],-0.22216796875,0.328125,1.01806640625,[0. 0. 0. 0. 0. 0. 0. 0. 0.]
7.775398254394531,0.0031687463633716106,0.01771913468837738,-0.3216218054294586,-0.9466971755027771,[0. 0. 0. 0. 0. 0. 0. 0. 0.],3.662109375,16.78466796875,-113.95263671875,[0. 0. 0. 0. 0. 0. 0. 0. 0.],-0.11962890625,0.34765625,0.9775390625,[0. 0. 0. 0. 0. 0. 0. 0. 0.]
7.799887418746948,0.0018246090039610863,0.014436541125178337,-0.3030097782611847,-0.9528764486312866,[0. 0. 0. 0. 0. 0. 0. 0. 0.],8.9111328125,-2.13623046875,-113.95263671875,[0. 0. 0. 0. 0. 0. 0. 0. 0.],-0.271484375,0.32275390625,1.0009765625,[0. 0. 0. 0. 0. 0. 0. 0. 0.]
7.819924831390381,-0.00022607938444707543,0.013175194151699543,-0.2839227020740509,-0.958756685256958,[0. 0. 0. 0. 0. 0. 0. 0. 0.],2.9296875,7.62939453125,-114.013671875,[0. 0. 0. 0. 0. 0. 0. 0. 0.],-0.224609375,0.359375,0.9873046875,[0. 0. 0. 0. 0. 0. 0. 0. 0.]
7.839703798294067,-0.0012632812140509486,0.009783092886209488,-0.2649679183959961,-0.9642068147659302,[0. 0. 0. 0. 0. 0. 0. 0. 0.],5.0048828125,14.404296875,-110.41259765625,[0. 0. 0. 0. 0. 0. 0. 0. 0.],-0.1923828125,0.3349609375,1.0478515625,[0. 0. 0. 0. 0. 0. 0. 0. 0.]
7.860307216644287,-0.002474349457770586,0.007624628022313118,-0.24670588970184326,-0.9690572619438171,[0. 0. 0. 0. 0. 0. 0. 0. 0.],0.06103515625,4.2724609375,-106.3232421875,[0. 0. 0. 0. 0. 0. 0. 0. 0.],-0.28662109375,0.3486328125,1.02001953125,[0. 0. 0. 0. 0. 0. 0. 0. 0.]
7.879880428314209,-0.0032041866797953844,0.00552006158977747,-0.22872522473335266,-0.9734700918197632,[0. 0. 0. 0. 0. 0. 0. 0. 0.],-0.1220703125,8.544921875,-105.46875,[0. 0. 0. 0. 0. 0. 0. 0. 0.],-0.1953125,0.33447265625,0.96435546875,[0. 0. 0. 0. 0. 0. 0. 0. 0.]
7.899956226348877,-0.004958974197506905,0.003335934365168214,-0.210885688662529,-0.9774924516677856,[0. 0. 0. 0. 0. 0. 0. 0. 0.],7.87353515625,0.18310546875,-104.67529296875,[0. 0. 0. 0. 0. 0. 0. 0. 0.],-0.23095703125,0.2939453125,0.966796875,[0. 0. 0. 0. 0. 0. 0. 0. 0.]
7.9202797412872314,-0.006831657141447067,0.0026019029319286346,-0.19332246482372284,-0.9811081290245056,[0. 0. 0. 0. 0. 0. 0. 0. 0.],2.9296875,-2.86865234375,-100.89111328125,[0. 0. 0. 0. 0. 0. 0. 0. 0.],-0.26123046875,0.3427734375,0.9677734375,[0. 0. 0. 0. 0. 0. 0. 0. 0.]
7.939749002456665,-0.00783733930438757,0.0012439308920875192,-0.1763269454240799,-0.9842997193336487,[0. 0. 0. 0. 0. 0. 0. 0. 0.],-2.13623046875,2.197265625,-97.10693359375,[0. 0. 0. 0. 0. 0. 0. 0. 0.],-0.21533203125,0.34765625,1.0029296875,[0. 0. 0. 0. 0. 0. 0. 0. 0.]
7.9604408740997314,-0.008786521852016449,-8.605846960563213e-05,-0.15620172023773193,-0.9876860976219177,[0. 0. 0. 0. 0. 0. 0. 0. 0.],0.48828125,-4.33349609375,-90.33203125,[0. 0. 0. 0. 0. 0. 0. 0. 0.],-0.2724609375,0.3310546875,1.06103515625,[0. 0. 0. 0. 0. 0. 0. 0. 0.]
7.980066537857056,-0.00955957267433405,-0.0004405671788845211,-0.1449223756790161,-0.9893968105316162,[0. 0. 0. 0. 0. 0. 0. 0. 0.],-0.67138671875,-3.662109375,-86.73095703125,[0. 0. 0. 0. 0. 0. 0. 0. 0.],-0.25048828125,0.3251953125,1.02294921875,[0. 0. 0. 0. 0. 0. 0. 0. 0.]
8.000566959381104,-0.010596993379294872,-0.0009897238342091441,-0.1310264766216278,-0.991321861743927,[0. 0. 0. 0. 0. 0. 0. 0. 0.],-0.9765625,-2.13623046875,-77.08740234375,[0. 0. 0. 0. 0. 0. 0. 0. 0.],-0.2041015625,0.314453125,0.98828125,[0. 0. 0. 0. 0. 0. 0. 0. 0.]
8.01983642578125,-0.011776338331401348,-0.0022846520878374577,-0.11913524568080902,-0.9928056001663208,[0. 0. 0. 0. 0. 0. 0. 0. 0.],1.953125,2.99072265625,-64.0869140625,[0. 0. 0. 0. 0. 0. 0. 0. 0.],-0.16650390625,0.27099609375,0.99267578125,[0. 0. 0. 0. 0. 0. 0. 0. 0.]
8.036861419677734,-0.013021755963563919,-0.002926955930888653,-0.11010327935218811,-0.9938305616378784,[0. 0. 0. 0. 0. 0. 0. 0. 0.],-1.15966796875,-8.544921875,-45.22705078125,[0. 0. 0. 0. 0. 0. 0. 0. 0.],-0.20654296875,0.29296875,0.98876953125,[0. 0. 0. 0. 0. 0. 0. 0. 0.]
8.06093692779541,-0.013839922845363617,-0.0030400806572288275,-0.10411572456359863,-0.9944642186164856,[0. 0. 0. 0. 0. 0. 0. 0. 0.],-0.9765625,-5.55419921875,-28.50341796875,[0. 0. 0. 0. 0. 0. 0. 0. 0.],-0.1376953125,0.31689453125,1.048828125,[0. 0. 0. 0. 0. 0. 0. 0. 0.]
8.079707622528076,-0.015369015745818615,-0.0027147233486175537,-0.10047436505556107,-0.9948171973228455,[0. 0. 0. 0. 0. 0. 0. 0. 0.],0.8544921875,-5.18798828125,-16.54052734375,[0. 0. 0. 0. 0. 0. 0. 0. 0.],-0.13525390625,0.30419921875,1.013671875,[0. 0. 0. 0. 0. 0. 0. 0. 0.]
8.099815845489502,-0.017109554260969162,-0.0029441872611641884,-0.09844019263982773,-0.9949915409088135,[0. 0. 0. 0. 0. 0. 0. 0. 0.],2.25830078125,2.25830078125,-9.8876953125,[0. 0. 0. 0. 0. 0. 0. 0. 0.],-0.0537109375,0.31396484375,0.986328125,[0. 0. 0. 0. 0. 0. 0. 0. 0.]
8.119598865509033,-0.017507819458842278,-0.004320034757256508,-0.09739778190851212,-0.9950821995735168,[0. 0. 0. 0. 0. 0. 0. 0. 0.],-11.8408203125,10.009765625,-3.23486328125,[0. 0. 0. 0. 0. 0. 0. 0. 0.],-0.05224609375,0.22900390625,0.92919921875,[0. 0. 0. 0. 0. 0. 0. 0. 0.]
8.14071536064148,-0.016451973468065262,-0.006752536632120609,-0.09676796942949295,-0.9951480627059937,[0. 0. 0. 0. 0. 0. 0. 0. 0.],-3.5400390625,6.9580078125,-2.3193359375,[0. 0. 0. 0. 0. 0. 0. 0. 0.],-0.06103515625,0.03857421875,1.03857421875,[0. 0. 0. 0. 0. 0. 0. 0. 0.]
8.15965461730957,-0.016333650797605515,-0.008612015284597874,-0.09638982266187668,-0.9951724410057068,[0. 0. 0. 0. 0. 0. 0. 0. 0.],-1.220703125,0.0,-2.25830078125,[0. 0. 0. 0. 0. 0. 0. 0. 0.],-0.09619140625,0.07861328125,1.07568359375,[0. 0. 0. 0. 0. 0. 0. 0. 0.]
8.179916143417358,-0.017000723630189896,-0.009868082590401173,-0.09594161063432693,-0.99519282579422,[0. 0. 0. 0. 0. 0. 0. 0. 0.],-2.74658203125,-1.708984375,-3.35693359375,[0. 0. 0. 0. 0. 0. 0. 0. 0.],-0.05078125,0.06787109375,0.9912109375,[0. 0. 0. 0. 0. 0. 0. 0. 0.]
8.19955325126648,-0.0145230982452631,-0.01013516541570425,-0.09513505548238754,-0.9953069090843201,[0. 0. 0. 0. 0. 0. 0. 0. 0.],-7.38525390625,2.62451171875,-5.79833984375,[0. 0. 0. 0. 0. 0. 0. 0. 0.],0.0166015625,-0.05126953125,0.95068359375,[0. 0. 0. 0. 0. 0. 0. 0. 0.]
8.219720602035522,-0.011344749480485916,-0.01022409088909626,-0.09430630505084991,-0.9954261183738708,[0. 0. 0. 0. 0. 0. 0. 0. 0.],-6.40869140625,1.3427734375,-4.0283203125,[0. 0. 0. 0. 0. 0. 0. 0. 0.],-0.03125,-0.1064453125,1.02001953125,[0. 0. 0. 0. 0. 0. 0. 0. 0.]
8.239527463912964,-0.008959589526057243,-0.01070683915168047,-0.0937809944152832,-0.9954950213432312,[0. 0. 0. 0. 0. 0. 0. 0. 0.],-2.01416015625,2.9296875,-1.220703125,[0. 0. 0. 0. 0. 0. 0. 0. 0.],-0.07763671875,-0.10546875,1.052734375,[0. 0. 0. 0. 0. 0. 0. 0. 0.]
8.259689807891846,-0.007436775602400303,-0.011510783806443214,-0.09351827204227448,-0.9955232739448547,[0. 0. 0. 0. 0. 0. 0. 0. 0.],-1.28173828125,0.42724609375,-0.3662109375,[0. 0. 0. 0. 0. 0. 0. 0. 0.],-0.095703125,-0.05615234375,0.994140625,[0. 0. 0. 0. 0. 0. 0. 0. 0.]
8.279900550842285,-0.0061434973031282425,-0.01246915478259325,-0.09344989061355591,-0.9955269694328308,[0. 0. 0. 0. 0. 0. 0. 0. 0.],0.91552734375,-0.732421875,-0.48828125,[0. 0. 0. 0. 0. 0. 0. 0. 0.],-0.0693359375,-0.0361328125,1.00048828125,[0. 0. 0. 0. 0. 0. 0. 0. 0.]
8.299808263778687,-0.004587348084896803,-0.012712382711470127,-0.09315203875303268,-0.9955602288246155,[0. 0. 0. 0. 0. 0. 0. 0. 0.],0.0,3.11279296875,-1.8310546875,[0. 0. 0. 0. 0. 0. 0. 0. 0.],-0.01904296875,-0.03271484375,1.04833984375,[0. 0. 0. 0. 0. 0. 0. 0. 0.]
8.321330070495605,-0.002452383516356349,-0.013120612129569054,-0.0926169753074646,-0.9956123232841492,[0. 0. 0. 0. 0. 0. 0. 0. 0.],-1.28173828125,0.18310546875,-1.77001953125,[0. 0. 0. 0. 0. 0. 0. 0. 0.],-0.052734375,-0.03173828125,0.96923828125,[0. 0. 0. 0. 0. 0. 0. 0. 0.]
8.33968472480774,-0.0011507699964568019,-0.013514372520148754,-0.09233296662569046,-0.9956358075141907,[0. 0. 0. 0. 0. 0. 0. 0. 0.],-1.03759765625,-2.8076171875,-2.01416015625,[0. 0. 0. 0. 0. 0. 0. 0. 0.],-0.0556640625,-0.04345703125,0.95751953125,[0. 0. 0. 0. 0. 0. 0. 0. 0.]
8.359760761260986,0.001194487209431827,-0.013533717021346092,-0.09212960302829742,-0.9956544041633606,[0. 0. 0. 0. 0. 0. 0. 0. 0.],-5.67626953125,-1.0986328125,-0.67138671875,[0. 0. 0. 0. 0. 0. 0. 0. 0.],-0.05810546875,-0.12939453125,0.927734375,[0. 0. 0. 0. 0. 0. 0. 0. 0.]
8.379976511001587,0.003152623074129224,-0.012775909155607224,-0.09168505668640137,-0.9957011342048645,[0. 0. 0. 0. 0. 0. 0. 0. 0.],0.91552734375,-3.84521484375,-1.64794921875,[0. 0. 0. 0. 0. 0. 0. 0. 0.],-0.04150390625,-0.09814453125,1.0390625,[0. 0. 0. 0. 0. 0. 0. 0. 0.]
8.399526119232178,0.004662488121539354,-0.012351764366030693,-0.09138601273298264,-0.9957280158996582,[0. 0. 0. 0. 0. 0. 0. 0. 0.],2.44140625,-5.0048828125,-2.0751953125,[0. 0. 0. 0. 0. 0. 0. 0. 0.],-0.044921875,-0.0732421875,1.04833984375,[0. 0. 0. 0. 0. 0. 0. 0. 0.]
8.419446468353271,0.00604709517210722,-0.01233450323343277,-0.09112433344125748,-0.9957447648048401,[0. 0. 0. 0. 0. 0. 0. 0. 0.],0.0,-2.13623046875,-2.01416015625,[0. 0. 0. 0. 0. 0. 0. 0. 0.],-0.03369140625,-0.0400390625,1.02587890625,[0. 0. 0. 0. 0. 0. 0. 0. 0.]
8.43981647491455,0.007877045311033726,-0.013090578839182854,-0.09101992100477219,-0.9957318902015686,[0. 0. 0. 0. 0. 0. 0. 0. 0.],-6.4697265625,-4.638671875,-0.732421875,[0. 0. 0. 0. 0. 0. 0. 0. 0.],-0.0634765625,-0.029296875,0.9072265625,[0. 0. 0. 0. 0. 0. 0. 0. 0.]
8.460390090942383,0.010013509541749954,-0.012886518612504005,-0.09086643159389496,-0.9957293272018433,[0. 0. 0. 0. 0. 0. 0. 0. 0.],-1.46484375,-1.89208984375,-0.8544921875,[0. 0. 0. 0. 0. 0. 0. 0. 0.],-0.0224609375,-0.0556640625,1.03515625,[0. 0. 0. 0. 0. 0. 0. 0. 0.]
8.480604410171509,0.011185714974999428,-0.012105844914913177,-0.09064646810293198,-0.9957467317581177,[0. 0. 0. 0. 0. 0. 0. 0. 0.],4.0283203125,0.30517578125,-0.42724609375,[0. 0. 0. 0. 0. 0. 0. 0. 0.],-0.025390625,-0.046875,1.044921875,[0. 0. 0. 0. 0. 0. 0. 0. 0.]
8.494690418243408,0.010874387808144093,-0.013354063034057617,-0.09075254946947098,-0.995724618434906,[0. 0. 0. 0. 0. 0. 0. 0. 0.],2.0751953125,-2.01416015625,1.0986328125,[0. 0. 0. 0. 0. 0. 0. 0. 0.],-0.0703125,0.00048828125,0.9970703125,[0. 0. 0. 0. 0. 0. 0. 0. 0.]
8.522224187850952,0.009158985689282417,-0.012561720795929432,-0.09043388068675995,-0.9957811236381531,[0. 0. 0. 0. 0. 0. 0. 0. 0.],-0.9765625,-3.662109375,-1.89208984375,[0. 0. 0. 0. 0. 0. 0. 0. 0.],-0.0234375,0.01220703125,1.05712890625,[0. 0. 0. 0. 0. 0. 0. 0. 0.]
8.539668798446655,0.008808082900941372,-0.012815779075026512,-0.09016522765159607,-0.9958054423332214,[0. 0. 0. 0. 0. 0. 0. 0. 0.],0.06103515625,-5.9814453125,-2.38037109375,[0. 0. 0. 0. 0. 0. 0. 0. 0.],-0.0595703125,-0.00439453125,0.986328125,[0. 0. 0. 0. 0. 0. 0. 0. 0.]
8.55992317199707,0.00785963237285614,-0.01241926196962595,-0.08966361731290817,-0.995863676071167,[0. 0. 0. 0. 0. 0. 0. 0. 0.],1.8310546875,6.89697265625,-3.41796875,[0. 0. 0. 0. 0. 0. 0. 0. 0.],0.04150390625,-0.00537109375,0.94775390625,[0. 0. 0. 0. 0. 0. 0. 0. 0.]
8.58118224143982,0.007250841706991196,-0.012579024769365788,-0.08911137282848358,-0.9959158897399902,[0. 0. 0. 0. 0. 0. 0. 0. 0.],-1.64794921875,7.38525390625,-1.77001953125,[0. 0. 0. 0. 0. 0. 0. 0. 0.],-0.02197265625,0.009765625,0.947265625,[0. 0. 0. 0. 0. 0. 0. 0. 0.]
8.600067615509033,0.006635618396103382,-0.012884702533483505,-0.08909334242343903,-0.995917797088623,[0. 0. 0. 0. 0. 0. 0. 0. 0.],-3.662109375,-6.34765625,1.52587890625,[0. 0. 0. 0. 0. 0. 0. 0. 0.],-0.056640625,0.01806640625,1.00048828125,[0. 0. 0. 0. 0. 0. 0. 0. 0.]
8.619733095169067,0.0060565355233848095,-0.010047274641692638,-0.08999776840209961,-0.9958728551864624,[0. 0. 0. 0. 0. 0. 0. 0. 0.],0.79345703125,-9.70458984375,9.521484375,[0. 0. 0. 0. 0. 0. 0. 0. 0.],0.02001953125,-0.0078125,1.03857421875,[0. 0. 0. 0. 0. 0. 0. 0. 0.]
8.637336254119873,0.004489959683269262,-0.005870895925909281,-0.09384077787399292,-0.995559811592102,[0. 0. 0. 0. 0. 0. 0. 0. 0.],0.6103515625,-1.953125,22.39990234375,[0. 0. 0. 0. 0. 0. 0. 0. 0.],0.0576171875,0.03173828125,1.01806640625,[0. 0. 0. 0. 0. 0. 0. 0. 0.]
8.65951943397522,0.0035349575337022543,-0.004469729494303465,-0.09729232639074326,-0.9952396154403687,[0. 0. 0. 0. 0. 0. 0. 0. 0.],2.01416015625,-1.3427734375,28.62548828125,[0. 0. 0. 0. 0. 0. 0. 0. 0.],0.0771484375,0.0390625,1.0419921875,[0. 0. 0. 0. 0. 0. 0. 0. 0.]
8.679730415344238,0.0017056124052032828,-0.0031130064744502306,-0.10348483175039291,-0.9946247339248657,[0. 0. 0. 0. 0. 0. 0. 0. 0.],6.04248046875,-1.8310546875,38.9404296875,[0. 0. 0. 0. 0. 0. 0. 0. 0.],0.06103515625,0.03857421875,1.06396484375,[0. 0. 0. 0. 0. 0. 0. 0. 0.]
8.7008957862854,-0.0004710800130851567,-0.0011725767981261015,-0.1131991371512413,-0.9935715198516846,[0. 0. 0. 0. 0. 0. 0. 0. 0.],-1.77001953125,-4.69970703125,48.583984375,[0. 0. 0. 0. 0. 0. 0. 0. 0.],0.02587890625,0.08056640625,0.93994140625,[0. 0. 0. 0. 0. 0. 0. 0. 0.]
8.719789266586304,-0.0020000836811959743,6.910483352839947e-05,-0.11991962790489197,-0.9927816987037659,[0. 0. 0. 0. 0. 0. 0. 0. 0.],1.0986328125,-11.474609375,52.6123046875,[0. 0. 0. 0. 0. 0. 0. 0. 0.],0.013671875,0.0888671875,0.97314453125,[0. 0. 0. 0. 0. 0. 0. 0. 0.]
8.739587783813477,-0.004462902434170246,0.0012338340748101473,-0.12974035739898682,-0.9915371537208557,[0. 0. 0. 0. 0. 0. 0. 0. 0.],3.7841796875,-5.4931640625,57.4951171875,[0. 0. 0. 0. 0. 0. 0. 0. 0.],0.03076171875,0.11669921875,0.93212890625,[0. 0. 0. 0. 0. 0. 0. 0. 0.]
8.762913703918457,-0.005893045570701361,0.0023927325382828712,-0.13936571776866913,-0.9902205467224121,[0. 0. 0. 0. 0. 0. 0. 0. 0.],-2.8076171875,-1.40380859375,55.17578125,[0. 0. 0. 0. 0. 0. 0. 0. 0.],0.0751953125,0.1376953125,0.9501953125,[0. 0. 0. 0. 0. 0. 0. 0. 0.]
8.781230688095093,-0.007159864064306021,0.003931981511414051,-0.14866366982460022,-0.9888541102409363,[0. 0. 0. 0. 0. 0. 0. 0. 0.],-1.708984375,-5.37109375,54.26025390625,[0. 0. 0. 0. 0. 0. 0. 0. 0.],0.06787109375,0.11865234375,1.064453125,[0. 0. 0. 0. 0. 0. 0. 0. 0.]
8.799805164337158,-0.008935407735407352,0.00530099356546998,-0.15796971321105957,-0.9873892664909363,[0. 0. 0. 0. 0. 0. 0. 0. 0.],2.99072265625,-0.48828125,53.52783203125,[0. 0. 0. 0. 0. 0. 0. 0. 0.],0.076171875,0.11181640625,1.08251953125,[0. 0. 0. 0. 0. 0. 0. 0. 0.]
8.819682836532593,-0.011666268110275269,0.006103432737290859,-0.16680315136909485,-0.9859023690223694,[0. 0. 0. 0. 0. 0. 0. 0. 0.],8.11767578125,-3.96728515625,49.9267578125,[0. 0. 0. 0. 0. 0. 0. 0. 0.],0.080078125,0.23486328125,1.0634765625,[0. 0. 0. 0. 0. 0. 0. 0. 0.]
8.835389137268066,-0.013099279254674911,0.006618442013859749,-0.17523996531963348,-0.9844163656234741,[0. 0. 0. 0. 0. 0. 0. 0. 0.],-4.0283203125,-1.89208984375,48.40087890625,[0. 0. 0. 0. 0. 0. 0. 0. 0.],0.0498046875,0.24853515625,0.8388671875,[0. 0. 0. 0. 0. 0. 0. 0. 0.]
8.86068868637085,-0.014251228421926498,0.006895364727824926,-0.1830650269985199,-0.9829732775688171,[0. 0. 0. 0. 0. 0. 0. 0. 0.],0.244140625,6.16455078125,45.59326171875,[0. 0. 0. 0. 0. 0. 0. 0. 0.],0.10302734375,0.1884765625,1.07421875,[0. 0. 0. 0. 0. 0. 0. 0. 0.]
8.880242824554443,-0.016450956463813782,0.00700016925111413,-0.1904066950082779,-0.9815425276756287,[0. 0. 0. 0. 0. 0. 0. 0. 0.],6.9580078125,1.40380859375,42.236328125,[0. 0. 0. 0. 0. 0. 0. 0. 0.],0.080078125,0.1630859375,1.08544921875,[0. 0. 0. 0. 0. 0. 0. 0. 0.]
8.899975061416626,-0.01884828507900238,0.00694009754806757,-0.19733880460262299,-0.980129599571228,[0. 0. 0. 0. 0. 0. 0. 0. 0.],4.39453125,-0.30517578125,39.9169921875,[0. 0. 0. 0. 0. 0. 0. 0. 0.],0.021484375,0.1748046875,0.93603515625,[0. 0. 0. 0. 0. 0. 0. 0. 0.]
8.919632196426392,-0.0205826535820961,0.006225864868611097,-0.2039031684398651,-0.9787548780441284,[0. 0. 0. 0. 0. 0. 0. 0. 0.],-1.28173828125,2.50244140625,38.02490234375,[0. 0. 0. 0. 0. 0. 0. 0. 0.],-0.00146484375,0.20751953125,0.9814453125,[0. 0. 0. 0. 0. 0. 0. 0. 0.]
8.939834356307983,-0.021595735102891922,0.006006736308336258,-0.2103273570537567,-0.9773740768432617,[0. 0. 0. 0. 0. 0. 0. 0. 0.],-4.0283203125,-1.40380859375,38.39111328125,[0. 0. 0. 0. 0. 0. 0. 0. 0.],0.0048828125,0.17529296875,1.0634765625,[0. 0. 0. 0. 0. 0. 0. 0. 0.]
8.959644079208374,-0.02310241013765335,0.0057379985228180885,-0.21667689085006714,-0.9759531617164612,[0. 0. 0. 0. 0. 0. 0. 0. 0.],2.74658203125,0.3662109375,37.4755859375,[0. 0. 0. 0. 0. 0. 0. 0. 0.],0.0087890625,0.12890625,1.04345703125,[0. 0. 0. 0. 0. 0. 0. 0. 0.]
8.979639053344727,-0.025097941979765892,0.005279648583382368,-0.2226662039756775,-0.9745573401451111,[0. 0. 0. 0. 0. 0. 0. 0. 0.],0.91552734375,0.30517578125,33.50830078125,[0. 0. 0. 0. 0. 0. 0. 0. 0.],0.00927734375,0.13427734375,0.95361328125,[0. 0. 0. 0. 0. 0. 0. 0. 0.]
9.000082015991211,-0.026443663984537125,0.00442926399409771,-0.22791074216365814,-0.9733127951622009,[0. 0. 0. 0. 0. 0. 0. 0. 0.],-2.197265625,5.18798828125,28.74755859375,[0. 0. 0. 0. 0. 0. 0. 0. 0.],0.02294921875,0.11962890625,0.93505859375,[0. 0. 0. 0. 0. 0. 0. 0. 0.]
9.019538402557373,-0.02692219614982605,0.0025572997983545065,-0.232000470161438,-0.9723397493362427,[0. 0. 0. 0. 0. 0. 0. 0. 0.],-5.55419921875,9.94873046875,21.54541015625,[0. 0. 0. 0. 0. 0. 0. 0. 0.],-0.00830078125,0.09716796875,0.97802734375,[0. 0. 0. 0. 0. 0. 0. 0. 0.]
9.040283918380737,-0.02680188976228237,3.556616502464749e-05,-0.2347273975610733,-0.9716916680335999,[0. 0. 0. 0. 0. 0. 0. 0. 0.],-2.01416015625,4.638671875,13.12255859375,[0. 0. 0. 0. 0. 0. 0. 0. 0.],-0.0634765625,0.08642578125,1.00146484375,[0. 0. 0. 0. 0. 0. 0. 0. 0.]
9.05972933769226,-0.027113543823361397,-0.002475024200975895,-0.2362375110387802,-0.9713138937950134,[0. 0. 0. 0. 0. 0. 0. 0. 0.],0.06103515625,3.7841796875,5.18798828125,[0. 0. 0. 0. 0. 0. 0. 0. 0.],-0.0419921875,0.115234375,1.0625,[0. 0. 0. 0. 0. 0. 0. 0. 0.]
9.07975959777832,-0.0282914936542511,-0.00430344371125102,-0.23638957738876343,-0.9712368845939636,[0. 0. 0. 0. 0. 0. 0. 0. 0.],0.9765625,3.47900390625,-1.0986328125,[0. 0. 0. 0. 0. 0. 0. 0. 0.],-0.02294921875,0.1103515625,1.07421875,[0. 0. 0. 0. 0. 0. 0. 0. 0.]
9.100323915481567,-0.029036736115813255,-0.006150777451694012,-0.23599451780319214,-0.9713010191917419,[0. 0. 0. 0. 0. 0. 0. 0. 0.],-2.62451171875,2.8076171875,-3.23486328125,[0. 0. 0. 0. 0. 0. 0. 0. 0.],-0.04296875,0.1171875,0.9755859375,[0. 0. 0. 0. 0. 0. 0. 0. 0.]
9.119555473327637,-0.029443027451634407,-0.007816456258296967,-0.23550792038440704,-0.971394956111908,[0. 0. 0. 0. 0. 0. 0. 0. 0.],-3.173828125,1.8310546875,-1.8310546875,[0. 0. 0. 0. 0. 0. 0. 0. 0.],-0.0556640625,0.10009765625,0.95166015625,[0. 0. 0. 0. 0. 0. 0. 0. 0.]
9.140140056610107,-0.029550859704613686,-0.009680544957518578,-0.23538124561309814,-0.9714055061340332,[0. 0. 0. 0. 0. 0. 0. 0. 0.],1.46484375,-2.25830078125,0.244140625,[0. 0. 0. 0. 0. 0. 0. 0. 0.],-0.07568359375,0.0771484375,1.0380859375,[0. 0. 0. 0. 0. 0. 0. 0. 0.]
9.15969467163086,-0.03013155795633793,-0.010903088375926018,-0.23563359677791595,-0.9713136553764343,[0. 0. 0. 0. 0. 0. 0. 0. 0.],3.2958984375,-3.96728515625,2.86865234375,[0. 0. 0. 0. 0. 0. 0. 0. 0.],-0.06005859375,0.07958984375,1.0234375,[0. 0. 0. 0. 0. 0. 0. 0. 0.]
9.180773496627808,-0.03162870556116104,-0.011558215133845806,-0.23626312613487244,-0.9711055159568787,[0. 0. 0. 0. 0. 0. 0. 0. 0.],0.9765625,-5.18798828125,4.57763671875,[0. 0. 0. 0. 0. 0. 0. 0. 0.],-0.015625,0.0927734375,0.96826171875,[0. 0. 0. 0. 0. 0. 0. 0. 0.]
9.200603723526001,-0.0328962504863739,-0.011919758282601833,-0.23763959109783173,-0.970723032951355,[0. 0. 0. 0. 0. 0. 0. 0. 0.],-0.6103515625,-6.7138671875,11.8408203125,[0. 0. 0. 0. 0. 0. 0. 0. 0.],-0.03271484375,0.07373046875,0.98046875,[0. 0. 0. 0. 0. 0. 0. 0. 0.]
