time,imu.ypr.x,imu.ypr.y,imu.ypr.z,imu.linear_acceleration.x,imu.linear_acceleration.y,imu.linear_acceleration.z,imu.angular_velocity.x,imu.angular_velocity.y,imu.angular_velocity.z,imu.compass.x,imu.compass.y,imu.compass.z,imu.orientation.x,imu.orientation.y,imu.orientation.z,imu.orientation.w
0.06439423561096191,-1.1124033482074753,2.8058449126924114,127.48505738655946,-0.04931640625,0.01953125,1.00439453125,-0.18310546875,-0.732421875,0.0,0.0,0.0,0.0,0.026249157264828682,0.002127852523699403,-0.8966091871261597,0.4420391619205475
0.08238887786865234,-1.1325330896302666,2.8016616352691903,127.48959263216834,-0.048828125,0.01953125,1.00537109375,0.0,-0.9765625,-0.3662109375,0.0,0.0,0.0,0.0262941624969244,0.001953155966475606,-0.89662766456604,0.44199973344802856
0.10790848731994629,-1.1120500993613387,2.722931752253746,127.49265255691651,-0.04736328125,0.01953125,1.00439453125,0.30517578125,-0.67138671875,-0.244140625,0.0,0.0,0.0,0.025599317625164986,0.0018087702337652445,-0.8966509699821472,0.44199374318122864
0.12685418128967285,-1.1352123380539096,2.802814656578453,127.4932262928068,-0.048828125,0.01953125,1.00537109375,-0.30517578125,-0.42724609375,-0.18310546875,0.0,0.0,0.0,0.026313576847314835,0.0019358100835233927,-0.8966415524482727,0.441970556974411
0.14698362350463867,-1.175957831547621,2.722294410226819,127.49471527404586,-0.04736328125,0.02001953125,1.0029296875,-0.48828125,-0.54931640625,-0.244140625,0.0,0.0,0.0,0.025840850546956062,0.0013057836331427097,-0.8966599106788635,0.44196343421936035
0.16664719581604004,-1.1134579721040077,2.7376177261863313,127.50095806694725,-0.0478515625,0.02001953125,1.00537109375,0.06103515625,-0.30517578125,-0.06103515625,0.0,0.0,0.0,0.025719771161675453,0.0018525875639170408,-0.8966808319091797,0.44192591309547424
0.18221664428710938,-1.1975531821559087,2.758591743023559,127.50064387824543,-0.0478515625,0.0205078125,1.00439453125,0.3662109375,-0.67138671875,-0.18310546875,0.0,0.0,0.0,0.02620815485715866,0.0012755787465721369,-0.8966777324676514,0.44190579652786255
0.20772910118103027,-1.1209340410374096,2.772279228676853,127.50579384087962,-0.048828125,0.01953125,1.001953125,-0.244140625,-1.220703125,-0.06103515625,0.0,0.0,0.0,0.02601984702050686,0.001926788710989058,-0.8966944217681885,0.4418805241584778
0.22709870338439941,-1.1994034163690417,2.783356301406733,127.50586214277132,-0.048828125,0.02099609375,1.00244140625,-0.06103515625,-0.79345703125,-0.3662109375,0.0,0.0,0.0,0.02640908770263195,0.0013554963516071439,-0.8966941237449646,0.441860169172287
0.2471942901611328,-1.240433856817189,2.790254792468446,127.50754236930713,-0.048828125,0.021484375,1.00244140625,0.0,-0.18310546875,-0.18310546875,0.0,0.0,0.0,0.026621278375387192,0.001060666050761938,-0.8967000246047974,0.4418363571166992
0.2626018524169922,-1.2236852724769658,2.804906615455181,127.51083452048708,-0.04931640625,0.021484375,1.00537109375,-0.18310546875,-0.54931640625,-0.06103515625,0.0,0.0,0.0,0.026671359315514565,0.0012475157855078578,-0.8967103958129883,0.4418119192123413
0.28800368309020996,-1.1950068022559632,2.8462185877631803,127.51654455863321,-0.0498046875,0.02099609375,1.00439453125,-0.06103515625,-0.91552734375,-0.1220703125,0.0,0.0,0.0,0.026884064078330994,0.0016300383722409606,-0.8967257142066956,0.44176650047302246
0.31291937828063965,-1.1659192677367003,2.753716055173228,127.52213165337429,-0.04833984375,0.02001953125,1.005859375,0.30517578125,-0.732421875,-0.244140625,0.0,0.0,0.0,0.02604830078780651,0.0014994106022641063,-0.896760880947113,0.441745787858963
0.3266630172729492,-1.1707649667877071,2.8011579088179017,127.52319716288481,-0.04931640625,0.0205078125,1.0029296875,-0.06103515625,-0.3662109375,-0.18310546875,0.0,0.0,0.0,0.026438172906637192,0.0016443112399429083,-0.8967579007148743,0.4417280852794647
0.3470158576965332,-1.2358521872662858,2.8099581806766403,127.52316984212813,-0.04931640625,0.021484375,1.00439453125,-0.54931640625,-0.48828125,-0.244140625,0.0,0.0,0.0,0.026757916435599327,0.0011689224047586322,-0.8967572450637817,0.4417116045951843
0.3853182792663574,-1.0720795121733067,2.7665376009058114,127.53771814506025,-0.048828125,0.01904296875,1.00390625,0.18310546875,-0.732421875,-0.244140625,0.0,0.0,0.0,0.025787170976400375,0.00227973866276443,-0.8968174457550049,0.4416428208351135
0.39098525047302246,-1.0720795121733067,2.7665376009058114,127.53771814506025,-0.048828125,0.01904296875,1.00390625,0.18310546875,-0.732421875,-0.244140625,0.0,0.0,0.0,0.025787170976400375,0.00227973866276443,-0.8968174457550049,0.4416428208351135
0.4076666831970215,-1.1326631833896141,2.820775492774648,127.53807331489709,-0.0498046875,0.01953125,1.00537109375,0.244140625,-0.91552734375,-0.18310546875,0.0,0.0,0.0,0.026445040479302406,0.0020147457253187895,-0.8968116641044617,0.4416169822216034
0.4252629280090332,-1.175891770811742,2.7811840878072576,127.53872901305742,-0.048828125,0.0205078125,1.0048828125,-0.54931640625,-0.54931640625,-0.18310546875,0.0,0.0,0.0,0.026301871985197067,0.0015235522296279669,-0.8968208432197571,0.44160881638526917
0.45662903785705566,-1.0779146281586132,2.7679482484128304,127.54879671189401,-0.0478515625,0.01904296875,1.00048828125,-0.18310546875,-0.30517578125,-0.1220703125,0.0,0.0,0.0,0.025820912793278694,0.0022370151709765196,-0.8968600630760193,0.4415545165538788
0.4659724235534668,-1.0452301452676924,2.7737908349175417,127.55131022150859,-0.04833984375,0.0185546875,1.00341796875,0.30517578125,-0.42724609375,0.06103515625,0.0,0.0,0.0,0.025740742683410645,0.0025147919077426195,-0.8968681693077087,0.44154122471809387
0.48923277854919434,-1.0298960504158965,2.750428386304925,127.55484825949864,-0.048828125,0.0185546875,1.0068359375,-0.06103515625,-1.15966796875,-0.18310546875,0.0,0.0,0.0,0.025498926639556885,0.002543921349570155,-0.8968850374221802,0.4415208101272583
0.5068588256835938,-1.113505676706492,2.697772323559181,127.55420622171667,-0.04736328125,0.01953125,1.0048828125,0.0,-1.03759765625,-0.244140625,0.0,0.0,0.0,0.025409018620848656,0.0016865989891812205,-0.8968920111656189,0.4415159225463867
0.5268902778625488,-1.208039123357465,2.8321089110418147,127.55314071220614,-0.04931640625,0.02099609375,1.001953125,-0.1220703125,-0.30517578125,-0.244140625,0.0,0.0,0.0,0.02682439051568508,0.0014650332741439342,-0.8968690633773804,0.4414794445037842
0.551809549331665,-1.21922686649624,2.808940055603485,127.55637822187273,-0.048828125,0.02099609375,1.0029296875,-0.1220703125,-0.18310546875,0.06103515625,0.0,0.0,0.0,0.02668623998761177,0.001287364400923252,-0.8968852162361145,0.44145578145980835
0.5676186084747314,-1.1457306159323177,2.8101630863517406,127.56277127893586,-0.048828125,0.0205078125,1.00439453125,-0.1220703125,-0.91552734375,-0.06103515625,0.0,0.0,0.0,0.02641277015209198,0.0018658472690731287,-0.8969086408615112,0.4414224922657013
0.5872957706451416,-1.208837508438416,2.832382545495438,127.56249807136906,-0.04931640625,0.0205078125,1.00439453125,0.1220703125,-1.03759765625,-0.244140625,0.0,0.0,0.0,0.02682972513139248,0.0014576534740626812,-0.8969051241874695,0.44140613079071045
0.6213071346282959,-1.1148498365908093,2.8064308148571517,127.57204667582874,-0.048828125,0.01953125,1.00439453125,-0.06103515625,-0.3662109375,-0.06103515625,0.0,0.0,0.0,0.026264775544404984,0.002091034548357129,-0.8969444036483765,0.44135767221450806
0.6267671585083008,-1.1974014238902875,2.8317093449753687,127.57068063799474,-0.0498046875,0.0205078125,1.00341796875,-0.30517578125,-0.8544921875,-0.244140625,0.0,0.0,0.0,0.026780515909194946,0.0015426549362018704,-0.8969365954399109,0.4413449168205261
0.6479699611663818,-1.2026110439580089,2.806969332584525,127.57231988339554,-0.048828125,0.021484375,1.00390625,-0.3662109375,-0.42724609375,-0.1220703125,0.0,0.0,0.0,0.026607003062963486,0.0014061115216463804,-0.8969467282295227,0.44133520126342773
0.6690099239349365,-1.1516013769673554,2.7878648665891763,127.57697807240949,-0.048828125,0.02001953125,1.00439453125,0.244140625,-0.3662109375,0.0,0.0,0.0,0.0,0.026261113584041595,0.0017306581139564514,-0.8969668745994568,0.441313773393631
0.6875004768371582,-1.1016031115823925,2.865755703553767,127.58255150677222,-0.05029296875,0.02001953125,1.0048828125,0.30517578125,-0.6103515625,-0.1220703125,0.0,0.0,0.0,0.02667822130024433,0.002420989330857992,-0.8969752788543701,0.44126835465431213
0.7073657512664795,-1.150653688220016,2.7491095194648776,127.58341211060764,-0.04833984375,0.02001953125,1.00439453125,-0.244140625,-1.15966796875,-0.244140625,0.0,0.0,0.0,0.025954265147447586,0.0015872200019657612,-0.8969974517822266,0.4412704408168793
0.7268111705780029,-1.1151939073702486,2.7798596714385098,127.58852109210682,-0.048828125,0.01953125,1.00439453125,-0.1220703125,-0.48828125,-0.18310546875,0.0,0.0,0.0,0.02605845220386982,0.0019821543246507645,-0.897011935710907,0.44123315811157227
0.7468972206115723,-1.068905288478249,2.868722566974491,127.59345248868756,-0.05029296875,0.01953125,1.00537109375,-0.1220703125,-0.06103515625,-0.06103515625,0.0,0.0,0.0,0.026575781404972076,0.0026858397759497166,-0.8970160484313965,0.44119003415107727
0.7618682384490967,-1.112094388869238,2.8601216512621526,127.59429943214464,-0.05029296875,0.01953125,1.005859375,-0.18310546875,-0.67138671875,-0.1220703125,0.0,0.0,0.0,0.026674766093492508,0.0023144157603383064,-0.8970217108726501,0.4411749243736267
0.7889456748962402,-1.0763576651929676,2.9127234993813595,127.59797407391811,-0.05078125,0.0185546875,1.005859375,-0.06103515625,-1.0986328125,-0.1220703125,0.0,0.0,0.0,0.02694893628358841,0.002796010347083211,-0.8970265984535217,0.44114550948143005
0.8092529773712158,-1.1201757833178325,2.7037519407341155,127.59925814948207,-0.046875,0.01953125,1.00537109375,0.1220703125,-0.8544921875,-0.244140625,0.0,0.0,0.0,0.025482159107923508,0.001647435245104134,-0.897064745426178,0.44116082787513733
0.8272161483764648,-1.203905044640609,2.7602115650739103,127.59828826261993,-0.048828125,0.021484375,1.00244140625,-0.244140625,-0.3662109375,-0.18310546875,0.0,0.0,0.0,0.026246363297104836,0.0012097656726837158,-0.8970537781715393,0.4411398470401764
0.8485124111175537,-1.1484724032755491,2.7817676420944704,127.60326064033569,-0.048828125,0.0205078125,1.00390625,-0.42724609375,-0.42724609375,-0.1220703125,0.0,0.0,0.0,0.026201745495200157,0.001725635607726872,-0.8970689177513123,0.4411097764968872
0.868964672088623,-1.1934694760841815,2.814468880293199,127.60459935741302,-0.04931640625,0.02099609375,1.0029296875,0.0,-0.6103515625,-0.06103515625,0.0,0.0,0.0,0.026630906388163567,0.0014990774216130376,-0.8970697522163391,0.4410833418369293
0.8882548809051514,-1.1694297715266753,2.7804545382265355,127.60903898037353,-0.048828125,0.02001953125,1.00390625,0.42724609375,-0.8544921875,-0.18310546875,0.0,0.0,0.0,0.02627221867442131,0.0015551894903182983,-0.8970916867256165,0.44106003642082214
0.9071528911590576,-1.0862289960909286,2.839371750007065,127.61629264127208,-0.04931640625,0.01904296875,1.001953125,-0.06103515625,-0.91552734375,-0.18310546875,0.0,0.0,0.0,0.026413260027766228,0.0024318560026586056,-0.8971090316772461,0.44101226329803467
0.9267642498016357,-1.1461325298762908,2.6889428099530583,127.61623799975872,-0.046875,0.0205078125,1.00390625,-0.54931640625,-0.6103515625,-0.18310546875,0.0,0.0,0.0,0.02546638995409012,0.001383397844620049,-0.8971325755119324,0.44102463126182556
0.9523196220397949,-1.1508972271526094,2.7341802200431107,127.61861490558988,-0.0478515625,0.02001953125,1.00439453125,-0.18310546875,-0.244140625,-0.1220703125,0.0,0.0,0.0,0.025838837027549744,0.0015198265900835395,-0.8971351981163025,0.4409972131252289
0.9672176837921143,-1.0745692228474821,2.793639364645599,127.6253767928682,-0.04931640625,0.0185546875,1.00439453125,0.30517578125,-0.42724609375,0.0,0.0,0.0,0.0,0.026010625064373016,0.0023449037689715624,-0.8971508741378784,0.44095149636268616
0.9867691993713379,-1.0500893979753334,2.8136970689169876,127.62950222712689,-0.04931640625,0.01806640625,1.0029296875,-0.06103515625,-1.15966796875,-0.1220703125,0.0,0.0,0.0,0.02607351541519165,0.0026128750760108232,-0.8971631526947021,0.44092151522636414
1.0069561004638672,-1.033518078388413,2.649054505200184,127.63235724619994,-0.04638671875,0.01806640625,1.00341796875,-0.244140625,-0.8544921875,-0.30517578125,0.0,0.0,0.0,0.024721039459109306,0.0021079133730381727,-0.8971987366676331,0.4409295618534088
1.0300679206848145,-1.0748064651994342,2.723540492863523,127.6327124160368,-0.04833984375,0.0205078125,1.00537109375,-0.244140625,-0.18310546875,-0.1220703125,0.0,0.0,0.0,0.025462977588176727,0.0020714220590889454,-0.8971897959709167,0.4409056305885315
1.0432665348052979,-1.2439368900877594,2.832878801427322,127.62828645345462,-0.0498046875,0.02197265625,1.00390625,-0.06103515625,-0.18310546875,-0.1220703125,0.0,0.0,0.0,0.026969484984874725,0.0011693602427840233,-0.8971587419509888,0.44088277220726013
1.0682604312896729,-1.181840972300529,2.7206391565701487,127.6340101519791,-0.0478515625,0.02099609375,1.00390625,-0.30517578125,-0.67138671875,-0.1220703125,0.0,0.0,0.0,0.02585209719836712,0.0012219336349517107,-0.8971968293190002,0.44087207317352295
1.0862724781036377,-1.0798662479922385,2.7937098009714143,127.64279377525173,-0.048828125,0.01904296875,1.005859375,0.244140625,-0.732421875,-0.18310546875,0.0,0.0,0.0,0.02603190764784813,0.0022997483611106873,-0.8972179889678955,0.44081395864486694
1.1072027683258057,-1.1655084958911475,2.724740258279918,127.64189219028128,-0.0478515625,0.0205078125,1.00341796875,0.244140625,-0.732421875,-0.3662109375,0.0,0.0,0.0,0.02582145668566227,0.0013638271484524012,-0.8972263336181641,0.4408133327960968
1.126936435699463,-1.1776100969965293,2.834495635269911,127.64351777530375,-0.048828125,0.0205078125,1.0009765625,-0.42724609375,-0.91552734375,-0.1220703125,0.0,0.0,0.0,0.02672717534005642,0.001691320794634521,-0.8972162008285522,0.44077879190444946
1.146867275238037,-1.16706300425756,2.7976465512542807,127.64753392653571,-0.048828125,0.02001953125,1.00390625,-0.3662109375,-0.48828125,-0.06103515625,0.0,0.0,0.0,0.02639821358025074,0.0016310893697664142,-0.8972371816635132,0.44075629115104675
1.162889003753662,-1.0860717950183125,2.774299043680473,127.65480124781261,-0.048828125,0.01953125,1.00537109375,0.1220703125,-0.42724609375,-0.06103515625,0.0,0.0,0.0,0.025904061272740364,0.0021737071219831705,-0.8972673416137695,0.4407218396663666
1.1868500709533691,-1.108775770706258,2.803786464431299,127.6573557385622,-0.048828125,0.01953125,1.001953125,0.30517578125,-0.8544921875,-0.18310546875,0.0,0.0,0.0,0.026222264394164085,0.002108862856402993,-0.8972730040550232,0.44069167971611023
1.2100706100463867,-1.1979081385493378,2.8072199151497,127.65473294592091,-0.04931640625,0.02099609375,1.0048828125,-0.3662109375,-0.9765625,-0.18310546875,0.0,0.0,0.0,0.026591883972287178,0.0014247638173401356,-0.8972638249397278,0.4406910240650177
1.2266507148742676,-1.1662569352137928,2.7323817458572814,127.65846222920774,-0.04833984375,0.0205078125,1.00439453125,-0.18310546875,-0.54931640625,-0.18310546875,0.0,0.0,0.0,0.025884350761771202,0.0013836486032232642,-0.897288978099823,0.44068214297294617
1.248905897140503,-1.169931897152377,2.7130166654564145,127.6604976255804,-0.04736328125,0.02001953125,1.00439453125,-0.06103515625,-0.1220703125,0.06103515625,0.0,0.0,0.0,0.025746909901499748,0.0012798667885363102,-0.8972996473312378,0.4406685531139374
1.2618505954742432,-1.0508754033384138,2.73229551471901,127.67016917344515,-0.0478515625,0.01904296875,1.001953125,0.0,-0.79345703125,-0.18310546875,0.0,0.0,0.0,0.02544017694890499,0.0022841941099613905,-0.8973321318626404,0.4406163990497589
1.2866122722625732,-1.0296727886074015,2.7753583633320598,127.67486834359411,-0.048828125,0.01806640625,1.0048828125,-0.1220703125,-1.15966796875,-0.18310546875,0.0,0.0,0.0,0.02569589763879776,0.002614896511659026,-0.8973431587219238,0.4405772089958191
1.307065486907959,-1.1172715655384018,2.798277276535449,127.67374819257023,-0.048828125,0.01904296875,1.005859375,0.18310546875,-0.6103515625,-0.244140625,0.0,0.0,0.0,0.026212098076939583,0.002017381601035595,-0.8973370790481567,0.44056227803230286
1.3270187377929688,-1.2184143941501258,2.811846087651914,127.67307883403157,-0.04931640625,0.021484375,1.0029296875,-0.1220703125,-0.30517578125,-0.244140625,0.0,0.0,0.0,0.02670716494321823,0.0012777326628565788,-0.8973338603973389,0.4405418038368225
1.3473498821258545,-1.1837360296300903,2.7926013893351684,127.67822879666576,-0.048828125,0.02099609375,1.0029296875,-0.48828125,-0.42724609375,0.0,0.0,0.0,0.0,0.026423245668411255,0.001474040444009006,-0.8973561525344849,0.4405129849910736
1.3647117614746094,-1.0787070368240406,2.754796505722559,127.68611083496795,-0.04833984375,0.01904296875,1.005859375,0.1220703125,-0.732421875,-0.06103515625,0.0,0.0,0.0,0.0257236510515213,0.0021492685191333294,-0.8973905444145203,0.440481573343277
1.3869953155517578,-1.0984919604154517,2.766729699976218,127.68964887295802,-0.04833984375,0.01953125,1.0048828125,0.3662109375,-0.79345703125,-0.30517578125,0.0,0.0,0.0,0.0258931964635849,0.002039440907537937,-0.8974026441574097,0.4404473602771759
1.4066927433013916,-1.1931262590783884,2.7218976189247237,127.68809158982725,-0.0478515625,0.02099609375,1.00244140625,-0.18310546875,-0.8544921875,-0.30517578125,0.0,0.0,0.0,0.025905901566147804,0.001126194023527205,-0.897404670715332,0.44044575095176697
1.4265716075897217,-1.1794939485469833,2.6891033193985536,127.69060509944183,-0.04736328125,0.0205078125,1.00341796875,-0.54931640625,-0.54931640625,-0.06103515625,0.0,0.0,0.0,0.02559676207602024,0.0011062204139307141,-0.8974189758300781,0.44043493270874023
1.4469192028045654,-1.0626483015899886,2.8086455036955282,127.70009906238813,-0.048828125,0.0185546875,1.0029296875,0.0,-0.30517578125,0.0,0.0,0.0,0.0,0.02608383446931839,0.0024790228344500065,-0.8974356651306152,0.44036656618118286
1.466787338256836,-1.108419853817477,2.7800530511693857,127.70244864746262,-0.048828125,0.01953125,1.005859375,0.3662109375,-0.54931640625,-0.1220703125,0.0,0.0,0.0,0.026035895571112633,0.002010040683671832,-0.8974500298500061,0.4403425455093384
1.4866468906402588,-1.1169328308442517,2.6731857769812506,127.70511242123892,-0.046875,0.02001953125,1.0068359375,-0.18310546875,-1.220703125,-0.244140625,0.0,0.0,0.0,0.025231869891285896,0.0015317290090024471,-0.897476315498352,0.44033774733543396
1.5066182613372803,-1.1571529333804005,2.7126382302877134,127.7050031382122,-0.0478515625,0.0205078125,1.0029296875,-0.244140625,-0.8544921875,-0.18310546875,0.0,0.0,0.0,0.02569533698260784,0.0013684999430552125,-0.8974706530570984,0.440323144197464
1.5269269943237305,-1.1444886954421392,2.786448242666633,127.70918321398426,-0.048828125,0.02001953125,1.0029296875,0.1220703125,-0.48828125,-0.244140625,0.0,0.0,0.0,0.02622467279434204,0.0017506185686215758,-0.8974754810333252,0.440280556678772
1.546698808670044,-1.1818372370408265,2.7417824340327464,127.71043996879153,-0.0478515625,0.02099609375,1.00146484375,-0.30517578125,-0.30517578125,-0.244140625,0.0,0.0,0.0,0.026018446311354637,0.0012860374990850687,-0.8974875211715698,0.44027000665664673
1.5670430660247803,-1.1401497110501828,2.816495312042577,127.71591778050589,-0.04931640625,0.02001953125,1.00439453125,-0.30517578125,-0.6103515625,-0.06103515625,0.0,0.0,0.0,0.02644338272511959,0.00189860793761909,-0.8974967002868652,0.4402236342430115
1.5866973400115967,-1.1190855143715692,2.757041503525378,127.72109506389675,-0.048828125,0.01953125,1.00537109375,0.244140625,-0.79345703125,-0.06103515625,0.0,0.0,0.0,0.02589699998497963,0.0018337854417040944,-0.8975253105163574,0.44019803404808044
1.6066420078277588,-1.076902906387805,2.7913399387728317,127.72427793204999,-0.04931640625,0.01904296875,1.00439453125,0.1220703125,-0.732421875,-0.1220703125,0.0,0.0,0.0,0.02600359544157982,0.002295335289090872,-0.8975315093994141,0.44017693400382996
1.626570463180542,-1.1499264865168213,2.7106474435880665,127.72299385648603,-0.0478515625,0.02001953125,1.00341796875,-0.48828125,-0.732421875,-0.18310546875,0.0,0.0,0.0,0.02565220184624195,0.0014134112279862165,-0.8975399732589722,0.44018417596817017
1.642000675201416,-1.1855305551128053,2.771695247502817,127.72434623394169,-0.048828125,0.021484375,1.001953125,-0.3662109375,-0.48828125,-0.1220703125,0.0,0.0,0.0,0.026267025619745255,0.0013689632760360837,-0.89753657579422,0.44015491008758545
1.6669583320617676,-1.2008794842817048,2.7847897873587892,127.72673680015119,-0.048828125,0.02099609375,1.005859375,0.42724609375,-0.42724609375,-0.1220703125,0.0,0.0,0.0,0.026428544893860817,0.0012985420180484653,-0.8975439667701721,0.44013044238090515
1.6902244091033936,-1.122531558251252,2.807998129828258,127.73297959305258,-0.04931640625,0.01953125,1.00390625,0.06103515625,-0.8544921875,-0.18310546875,0.0,0.0,0.0,0.026309462264180183,0.0020000028889626265,-0.8975632190704346,0.44009554386138916
1.7074015140533447,-1.1046713606236094,2.8639407942252477,127.73627174423252,-0.0498046875,0.01904296875,1.00390625,-0.244140625,-1.03759765625,-0.244140625,0.0,0.0,0.0,0.026679014787077904,0.002354188822209835,-0.8975667953491211,0.4400642514228821
1.7267093658447266,-1.2059610383024886,2.7373265893729593,127.73450955542667,-0.0478515625,0.021484375,1.00341796875,-0.244140625,-0.48828125,-0.1220703125,0.0,0.0,0.0,0.02607646957039833,0.0010744823375716805,-0.8975808620452881,0.44007667899131775
1.7466919422149658,-1.2131989043885865,2.705347857122371,127.73758314055317,-0.04736328125,0.02099609375,1.0029296875,0.0,-0.18310546875,0.0,0.0,0.0,0.0,0.025853866711258888,0.0008941564592532814,-0.8975973725318909,0.4400564432144165
1.7668178081512451,-1.083954222932197,2.8359564419786474,127.74864804700859,-0.0498046875,0.01904296875,1.0048828125,-0.18310546875,-0.67138671875,-0.1220703125,0.0,0.0,0.0,0.026380568742752075,0.002406039508059621,-0.897618293762207,0.43997693061828613
1.7871613502502441,-1.1084322335353476,2.8006304901479298,127.75072442451628,-0.04931640625,0.01953125,1.00634765625,0.0,-1.15966796875,-0.244140625,0.0,0.0,0.0,0.02619794011116028,0.00207805959507823,-0.8976322412490845,0.4399610757827759
1.8025825023651123,-1.1626997940383914,2.831218425128774,127.75185823591849,-0.04931640625,0.02099609375,1.00341796875,0.0,-0.67138671875,-0.30517578125,0.0,0.0,0.0,0.026645855978131294,0.001770251546986401,-0.8976328372955322,0.43993428349494934
1.8268332481384277,-1.2098856223108956,2.8154157152668917,127.75240465105209,-0.0498046875,0.0205078125,1.0009765625,-0.1220703125,-0.18310546875,-0.18310546875,0.0,0.0,0.0,0.026703253388404846,0.001339772716164589,-0.8976379632949829,0.43992191553115845
1.8492884635925293,-1.2099744147701057,2.7859816553689565,127.7543171040197,-0.048828125,0.02197265625,1.001953125,-0.42724609375,-0.48828125,0.06103515625,0.0,0.0,0.0,0.02647310495376587,0.0012255163164809346,-0.8976497650146484,0.4399121105670929
1.8687670230865479,-1.2900166546015446,2.8444589602782555,127.75413951910127,-0.0498046875,0.0224609375,1.0048828125,0.0,-0.732421875,-0.18310546875,0.0,0.0,0.0,0.027238329872488976,0.0008232833351939917,-0.8976410031318665,0.4398842453956604
1.8867113590240479,-1.1875490894559555,2.748830975812788,127.7617893309717,-0.0478515625,0.01953125,1.00390625,0.244140625,-0.79345703125,-0.1220703125,0.0,0.0,0.0,0.026096150279045105,0.0012567144585773349,-0.8976837396621704,0.4398651719093323
1.906628131866455,-1.2457277870324779,2.7565046933452972,127.76132487810813,-0.048828125,0.021484375,1.00390625,-0.06103515625,-0.732421875,-0.30517578125,0.0,0.0,0.0,0.02637956477701664,0.0008305496885441244,-0.8976813554763794,0.4398541748523712
1.926854133605957,-1.158550240674197,2.792276955349593,127.76737642571277,-0.04931640625,0.02099609375,1.0048828125,-0.6103515625,-0.48828125,-0.06103515625,0.0,0.0,0.0,0.026325175538659096,0.001649538753554225,-0.8976983428001404,0.4398205876350403
1.947328805923462,-1.178052565188699,2.812063799931708,127.76979431267895,-0.0498046875,0.02099609375,1.0048828125,0.06103515625,-0.30517578125,0.0,0.0,0.0,0.0,0.026555031538009644,0.0015722200041636825,-0.8977048993110657,0.4397936761379242
1.9666693210601807,-1.2623322970698962,2.8654161150859703,127.76961672776052,-0.05029296875,0.02197265625,1.0048828125,0.3662109375,-0.6103515625,-0.06103515625,0.0,0.0,0.0,0.02729633077979088,0.0011169997742399573,-0.8976969718933105,0.4397657513618469
1.9872095584869385,-1.1669818957611662,2.8296259238351036,127.77785393589956,-0.0498046875,0.02001953125,1.00390625,-0.06103515625,-0.8544921875,-0.30517578125,0.0,0.0,0.0,0.026650214567780495,0.001724544446915388,-0.8977329134941101,0.4397299587726593
2.007122755050659,-1.1444508092365866,2.829988564191349,127.78150125691636,-0.04931640625,0.01953125,1.0048828125,0.06103515625,-0.9765625,-0.18310546875,0.0,0.0,0.0,0.026566652581095695,0.001901606796309352,-0.8977465033531189,0.4397066831588745
2.0223910808563232,-1.1448680911061921,2.763344700912242,127.78411038917929,-0.048828125,0.01953125,1.001953125,-0.06103515625,-0.244140625,-0.18310546875,0.0,0.0,0.0,0.026046304032206535,0.0016417618608102202,-0.8977667093276978,0.4396975636482239
2.0469560623168945,-1.1470615423251183,2.761132573394804,127.78667854030722,-0.04833984375,0.0205078125,1.00439453125,-0.3662109375,-0.3662109375,-0.06103515625,0.0,0.0,0.0,0.02603743225336075,0.0016154964687302709,-0.8977769017219543,0.4396772086620331
2.066873073577881,-1.0640732498055825,2.729439001542064,127.79491574844626,-0.04833984375,0.0185546875,1.005859375,-0.244140625,-0.79345703125,-0.1220703125,0.0,0.0,0.0,0.025470906868577003,0.0021421245764940977,-0.8978119492530823,0.43963679671287537
2.0868194103240967,-1.109382697047037,2.805340332467477,127.7962271447669,-0.0498046875,0.01953125,1.00439453125,0.244140625,-0.79345703125,-0.18310546875,0.0,0.0,0.0,0.02623930014669895,0.002078294986858964,-0.8978061676025391,0.4396035373210907
2.1069774627685547,-1.2272761377113943,2.83778821333668,127.79423272952926,-0.05029296875,0.021484375,1.00439453125,0.0,-0.67138671875,-0.1220703125,0.0,0.0,0.0,0.02694569155573845,0.0012796932132914662,-0.8977953195571899,0.43958622217178345
2.1269121170043945,-1.2437658151933917,2.740098365515515,127.79475182390617,-0.048828125,0.021484375,1.0029296875,-0.48828125,-0.6103515625,-0.1220703125,0.0,0.0,0.0,0.026243768632411957,0.0007752231322228909,-0.897812008857727,0.43959569931030273
2.146918296813965,-1.2145738001241688,2.8075469104562143,127.79931439027175,-0.04931640625,0.021484375,1.00390625,-0.30517578125,-0.48828125,-0.06103515625,0.0,0.0,0.0,0.026660149917006493,0.0012618923792615533,-0.8978192210197449,0.4395546019077301
2.1689960956573486,-1.111644663601075,2.779564052313495,127.80828925884114,-0.048828125,0.0185546875,1.0048828125,0.244140625,-0.6103515625,-0.1220703125,0.0,0.0,0.0,0.026046279817819595,0.0019588482100516558,-0.8978564739227295,0.43951281905174255
2.186612129211426,-1.0419997859553938,2.80391495736506,127.81342556109699,-0.048828125,0.0185546875,1.00390625,0.1220703125,-1.0986328125,-0.1220703125,0.0,0.0,0.0,0.02597002126276493,0.0025968567933887243,-0.8978710174560547,0.4394844174385071
2.2069740295410156,-1.2346188045125694,2.7344098851539522,127.80652707003527,-0.0478515625,0.02197265625,1.00341796875,-0.244140625,-1.03759765625,-0.244140625,0.0,0.0,0.0,0.026164203882217407,0.0008223557961173356,-0.8978579640388489,0.4395065903663635
2.2269399166107178,-1.2550444852254927,2.8105299955762173,127.80874005132637,-0.04931640625,0.02197265625,1.0048828125,-0.18310546875,-0.30517578125,-0.18310546875,0.0,0.0,0.0,0.02683882974088192,0.0009540567407384515,-0.8978553414344788,0.43947091698646545
2.2468488216400146,-1.2443688995527626,2.8394846615717824,127.81338457996198,-0.0498046875,0.02197265625,1.0048828125,0.1220703125,-0.30517578125,-0.18310546875,0.0,0.0,0.0,0.02702474221587181,0.0011477697407826781,-0.8978686928749084,0.43943172693252563
2.266845464706421,-1.113896811758181,2.7437418445508936,127.82436752414735,-0.04833984375,0.0185546875,1.005859375,-0.18310546875,-0.91552734375,-0.18310546875,0.0,0.0,0.0,0.025774557143449783,0.001800060854293406,-0.8979235887527466,0.43939244747161865
2.2871005535125732,-1.0941191452427628,2.8451466749503114,127.82828805273094,-0.0498046875,0.0185546875,1.0048828125,-0.06103515625,-1.0986328125,-0.18310546875,0.0,0.0,0.0,0.02649320475757122,0.002343325177207589,-0.897922694683075,0.43934911489486694
2.309542179107666,-1.208055665221861,2.7593300437841553,127.82577454311637,-0.04833984375,0.021484375,1.001953125,0.0,-0.48828125,-0.18310546875,0.0,0.0,0.0,0.026257721707224846,0.0011217502178624272,-0.8979278802871704,0.43935731053352356
2.3277838230133057,-1.1852436871676648,2.746406472100845,127.82958578867324,-0.048828125,0.0205078125,1.00048828125,-0.30517578125,-0.18310546875,-0.06103515625,0.0,0.0,0.0,0.026069054380059242,0.0012500352459028363,-0.8979442119598389,0.4393349587917328
2.3468031883239746,-1.0898504904549162,2.8191616471398206,127.83824646854082,-0.0498046875,0.01953125,1.00341796875,-0.42724609375,-0.54931640625,-0.06103515625,0.0,0.0,0.0,0.026273466646671295,0.002274764934554696,-0.8979648351669312,0.43927645683288574
2.3671164512634277,-1.0700958758279469,2.7700703028105886,127.84286367641974,-0.04833984375,0.01806640625,1.00341796875,0.1220703125,-0.732421875,-0.18310546875,0.0,0.0,0.0,0.025813225656747818,0.0022401593159884214,-0.8979897499084473,0.43925291299819946
2.386869192123413,-1.1171366693022942,2.753110943101447,127.84238556317784,-0.0478515625,0.01904296875,1.0029296875,0.244140625,-0.732421875,-0.18310546875,0.0,0.0,0.0,0.025860659778118134,0.0018065663753077388,-0.8979913592338562,0.4392490088939667
2.408494234085083,-1.0449010155270624,2.7368907379265477,127.84813658245899,-0.04833984375,0.0185546875,1.00390625,-0.3662109375,-0.732421875,-0.18310546875,0.0,0.0,0.0,0.02545679733157158,0.002309127477928996,-0.8980145454406738,0.4392228126525879
2.427194356918335,-1.1339824771164844,2.73073993913554,127.84544548792601,-0.04833984375,0.0205078125,1.00390625,-0.54931640625,-0.54931640625,-0.06103515625,0.0,0.0,0.0,0.02575000561773777,0.001588031300343573,-0.8980066776275635,0.4392249286174774
2.447335958480835,-1.2016873675944704,2.7190579677772906,127.84607386532966,-0.0478515625,0.02099609375,1.00439453125,-0.06103515625,-0.18310546875,-0.1220703125,0.0,0.0,0.0,0.025917991995811462,0.001012495020404458,-0.8980115652084351,0.4392067790031433
2.467172145843506,-1.118361941206371,2.7243470955158196,127.85200246952922,-0.0478515625,0.01904296875,1.00634765625,0.18310546875,-0.3662109375,0.1220703125,0.0,0.0,0.0,0.02564014308154583,0.0016844500787556171,-0.8980324864387512,0.4391781687736511
2.482887029647827,-1.0256906815995783,2.676560744204883,127.86000745123647,-0.046875,0.017578125,1.00390625,-0.3662109375,-1.15966796875,-0.1220703125,0.0,0.0,0.0,0.024910707026720047,0.002225644188001752,-0.8980687260627747,0.43914365768432617
2.507045269012451,-1.2102918051230998,2.665767978099205,127.85443401687374,-0.046875,0.02099609375,1.001953125,0.1220703125,-0.91552734375,-0.244140625,0.0,0.0,0.0,0.025533514097332954,0.0007387428195215762,-0.8980513215065002,0.4391484558582306
2.5269176959991455,-1.2280216955479835,2.858866604002163,127.85601862076119,-0.05078125,0.021484375,1.00341796875,-0.06103515625,-0.3662109375,-0.06103515625,0.0,0.0,0.0,0.0271143801510334,0.001340174931101501,-0.8980289697647095,0.4390980005264282
2.5419576168060303,-1.1239422057582713,2.842337546210732,127.86457001760205,-0.0498046875,0.02001953125,1.00439453125,-0.30517578125,-0.48828125,-0.06103515625,0.0,0.0,0.0,0.026586204767227173,0.002090435940772295,-0.8980627059936523,0.4390583038330078
2.567183256149292,-1.1387061932577829,2.7087917665679386,127.86540330068078,-0.04833984375,0.02001953125,1.00732421875,-0.1220703125,-0.91552734375,-0.06103515625,0.0,0.0,0.0,0.025596408173441887,0.0014623499009758234,-0.898086428642273,0.4390712082386017
2.5868184566497803,-1.1426521216073462,2.6871594902494502,127.86940579153442,-0.046875,0.01953125,1.00390625,0.3662109375,-0.79345703125,-0.30517578125,0.0,0.0,0.0,0.025442073121666908,0.0013475685846060514,-0.8981050252914429,0.4390426278114319
2.6067142486572266,-1.2423656264135392,2.7566146167022523,127.86754798008018,-0.04833984375,0.021484375,1.00390625,0.0,-0.6103515625,-0.1220703125,0.0,0.0,0.0,0.02636830136179924,0.0008328671101480722,-0.8980886936187744,0.43902260065078735
2.6269540786743164,-1.1853916034518779,2.815893188178558,127.87275258422773,-0.04931640625,0.0205078125,1.00390625,-0.6103515625,-0.54931640625,-0.1220703125,0.0,0.0,0.0,0.026614556089043617,0.0015055278781801462,-0.8980991244316101,0.43898454308509827
2.646759033203125,-1.1142039568274198,2.697974241026519,127.88119469804185,-0.04736328125,0.01953125,1.00390625,-0.18310546875,-0.48828125,-0.244140625,0.0,0.0,0.0,0.025417985394597054,0.0016093878075480461,-0.898148238658905,0.438954621553421
2.666693925857544,-1.1678064276600337,2.6497537458164637,127.88265635852424,-0.04638671875,0.02001953125,1.00390625,0.30517578125,-0.6103515625,-0.1220703125,0.0,0.0,0.0,0.025245467200875282,0.0010040485067293048,-0.8981614112854004,0.4389394223690033
2.6869051456451416,-1.2634752865388157,2.729315844693592,127.8832574151712,-0.04833984375,0.021484375,1.00341796875,0.1220703125,-0.91552734375,-0.3662109375,0.0,0.0,0.0,0.026235360652208328,0.0005591296358034015,-0.8981529474258423,0.438899427652359
2.706810474395752,-1.2096614000070487,2.831744563138277,127.8885439815888,-0.0498046875,0.021484375,1.00390625,-0.42724609375,-0.8544921875,-0.30517578125,0.0,0.0,0.0,0.026831919327378273,0.0013724085874855518,-0.89815753698349,0.4388523995876312
2.7272732257843018,-1.1999062890466838,2.741429398630021,127.89070232136652,-0.04833984375,0.02099609375,1.00537109375,-0.30517578125,-0.30517578125,-0.1220703125,0.0,0.0,0.0,0.026086872443556786,0.001102123991586268,-0.8981792330741882,0.4388534724712372
2.746798038482666,-1.064676974495188,2.8822802790335547,127.89887122761385,-0.05078125,0.0185546875,1.00439453125,0.06103515625,-0.244140625,0.06103515625,0.0,0.0,0.0,0.02667289413511753,0.002700110198929906,-0.8981865048408508,0.4387965500354767
2.7671072483062744,-1.1168669835517844,2.852235984421961,127.90033288809623,-0.04931640625,0.01953125,1.0048828125,0.0,-0.9765625,-0.1220703125,0.0,0.0,0.0,0.026637330651283264,0.002175534376874566,-0.8981980681419373,0.43877795338630676
2.784731864929199,-1.2166589288117269,2.8395544575673632,127.89850239739867,-0.0498046875,0.02197265625,1.0048828125,0.0,-1.0986328125,-0.244140625,0.0,0.0,0.0,0.026920031756162643,0.0013451635604724288,-0.8981945514678955,0.4387713074684143
2.8025119304656982,-1.2216633230392304,2.6418909174213097,127.90116617117498,-0.04638671875,0.021484375,1.00146484375,-0.06103515625,-0.3662109375,-0.18310546875,0.0,0.0,0.0,0.02539023570716381,0.000547675124835223,-0.8982337713241577,0.4387838840484619
2.8266654014587402,-1.0699447578925605,2.746310422565642,127.91098798320145,-0.048828125,0.0185546875,1.00341796875,-0.18310546875,-0.30517578125,-0.244140625,0.0,0.0,0.0,0.02562776580452919,0.00213494966737926,-0.89825439453125,0.43872305750846863
2.8505890369415283,-1.1277940055633355,2.8017348463593565,127.91188956817189,-0.04931640625,0.02001953125,1.00439453125,-0.30517578125,-0.79345703125,-0.06103515625,0.0,0.0,0.0,0.026283612474799156,0.0018936707638204098,-0.8982503414154053,0.43869349360466003
2.8667266368865967,-1.1169901404002562,2.7504326551731557,127.9157827759988,-0.04833984375,0.01953125,1.00439453125,0.1220703125,-1.15966796875,-0.1220703125,0.0,0.0,0.0,0.025840260088443756,0.0017808877164497972,-0.8982728719711304,0.4386742115020752
2.886742353439331,-1.1261964883494928,2.781478853158626,127.91800941766823,-0.048828125,0.01953125,1.00537109375,0.1220703125,-0.732421875,-0.1220703125,0.0,0.0,0.0,0.026118850335478783,0.0018271751469001174,-0.8982768654823303,0.43864935636520386
2.907492160797119,-1.1626885882592843,2.6700543486902113,127.91866511582855,-0.04736328125,0.0205078125,1.00439453125,-0.1220703125,-0.91552734375,-0.06103515625,0.0,0.0,0.0,0.025385292246937752,0.0011140241986140609,-0.8982963562011719,0.43865498900413513
2.9269473552703857,-1.2115947704289856,2.815533322586663,127.91966232344737,-0.048828125,0.02099609375,1.00439453125,-0.42724609375,-0.67138671875,-0.244140625,0.0,0.0,0.0,0.026712648570537567,0.001287844032049179,-0.8982791304588318,0.43861067295074463
2.9427177906036377,-1.0173979781735367,2.8627452976770837,127.93269432438375,-0.05029296875,0.017578125,1.0029296875,0.1220703125,0.0,-0.18310546875,0.0,0.0,0.0,0.02633964829146862,0.0029880404472351074,-0.8983179926872253,0.4385455846786499
2.9678680896759033,-1.0861654966759886,2.9223651651684786,127.93255772060036,-0.05126953125,0.01904296875,1.00244140625,0.244140625,-0.67138671875,0.0,0.0,0.0,0.0,0.02707008458673954,0.0026773628778755665,-0.8983094096183777,0.43852055072784424
2.9867007732391357,-1.1739814522782541,2.8051070388186385,127.93172443752161,-0.04931640625,0.0205078125,1.005859375,-0.1220703125,-1.0986328125,-0.30517578125,0.0,0.0,0.0,0.02648712694644928,0.0015399582916870713,-0.8983264565467834,0.43852680921554565
3.0032899379730225,-1.1683891281736005,2.7814404333445446,127.93602745669872,-0.04833984375,0.02001953125,1.00439453125,-0.18310546875,-0.732421875,-0.18310546875,0.0,0.0,0.0,0.026280293241143227,0.0014921504771336913,-0.8983464241027832,0.43849849700927734
3.028071403503418,-1.1723116844695975,2.7871619974348993,127.93852730593494,-0.048828125,0.0205078125,1.00244140625,-0.06103515625,-0.18310546875,-0.1220703125,0.0,0.0,0.0,0.0263401810079813,0.0014827413251623511,-0.8983551859855652,0.4384769797325134
3.047595500946045,-1.133946511901636,2.8724682854040084,127.94190141938493,-0.05078125,0.02001953125,1.005859375,-0.1220703125,-0.6103515625,-0.06103515625,0.0,0.0,0.0,0.026862043887376785,0.002109463093802333,-0.8983542919158936,0.4384445548057556
3.066585063934326,-1.2042793176627844,2.773341536536202,127.94283032511206,-0.048828125,0.02099609375,1.00439453125,-0.06103515625,-0.91552734375,-0.18310546875,0.0,0.0,0.0,0.02635422721505165,0.0011781984940171242,-0.898374080657959,0.43843820691108704
3.0868592262268066,-1.2016304849252888,2.740411913887101,127.94679183483066,-0.0478515625,0.02001953125,1.00341796875,0.18310546875,-0.8544921875,-0.18310546875,0.0,0.0,0.0,0.026086026802659035,0.0010719421552494168,-0.8983941078186035,0.4384136497974396
3.107067346572876,-1.1157687104775875,2.7030403203999644,127.95381326929743,-0.04736328125,0.01953125,1.001953125,-0.06103515625,-0.42724609375,-0.30517578125,0.0,0.0,0.0,0.025464696809649467,0.0016004130011424422,-0.8984254598617554,0.4383842647075653
3.121976137161255,-1.2326124364438782,2.8464698106585895,127.94915508028349,-0.05029296875,0.02197265625,1.00341796875,-0.54931640625,-0.48828125,0.0,0.0,0.0,0.0,0.02703585848212242,0.001234671100974083,-0.8983874917030334,0.43836912512779236
3.146624803543091,-1.0859283610457422,2.7782249083493493,127.96123085473606,-0.048828125,0.01904296875,1.00439453125,-0.06103515625,-0.42724609375,-0.06103515625,0.0,0.0,0.0,0.025940004736185074,0.0021205844823271036,-0.8984420299530029,0.4383202791213989
3.162790298461914,-1.0679092547981908,2.7099403055655586,127.96381266624233,-0.0478515625,0.01806640625,1.005859375,0.30517578125,-0.6103515625,0.06103515625,0.0,0.0,0.0,0.02533586323261261,0.001999852480366826,-0.8984619379043579,0.4383153021335602
3.1867706775665283,-1.0955674655119227,2.748964591388426,127.96597100602006,-0.04833984375,0.01904296875,1.0048828125,0.0,-1.03759765625,-0.244140625,0.0,0.0,0.0,0.025747593492269516,0.0019319131970405579,-0.8984648585319519,0.4382857084274292
3.2091429233551025,-1.1185847761280425,2.753435803973846,127.96722776082734,-0.048828125,0.02001953125,1.00341796875,-0.54931640625,-0.732421875,-0.3662109375,0.0,0.0,0.0,0.02587069757282734,0.0017682815669104457,-0.8984692692756653,0.4382700026035309
3.226660966873169,-1.1664283302732779,2.841449408175219,127.96875772320142,-0.0498046875,0.02001953125,1.00390625,-0.1220703125,-0.42724609375,-0.1220703125,0.0,0.0,0.0,0.026743613183498383,0.001729750307276845,-0.8984623551368713,0.4382319450378418
3.249105930328369,-1.027843898735425,2.8274929838233556,127.97998655419693,-0.0498046875,0.0185546875,1.00634765625,0.18310546875,-0.3662109375,0.0,0.0,0.0,0.0,0.02610447257757187,0.0027603446505963802,-0.8985047936439514,0.43817827105522156
3.2623114585876465,-1.0871316482784281,2.7829155407618558,127.97989093154854,-0.04931640625,0.01904296875,1.0068359375,-0.1220703125,-1.0986328125,-0.1220703125,0.0,0.0,0.0,0.02598172426223755,0.00212487718090415,-0.8985126614570618,0.438172847032547
3.286898374557495,-1.109302228880878,2.7183175325825792,127.98176240338113,-0.0478515625,0.01953125,1.00244140625,-0.1220703125,-0.9765625,-0.3662109375,0.0,0.0,0.0,0.025560123845934868,0.0017033745534718037,-0.8985300660133362,0.4381639361381531
3.3066697120666504,-1.1608648210291852,2.807378930491314,127.98221319586635,-0.048828125,0.02001953125,1.00390625,0.0,-0.30517578125,-0.18310546875,0.0,0.0,0.0,0.026455463841557503,0.0016398333245888352,-0.898518979549408,0.4381335973739624
3.3273935317993164,-1.073931560655438,2.7745122736486243,127.98767734720235,-0.048828125,0.01904296875,1.00439453125,-0.3662109375,-0.42724609375,0.0,0.0,0.0,0.0,0.025865523144602776,0.0021944574546068907,-0.8985434770584106,0.4381161332130432
3.347362995147705,-1.065638110177456,2.7824630407293425,127.99176180032602,-0.04931640625,0.01904296875,1.00439453125,-0.1220703125,-0.79345703125,-0.1220703125,0.0,0.0,0.0,0.025896228849887848,0.002288991119712591,-0.898557722568512,0.43808457255363464
3.3639559745788574,-1.0584882894986276,2.7746230507792253,127.9947261024258,-0.048828125,0.01904296875,1.00537109375,0.30517578125,-0.42724609375,-0.06103515625,0.0,0.0,0.0,0.025807486847043037,0.002314392477273941,-0.89857017993927,0.43806445598602295
3.383685350418091,-1.0535680986969855,2.813627059477995,127.99758112149887,-0.0498046875,0.01806640625,1.00537109375,0.244140625,-0.732421875,-0.1220703125,0.0,0.0,0.0,0.026094526052474976,0.002501560840755701,-0.8985748887062073,0.4380365312099457
3.4074337482452393,-1.0855120396714888,2.815882089121157,127.99908376311627,-0.04931640625,0.01904296875,1.00390625,-0.30517578125,-0.79345703125,-0.244140625,0.0,0.0,0.0,0.0262343417853117,0.0022593578323721886,-0.8985809087753296,0.4380171597003937
3.427349090576172,-1.178178603523227,2.7768210910315,127.99643364971831,-0.048828125,0.0205078125,1.00341796875,-0.3662109375,-0.48828125,-0.06103515625,0.0,0.0,0.0,0.026282282546162605,0.0013838576851412654,-0.8985782861709595,0.4380234479904175
3.4480574131011963,-1.1502310702651215,2.828251988594873,128.00053176322032,-0.04931640625,0.02001953125,1.00341796875,0.06103515625,-0.1220703125,-0.1220703125,0.0,0.0,0.0,0.026578720659017563,0.0017988492036238313,-0.8985856771469116,0.4379887282848358
3.4618825912475586,-1.0779900804046008,2.8131115936390705,128.00579100888123,-0.04931640625,0.01904296875,1.00537109375,0.06103515625,-0.67138671875,0.0,0.0,0.0,0.0,0.026184003800153732,0.0023062077816575766,-0.8986068367958069,0.4379667043685913
3.4870448112487793,-1.0690514972151697,2.762191252716156,128.0091924430879,-0.048828125,0.01904296875,1.00439453125,-0.244140625,-1.15966796875,-0.244140625,0.0,0.0,0.0,0.02575068362057209,0.002180739538744092,-0.8986275792121887,0.43795064091682434
3.506964921951294,-1.1585532288819589,2.786663180182077,128.0088919147644,-0.048828125,0.01953125,1.0048828125,-0.1220703125,-0.54931640625,-0.30517578125,0.0,0.0,0.0,0.0262845940887928,0.0015725510893389583,-0.8986241817474365,0.4379284977912903
3.527235269546509,-1.1803935058050152,2.7406503301778167,128.0105858016786,-0.04833984375,0.0205078125,1.005859375,-0.1220703125,-0.1220703125,-0.06103515625,0.0,0.0,0.0,0.026007333770394325,0.0012248725397512317,-0.8986377716064453,0.43791812658309937
3.547577381134033,-1.0795544071679453,2.72305384188516,128.01895961360103,-0.0478515625,0.01904296875,1.00390625,-0.18310546875,-0.48828125,-0.18310546875,0.0,0.0,0.0,0.02548413909971714,0.001946489792317152,-0.89867103099823,0.43787819147109985
3.5682761669158936,-1.0746163938414375,2.7039500162200456,128.02309870823805,-0.04736328125,0.0185546875,1.0048828125,-0.06103515625,-1.03759765625,-0.244140625,0.0,0.0,0.0,0.025315552949905396,0.0019112328300252557,-0.8986895680427551,0.43784987926483154
3.5868325233459473,-1.1343081917625293,2.6630403847428425,128.02313968937307,-0.046875,0.02001953125,1.0048828125,0.18310546875,-0.79345703125,-0.18310546875,0.0,0.0,0.0,0.025222865864634514,0.001286627259105444,-0.8986966013908386,0.43784308433532715
3.6096651554107666,-1.1145375688796928,2.7295922539115662,128.02641818017466,-0.0478515625,0.01953125,1.00341796875,-0.244140625,-0.54931640625,-0.244140625,0.0,0.0,0.0,0.025669191032648087,0.0016954749589785933,-0.8986991047859192,0.4378107786178589
3.629574775695801,-1.178050644197995,2.8069396639503177,128.02484723666555,-0.04931640625,0.0205078125,1.0029296875,-0.54931640625,-0.42724609375,0.0,0.0,0.0,0.0,0.026518283411860466,0.001493530347943306,-0.8986822962760925,0.4377954304218292
3.6475155353546143,-1.0505753019017563,2.747453838921384,128.03565259593253,-0.0478515625,0.01904296875,1.0048828125,0.0,-0.48828125,-0.244140625,0.0,0.0,0.0,0.025565048679709435,0.0022633515764027834,-0.8987305164337158,0.43774959444999695
3.6667428016662598,-1.0506275955375892,2.7393391473005857,128.03924527543595,-0.04833984375,0.01904296875,1.00439453125,0.30517578125,-0.732421875,-0.18310546875,0.0,0.0,0.0,0.025501688942313194,0.002231115009635687,-0.8987454771995544,0.4377228021621704
3.687171697616577,-1.0808730605645809,2.750795935859636,128.04022882267643,-0.0478515625,0.01904296875,1.00244140625,-0.30517578125,-0.91552734375,-0.30517578125,0.0,0.0,0.0,0.025707073509693146,0.00203748163767159,-0.8987480998039246,0.43770647048950195
3.707368850708008,-1.0566668701460555,2.8034754773806516,128.04460014374524,-0.04931640625,0.0185546875,1.00390625,-0.54931640625,-0.6103515625,-0.18310546875,0.0,0.0,0.0,0.026027783751487732,0.00242774304933846,-0.8987561464309692,0.4376688301563263
3.726912498474121,-1.1090276339319023,2.8291341502148626,128.0443405965568,-0.04931640625,0.0205078125,1.00390625,-0.06103515625,-0.1220703125,-0.1220703125,0.0,0.0,0.0,0.026428958401083946,0.0021152214612811804,-0.8987522125244141,0.4376544952392578
3.7470319271087646,-1.09974679423203,2.7630556985329857,128.04969546486606,-0.04833984375,0.01953125,1.005859375,0.244140625,-0.54931640625,-0.1220703125,0.0,0.0,0.0,0.025875458493828773,0.001934187370352447,-0.8987826704978943,0.43762585520744324
3.7692692279815674,-1.1285466070325063,2.6992147741345227,128.05111614421344,-0.0478515625,0.02001953125,1.00341796875,-0.06103515625,-1.0986328125,-0.18310546875,0.0,0.0,0.0,0.0254848450422287,0.0014639418805018067,-0.8987981677055359,0.43761903047561646
3.7868545055389404,-1.1245862712526624,2.8043896555123755,128.05459954069013,-0.048828125,0.01904296875,1.00341796875,-0.244140625,-0.91552734375,-0.244140625,0.0,0.0,0.0,0.026294521987438202,0.0018962426111102104,-0.8987955451011658,0.43757471442222595
3.8067781925201416,-1.1092278438519483,2.718975792063839,128.05819222019358,-0.0478515625,0.01904296875,1.0009765625,0.06103515625,-0.3662109375,-0.1220703125,0.0,0.0,0.0,0.025566132739186287,0.0016894274158403277,-0.8988219499588013,0.43756452202796936
3.826812744140625,-1.1532650616387823,2.8214758006079856,128.05891622024558,-0.0498046875,0.02099609375,1.0029296875,-0.48828125,-0.54931640625,-0.1220703125,0.0,0.0,0.0,0.026538081467151642,0.0017356113530695438,-0.8988097906112671,0.43753135204315186
3.847090721130371,-1.2297342587606583,2.7541117792582654,128.0603915411063,-0.04833984375,0.021484375,1.00390625,-0.3662109375,-0.6103515625,-0.1220703125,0.0,0.0,0.0,0.026301812380552292,0.0008780038915574551,-0.898826539516449,0.43751397728919983
3.8676891326904297,-1.2295638241965254,2.784566738993706,128.0633968243411,-0.048828125,0.021484375,1.00341796875,0.30517578125,-0.67138671875,-0.06103515625,0.0,0.0,0.0,0.026540007442235947,0.0009950468083843589,-0.8988334536552429,0.43748509883880615
3.8882598876953125,-1.109743202969167,2.797518912094166,128.07192090042528,-0.04931640625,0.02001953125,1.00439453125,0.18310546875,-0.732421875,-0.244140625,0.0,0.0,0.0,0.026184264570474625,0.001982444431632757,-0.8988624215126038,0.43744349479675293
3.9073054790496826,-1.0215728245820013,2.716828337900105,128.08008980667262,-0.04736328125,0.017578125,1.00439453125,-0.42724609375,-0.91552734375,-0.30517578125,0.0,0.0,0.0,0.02521502785384655,0.0023639402352273464,-0.8989043831825256,0.4374125301837921
3.9273436069488525,-1.0420599769974543,2.739922488144387,128.0825759955305,-0.04833984375,0.01904296875,1.00341796875,-0.18310546875,-0.3662109375,-0.18310546875,0.0,0.0,0.0,0.02547440305352211,0.0022909098770469427,-0.8989107012748718,0.4373847544193268
3.947295904159546,-1.0391192603946466,2.832325982991374,128.08487093909164,-0.0498046875,0.0185546875,1.00341796875,0.244140625,-0.3662109375,0.0,0.0,0.0,0.0,0.026187926530838013,0.002666460582986474,-0.8989050388336182,0.4373522102832794
3.9689528942108154,-1.0581181786229776,2.8786233530632477,128.08599109011553,-0.05029296875,0.0185546875,1.00341796875,0.06103515625,-0.91552734375,0.06103515625,0.0,0.0,0.0,0.026623560115695,0.002694027265533805,-0.8989022970199585,0.4373312294483185
3.9866812229156494,-1.1953611183191577,2.7691157838740796,128.08151048602,-0.04833984375,0.02099609375,1.00537109375,-0.244140625,-1.03759765625,-0.244140625,0.0,0.0,0.0,0.026288453489542007,0.0012001179857179523,-0.8989046216011047,0.43735355138778687
4.014434576034546,-1.1407436173428565,2.8042775977213052,128.08819041102825,-0.04931640625,0.0205078125,1.00390625,0.30517578125,-0.79345703125,-0.244140625,0.0,0.0,0.0,0.026355858892202377,0.0017613578820601106,-0.8989239931106567,0.43730753660202026
4.024820327758789,-1.1517731989136635,2.756982806587198,128.09007554323918,-0.048828125,0.02001953125,1.00390625,0.0,-0.18310546875,0.0,0.0,0.0,0.0,0.026027051731944084,0.0014937391970306635,-0.8989385366439819,0.43729835748672485
4.046687364578247,-1.1473827746595204,2.761699479095915,128.0929169019339,-0.04833984375,0.01953125,1.0029296875,-0.244140625,-0.67138671875,-0.06103515625,0.0,0.0,0.0,0.026047324761748314,0.0015455533284693956,-0.8989486694335938,0.43727633357048035
4.062592267990112,-1.0820750671367974,2.8418267761268616,128.09885916651183,-0.0498046875,0.01904296875,1.0048828125,0.0,-1.03759765625,-0.1220703125,0.0,0.0,0.0,0.02642667293548584,0.0023625672329217196,-0.8989577889442444,0.43723103404045105
4.08675217628479,-1.0475650027467789,2.809947508506062,128.1033534309857,-0.04931640625,0.0185546875,1.00146484375,0.0,-0.732421875,-0.18310546875,0.0,0.0,0.0,0.0260450579226017,0.0025105196982622147,-0.8989792466163635,0.43720901012420654
4.10744833946228,-1.1541744372937461,2.788284282892897,128.10003395904906,-0.048828125,0.02001953125,1.00244140625,-0.244140625,-0.42724609375,-0.06103515625,0.0,0.0,0.0,0.026281842961907387,0.0015921873273327947,-0.8989719152450562,0.43721437454223633
4.127198696136475,-1.163882163816744,2.756062438596539,128.1023015818535,-0.04833984375,0.0205078125,1.00439453125,-0.6103515625,-0.42724609375,0.0,0.0,0.0,0.0,0.026066191494464874,0.0013924523955211043,-0.8989855051040649,0.4371998906135559
4.147095680236816,-1.1601482914965684,2.746373174928641,128.10600354438367,-0.04833984375,0.02001953125,1.0068359375,0.1220703125,-0.6103515625,-0.06103515625,0.0,0.0,0.0,0.025975992903113365,0.0013839011080563068,-0.8990010619163513,0.43717339634895325
4.166708946228027,-1.0793414973649111,2.764080013465076,128.1126015071219,-0.048828125,0.01806640625,1.00341796875,0.42724609375,-0.91552734375,-0.1220703125,0.0,0.0,0.0,0.02580670826137066,0.0020839825738221407,-0.8990223407745361,0.43713685870170593
4.186779022216797,-1.1049046542724474,2.7077563525784467,128.11398120533423,-0.0478515625,0.01953125,1.001953125,-0.06103515625,-1.03759765625,-0.30517578125,0.0,0.0,0.0,0.02546245977282524,0.0016680569387972355,-0.8990364670753479,0.43712955713272095
4.208501100540161,-1.1305119939661774,2.720387079901093,128.11399486571258,-0.0478515625,0.02001953125,1.00244140625,-0.54931640625,-0.48828125,-0.1220703125,0.0,0.0,0.0,0.025659212842583656,0.0015153794083744287,-0.8990350365638733,0.43712174892425537
4.226759910583496,-1.087556507389144,2.78903987256983,128.11940437553523,-0.04931640625,0.01904296875,1.00439453125,-0.1220703125,-0.244140625,-0.06103515625,0.0,0.0,0.0,0.026033949106931686,0.0021132936235517263,-0.8990445733070374,0.4370775818824768
4.242271423339844,-1.091548966402428,2.7817544086029535,128.1214124511512,-0.048828125,0.01904296875,1.00390625,0.42724609375,-0.54931640625,0.0,0.0,0.0,0.0,0.025992071256041527,0.002053694799542427,-0.8990533947944641,0.4370619058609009
4.269523859024048,-1.1216405387296828,2.8499668675136363,128.12313365882204,-0.0498046875,0.02001953125,1.00341796875,-0.18310546875,-1.0986328125,-0.18310546875,0.0,0.0,0.0,0.02664191834628582,0.002077625598758459,-0.8990498781204224,0.43703001737594604
4.2869884967803955,-1.0766767630932543,2.7980085512802915,128.12925350831839,-0.04931640625,0.01904296875,1.00341796875,-0.06103515625,-0.8544921875,-0.18310546875,0.0,0.0,0.0,0.026062995195388794,0.002230649348348379,-0.8990805149078369,0.4370010793209076
4.30364465713501,-1.155359154949626,2.7430773952106984,128.12810603653782,-0.04833984375,0.02001953125,1.00048828125,-0.06103515625,-0.48828125,-0.1220703125,0.0,0.0,0.0,0.02593214437365532,0.0014038847293704748,-0.8990858197212219,0.43700161576271057
4.3219077587127686,-0.9969075173852042,2.7229063524877697,128.1379005278076,-0.04296875,-0.04736328125,0.9609375,-7.38525390625,-0.48828125,-0.30517578125,0.0,0.0,0.0,0.025169845670461655,0.002567947842180729,-0.89912348985672,0.43696340918540955
4.346821546554565,-0.5926585558506212,2.7652633437387806,128.12586573449005,-0.046875,-0.34033203125,1.0498046875,-7.75146484375,-2.8076171875,-0.91552734375,0.0,0.0,0.0,0.023959878832101822,0.005903943441808224,-0.8990557789802551,0.43713831901550293
4.367822647094727,-0.42861704878077866,2.7363703628891574,128.14811849080596,-0.0546875,-0.2763671875,1.0458984375,0.9765625,1.52587890625,1.220703125,0.0,0.0,0.0,0.023108787834644318,0.007076206151396036,-0.8991363048553467,0.4370010197162628
4.381922960281372,-0.24096696616436067,2.673122170844605,128.18224211589933,-0.06689453125,-0.26318359375,0.9833984375,-2.01416015625,-1.46484375,0.06103515625,0.0,0.0,0.0,0.021899370476603508,0.008300790563225746,-0.8992648124694824,0.4367772936820984
4.409570932388306,-0.019779145611559235,2.6084317416681215,128.2007246077934,-0.0625,-0.2685546875,0.98388671875,-2.44140625,-6.77490234375,-0.42724609375,0.0,0.0,0.0,0.02055017650127411,0.009786641225218773,-0.8993291854858398,0.4366793930530548
4.421806812286377,0.2235472356969043,2.5353529864172164,128.21196709916723,-0.05224609375,-0.26953125,0.94482421875,-1.953125,-2.44140625,-0.06103515625,0.0,0.0,0.0,0.01905044913291931,0.011415942572057247,-0.8993626832962036,0.4366390109062195
4.4468324184417725,0.4716380091243089,2.43991774135239,128.2260509492358,-0.05078125,-0.2705078125,0.96435546875,-1.40380859375,-4.638671875,0.244140625,0.0,0.0,0.0,0.017357613891363144,0.012997353449463844,-0.8994072675704956,0.43657347559928894
4.462394952774048,0.7226391368292265,2.3930908181764288,128.26058438567938,-0.00390625,-0.25341796875,1.00146484375,-2.13623046875,0.06103515625,-1.52587890625,0.0,0.0,0.0,0.016038186848163605,0.014784228056669235,-0.8995170593261719,0.436340868473053
4.487049102783203,0.9506855995593181,2.33545341309163,128.31473412541925,-0.033203125,-0.22998046875,1.0400390625,-0.48828125,-1.3427734375,-1.8310546875,0.0,0.0,0.0,0.014725024811923504,0.01634802110493183,-0.8997031450271606,0.4359476566314697
4.507040500640869,1.199298295488847,2.3426253251635547,128.33477390044408,-0.08056640625,-0.21923828125,0.96630859375,-3.5400390625,-3.96728515625,-0.9765625,0.0,0.0,0.0,0.013838703744113445,0.018324777483940125,-0.8997403383255005,0.43582114577293396
4.5267579555511475,1.4456951286412354,2.3226431798598597,128.3232855222601,-0.076171875,-0.23828125,1.0048828125,-1.52587890625,-4.150390625,0.9765625,0.0,0.0,0.0,0.01274261437356472,0.020184729248285294,-0.899659276008606,0.43593961000442505
4.547611474990845,1.5257794168247523,2.2078650525089687,128.31327246493686,-0.037109375,-0.20703125,1.05615234375,6.9580078125,-6.4697265625,0.54931640625,0.0,0.0,0.0,0.011534813791513443,0.020378291606903076,-0.8996304869651794,0.4360237419605255
4.566891431808472,1.6500203443838728,2.055503809250083,128.3419592594509,0.0048828125,-0.138671875,0.93701171875,0.48828125,-5.43212890625,-3.0517578125,0.0,0.0,0.0,0.009870816022157669,0.020772086456418037,-0.8997476100921631,0.43580421805381775
4.582882881164551,1.929417663398001,1.945023791877834,128.40425058468142,-0.0078125,-0.125,0.953125,-5.55419921875,-2.0751953125,-2.99072265625,0.0,0.0,0.0,0.007952792569994926,0.022541791200637817,-0.8999532461166382,0.43533068895339966
4.607927083969116,2.1351519258220706,1.9059666357695852,128.47848108058113,-0.0048828125,-0.0947265625,1.1083984375,0.1220703125,1.8310546875,-3.41796875,0.0,0.0,0.0,0.0068799350410699844,0.0240048635751009,-0.9002010822296143,0.43475785851478577
4.630380868911743,2.3182942703492655,1.9301021764188833,128.52616946136615,-0.0302734375,-0.12646484375,1.03759765625,-0.48828125,-0.732421875,-3.72314453125,0.0,0.0,0.0,0.006385367829352617,0.02553233690559864,-0.9003373980522156,0.4343961179256439
4.649067401885986,2.4413971176379325,2.0281147506783315,128.55742440700814,-0.08447265625,-0.0791015625,0.97119140625,1.0986328125,-1.40380859375,-1.28173828125,0.0,0.0,0.0,0.006696351803839207,0.026868699118494987,-0.9004067182540894,0.4341670870780945
4.662201881408691,2.5313641559419287,2.1886263306077467,128.58093391813134,-0.0771484375,-0.076171875,0.96533203125,2.86865234375,-1.40380859375,-0.42724609375,0.0,0.0,0.0,0.007622923236340284,0.02818118967115879,-0.9004377126693726,0.4340042471885681
4.696402072906494,2.6989693142112254,2.2047263671419364,128.6138281091741,-0.03369140625,-0.0673828125,1.0029296875,1.220703125,-1.5869140625,-1.89208984375,0.0,0.0,0.0,0.007123173214495182,0.029556985944509506,-0.9005162715911865,0.4337582290172577
4.702049016952515,2.824237544910198,2.258088927579953,128.65230939495797,-0.04736328125,-0.0537109375,1.00927734375,1.0986328125,-3.0517578125,-2.197265625,0.0,0.0,0.0,0.007078845985233784,0.030740607529878616,-0.9006158709526062,0.4334697127342224
4.723399877548218,2.8642426032091977,2.053296804374522,128.7212260036834,-0.00927734375,-0.052734375,1.0029296875,0.8544921875,1.708984375,-3.7841796875,0.0,0.0,0.0,0.0053354427218437195,0.03027867153286934,-0.900915265083313,0.4329046905040741
4.747231960296631,2.809804928307138,1.9308810314276763,128.79503302785454,-0.03466796875,-0.0439453125,0.9560546875,0.48828125,0.42724609375,-3.2958984375,0.0,0.0,0.0,0.004597168415784836,0.029386093840003014,-0.9012362360954285,0.4323062598705292
4.772681474685669,2.67021528502253,1.9942397871594186,128.8461091824679,-0.04736328125,-0.013671875,0.931640625,-3.47900390625,-0.54931640625,-1.953125,0.0,0.0,0.0,0.005635000765323639,0.028524350374937057,-0.9014498591423035,0.431906133890152
4.787413597106934,2.610736290182766,2.007249376537589,128.89590126151728,-0.0107421875,-0.02392578125,1.017578125,-3.84521484375,5.9814453125,-2.38037109375,0.0,0.0,0.0,0.005973775405436754,0.028102807700634003,-0.9016492366790771,0.4315128028392792
4.807298421859741,2.4456072889310105,1.9647999642893712,128.97246768211312,-0.03515625,-0.03564453125,1.18701171875,6.77490234375,2.50244140625,-4.0283203125,0.0,0.0,0.0,0.006279249209910631,0.026639696210622787,-0.9019860625267029,0.4308967888355255
4.82682728767395,2.1765836398839564,2.0302009465829474,129.09847101192153,-0.04443359375,0.00439453125,1.02294921875,3.2958984375,0.18310546875,-9.21630859375,0.0,0.0,0.0,0.00783305149525404,0.02475903369486332,-0.9025057554244995,0.42989420890808105
4.846864700317383,2.04052733883436,2.18980261724887,129.39737375037961,-0.08056640625,0.04541015625,0.8388671875,-3.662109375,6.7138671875,-18.00537109375,0.0,0.0,0.0,0.009664184413850307,0.024260252714157104,-0.9036189913749695,0.4275405704975128
4.867123603820801,1.9187119822042407,2.463378373934326,129.8649685009587,-0.16064453125,-0.013671875,1.0615234375,8.1787109375,4.2724609375,-26.611328125,0.0,0.0,0.0,0.012375783175230026,0.02426859363913536,-0.9053204655647278,0.423854798078537
4.887582063674927,1.715508091424249,2.7116322714890178,130.4590856757231,-0.181640625,0.03271484375,1.0244140625,6.53076171875,1.64794921875,-32.04345703125,0.0,0.0,0.0,0.015211387537419796,0.023501498624682426,-0.9074892997741699,0.41914141178131104
4.907389879226685,1.6119895309201244,2.8314619640613676,131.17017667021312,-0.1875,0.0712890625,0.9814453125,-1.0986328125,-2.9296875,-38.02490234375,0.0,0.0,0.0,0.016682442277669907,0.023016253486275673,-0.9100644588470459,0.4134909212589264
4.926733732223511,1.5586682717822447,2.9708725283236745,132.0013560506903,-0.109375,0.0390625,1.03125,-1.220703125,3.5400390625,-44.0673828125,0.0,0.0,0.0,0.018149400129914284,0.02296401932835579,-0.9130154252052307,0.4068737030029297
4.947908878326416,1.482010497406253,3.1402336855398993,132.93288457045333,-0.1318359375,0.009765625,1.009765625,2.8076171875,-1.708984375,-47.607421875,0.0,0.0,0.0,0.019957320764660835,0.02279215306043625,-0.916263997554779,0.39942771196365356
4.9668285846710205,1.388082909879001,3.2907580347988747,133.8695493924722,-0.1259765625,0.001953125,0.990234375,4.08935546875,0.9765625,-45.166015625,0.0,0.0,0.0,0.02167237177491188,0.02238854393362999,-0.9194763898849487,0.3919084966182709
4.986795663833618,1.345555590785563,3.445455202753905,134.73654628495694,-0.126953125,0.02001953125,0.96875,-1.8310546875,-2.99072265625,-42.05322265625,0.0,0.0,0.0,0.023229585960507393,0.022400397807359695,-0.9223806858062744,0.38493192195892334
5.006789922714233,1.332316763183374,3.4742583239272604,135.54895630559494,-0.111328125,-0.01904296875,0.9833984375,1.46484375,-9.1552734375,-39.61181640625,0.0,0.0,0.0,0.023664114996790886,0.0222232174128294,-0.9250809550285339,0.3783801794052124
5.027151823043823,1.4907379850616482,3.4445194668376136,136.27205477264584,-0.0341796875,-0.07861328125,0.9794921875,-0.1220703125,0.42724609375,-33.3251953125,0.0,0.0,0.0,0.023048071190714836,0.02325911819934845,-0.9274272322654724,0.3725675046443939
5.049353361129761,1.733132434082115,3.4067830985601164,136.8050280939603,-0.04638671875,-0.17919921875,1.0771484375,0.48828125,0.0,-21.8505859375,0.0,0.0,0.0,0.02207092009484768,0.02499602735042572,-0.9291099905967712,0.36829710006713867
5.0669190883636475,1.9941302906892868,3.373618261271473,137.11024192721146,-0.09033203125,-0.22021484375,1.0048828125,-2.62451171875,-5.06591796875,-11.23046875,0.0,0.0,0.0,0.021034875884652138,0.02694987691938877,-0.9300382733345032,0.36586904525756836
5.0826334953308105,2.1685916782248067,3.2186602654675127,137.26989076887133,0.02392578125,-0.17431640625,1.03857421875,1.40380859375,-4.21142578125,-7.080078125,0.0,0.0,0.0,0.01925847865641117,0.02784557081758976,-0.9305505156517029,0.36459487676620483
5.104706525802612,2.2266882000878776,3.068655437472281,137.36511726627967,0.07421875,-0.111328125,0.9375,0.9765625,2.74658203125,-3.41796875,0.0,0.0,0.0,0.017878113314509392,0.027826519683003426,-0.9308817386627197,0.3638206124305725
5.124388694763184,2.362890923317806,2.9682591271924985,137.45046731014813,0.02197265625,-0.10498046875,0.92822265625,-0.9765625,3.23486328125,-4.39453125,0.0,0.0,0.0,0.016651077196002007,0.028602663427591324,-0.9311468005180359,0.3631397485733032
5.148860931396484,2.5521006102620873,2.893194494440412,137.5617174313493,-0.0078125,-0.0986328125,0.97021484375,-2.74658203125,1.3427734375,-6.591796875,0.0,0.0,0.0,0.015470271930098534,0.02988790161907673,-0.9314712285995483,0.3622550368309021
5.167684316635132,2.764698572471785,2.8726509929643065,137.66667011813573,-0.0888671875,-0.08740234375,1.03515625,-0.732421875,-8.36181640625,-5.37109375,0.0,0.0,0.0,0.014659998938441277,0.031537819653749466,-0.9317513108253479,0.3614274859428406
5.186855316162109,2.8391418714528123,2.81154235767726,137.82097775186466,0.01806640625,-0.0654296875,1.12646484375,3.0517578125,6.4697265625,-9.27734375,0.0,0.0,0.0,0.013971094973385334,0.031932197511196136,-0.9322336912155151,0.3601745367050171
5.206834316253662,2.791441324393324,2.7920024671223227,137.98064025390286,-0.12158203125,-0.06494140625,0.9951171875,5.615234375,-2.86865234375,-6.4697265625,0.0,0.0,0.0,0.014005841687321663,0.03146342933177948,-0.9327531456947327,0.35886693000793457
5.228494644165039,2.6495625005197034,2.95996962541763,138.09130297883542,-0.0771484375,0.00244140625,0.884765625,5.06591796875,-0.06103515625,-5.43212890625,0.0,0.0,0.0,0.015847770497202873,0.03081767074763775,-0.9330911040306091,0.3579668700695038
5.246928691864014,2.4310350803367884,2.913248783617216,138.19687038264712,-0.10791015625,0.140625,0.91259765625,-3.5400390625,-3.662109375,-4.638671875,0.0,0.0,0.0,0.016176380217075348,0.02887779101729393,-0.9334903359413147,0.35707181692123413
5.267135143280029,2.3861581761688657,2.8738744505993847,138.30335303180763,-0.06591796875,0.1005859375,1.0419921875,-3.84521484375,-2.01416015625,-5.43212890625,0.0,0.0,0.0,0.01602170243859291,0.028374982997775078,-0.9338436722755432,0.35619425773620605
5.287158250808716,2.1057588470591555,2.8272105981898576,138.39165371739756,-0.0478515625,0.05908203125,1.126953125,6.65283203125,0.48828125,-3.60107421875,0.0,0.0,0.0,0.016532793641090393,0.025932418182492256,-0.9341965317726135,0.3554306626319885
5.3019609451293945,1.8228664989023906,2.844593002740717,138.43012134280306,-0.0693359375,0.11767578125,0.95166015625,2.38037109375,-1.0986328125,-1.89208984375,0.0,0.0,0.0,0.017559900879859924,0.023673994466662407,-0.93437260389328,0.3550761342048645
5.327066898345947,1.7086589057906074,2.8032861530745956,138.4397519095328,-0.0771484375,0.1240234375,0.9404296875,-6.40869140625,-6.34765625,-1.220703125,0.0,0.0,0.0,0.01757875829935074,0.02261352352797985,-0.9344357848167419,0.35497814416885376
5.347232818603516,1.4779479222322705,2.6810983376912985,138.47783704434477,-0.025390625,0.06884765625,1.11865234375,7.26318359375,-2.197265625,-3.173828125,0.0,0.0,0.0,0.017303498461842537,0.020348545163869858,-0.9346261024475098,0.35462766885757446
5.369280576705933,1.039722238032312,2.5699374358361644,138.57731191941684,0.02978515625,0.189453125,1.13623046875,15.07568359375,-3.11279296875,-6.53076171875,0.0,0.0,0.0,0.017766939476132393,0.0164151880890131,-0.9350283741950989,0.3537469506263733
5.382721424102783,0.7585835943058005,2.5246142214946636,138.64583237717042,-0.04638671875,0.2578125,0.88427734375,2.01416015625,-4.21142578125,-2.86865234375,0.0,0.0,0.0,0.01827324740588665,0.013970432803034782,-0.935286283493042,0.35314369201660156
5.406743288040161,0.6101151319869986,2.5017441868325223,138.71173004228268,-0.00244140625,0.23193359375,0.939453125,-6.9580078125,7.4462890625,-2.86865234375,0.0,0.0,0.0,0.018551386892795563,0.01267753541469574,-0.9355109930038452,0.35258227586746216
5.426691055297852,0.47836521184824254,2.494192558931427,138.806915558556,-0.0166015625,0.14306640625,1.0478515625,-0.244140625,0.1220703125,-5.37109375,0.0,0.0,0.0,0.018904702737927437,0.011563017964363098,-0.9358189702033997,0.35178396105766296
5.447772979736328,0.2899207995756932,2.527844687528668,138.90171858423577,-0.04052734375,0.13916015625,0.99560546875,0.8544921875,-0.54931640625,-5.7373046875,0.0,0.0,0.0,0.019766390323638916,0.010110978037118912,-0.9361211061477661,0.3509764075279236
5.462425470352173,0.10076217229752138,2.528243613264879,139.02300908351685,-0.02490234375,0.158203125,0.9765625,0.79345703125,2.44140625,-6.7138671875,0.0,0.0,0.0,0.020358042791485786,0.00854536984115839,-0.9365073442459106,0.34995222091674805
5.487230062484741,-0.07709826154649818,2.497176070938253,139.1561977723321,-0.0419921875,0.130859375,0.99462890625,-1.77001953125,-1.89208984375,-7.38525390625,0.0,0.0,0.0,0.020655402913689613,0.006972903851419687,-0.9369310736656189,0.34883368015289307
5.501896858215332,-0.273881461011667,2.461293885577003,139.26921008233913,-0.06884765625,0.12109375,1.03662109375,1.5869140625,-3.662109375,-6.16455078125,0.0,0.0,0.0,0.02096620760858059,0.005234017502516508,-0.9372913241386414,0.34787654876708984
5.527680158615112,-0.43791200242624045,2.5690627447355796,139.36186842861952,-0.03076171875,0.13134765625,1.05615234375,-1.3427734375,8.85009765625,-5.126953125,0.0,0.0,0.0,0.022348981350660324,0.004201549105346203,-0.9375606775283813,0.3470776677131653
5.547204256057739,-0.6727518086574237,2.6584161332313325,139.46094715271974,-0.068359375,0.11083984375,1.09765625,3.7841796875,3.35693359375,-6.2255859375,0.0,0.0,0.0,0.02379341423511505,0.002530357101932168,-0.9378519654273987,0.346209853887558
5.567405700683594,-0.959709239948257,2.8226922146104827,139.69057811261555,-0.07177734375,0.1162109375,0.970703125,7.50732421875,7.87353515625,-15.68603515625,0.0,0.0,0.0,0.026005886495113373,0.0006264495896175504,-0.9385190606117249,0.3442460894584656
5.587034463882446,-1.1741456969834518,3.0381151003722153,140.09698802860967,-0.15185546875,0.14501953125,0.86962890625,1.28173828125,1.64794921875,-23.98681640625,0.0,0.0,0.0,0.0284121111035347,-0.0005826297565363348,-0.9396947622299194,0.3408315181732178
5.607386350631714,-1.2844200616286596,3.188790994453401,140.64837553992646,-0.13818359375,0.14208984375,1.00732421875,-1.46484375,0.1220703125,-29.78515625,0.0,0.0,0.0,0.02997005358338356,-0.001182283740490675,-0.9412940740585327,0.3362526297569275
5.627137899398804,-1.377458657346752,3.3149605966794033,141.31583528599845,-0.115234375,0.13037109375,1.0390625,-3.0517578125,1.708984375,-34.60693359375,0.0,0.0,0.0,0.03126947581768036,-0.0017578020924702287,-0.9432101845741272,0.3307170271873474
5.646709203720093,-1.4376886528300996,3.471267554844441,142.0624979056859,-0.10888671875,0.1064453125,1.00732421875,-2.50244140625,2.86865234375,-39.6728515625,0.0,0.0,0.0,0.03271707519888878,-0.002014756202697754,-0.9453113079071045,0.32451850175857544
5.6666624546051025,-1.5550743116183485,3.658957951585218,142.85518234000088,-0.12255859375,0.07958984375,1.013671875,2.99072265625,1.46484375,-40.46630859375,0.0,0.0,0.0,0.0345795564353466,-0.002689631888642907,-0.9474895000457764,0.31790056824684143
5.687264442443848,-1.7077978750683627,3.8046006365783387,143.6346981695961,-0.119140625,0.0947265625,0.978515625,1.52587890625,-4.0283203125,-39.1845703125,0.0,0.0,0.0,0.036182064563035965,-0.003793492680415511,-0.949591875076294,0.3113706409931183
5.70693039894104,-1.7711514014365217,3.8915369918815537,144.3709652413668,-0.10400390625,0.0947265625,0.9833984375,-4.94384765625,-1.40380859375,-36.07177734375,0.0,0.0,0.0,0.0370473749935627,-0.004319658502936363,-0.9515498876571655,0.3052240014076233
5.727024078369141,-1.8711164493032415,3.8660953909969025,145.06724838573624,-0.0625,0.06103515625,1.04296875,-0.8544921875,-3.47900390625,-33.935546875,0.0,0.0,0.0,0.03707004711031914,-0.005443089175969362,-0.9533886909484863,0.2994098961353302
5.742185115814209,-1.9639720172959187,3.7618889023773106,145.70182760114378,-0.0322265625,0.0693359375,1.04833984375,-0.3662109375,2.74658203125,-30.09033203125,0.0,0.0,0.0,0.03640947863459587,-0.006690606940537691,-0.955051600933075,0.2941194772720337
5.770776748657227,-2.1214561158757257,3.69388711211384,146.19917465574744,-0.080078125,0.060546875,1.00732421875,1.46484375,-6.4697265625,-21.728515625,0.0,0.0,0.0,0.0362112782895565,-0.008335573598742485,-0.95632404088974,0.28993746638298035
5.786726713180542,-2.1013597783468443,3.5567772543847695,146.51142358384374,-0.0498046875,0.029296875,0.9921875,2.9296875,-10.498046875,-12.0849609375,0.0,0.0,0.0,0.03499322757124901,-0.008611511439085007,-0.9571418762207031,0.2873687744140625
5.811815977096558,-2.057922763433325,3.179164269705091,146.67573061451756,0.0068359375,0.00390625,0.9541015625,3.173828125,-0.91552734375,-2.86865234375,0.0,0.0,0.0,0.03171787038445473,-0.009244664572179317,-0.9576320052146912,0.28609374165534973
5.826996088027954,-2.1285076458635293,2.9473978084765755,146.71500420224513,0.03955078125,0.07958984375,1.05859375,8.30078125,-3.96728515625,-2.3193359375,0.0,0.0,0.0,0.02995421551167965,-0.01042537484318018,-0.9577650427818298,0.2857973873615265
5.8497068881988525,-2.4260065670037783,2.7773600356456964,146.6777933316469,0.02587890625,0.19970703125,1.14453125,9.46044921875,-4.150390625,2.197265625,0.0,0.0,0.0,0.02927970141172409,-0.01332784816622734,-0.9576685428619385,0.2860702872276306
5.866784334182739,-2.7284821347280275,2.6548411695310654,146.52808924541856,-0.029296875,0.34423828125,0.8984375,1.64794921875,-7.9345703125,9.33837890625,0.0,0.0,0.0,0.029032262042164803,-0.01612469181418419,-0.957272469997406,0.287274569272995
5.887124538421631,-2.9372227476039607,2.504468151650888,146.2981714175776,0.01611328125,0.31494140625,0.9326171875,-0.67138671875,-2.50244140625,12.939453125,0.0,0.0,0.0,0.02833634987473488,-0.01819000393152237,-0.9566817879676819,0.2891819179058075
5.9067912101745605,-3.1540377112959064,2.414015102698763,145.98614105553474,0.0078125,0.29833984375,1.06787109375,1.89208984375,-1.64794921875,16.66259765625,0.0,0.0,0.0,0.02818356640636921,-0.020152537152171135,-0.9558646082878113,0.2917573153972626
5.930612087249756,-3.4054518520021984,2.3335048881874725,145.61325370798707,-0.013671875,0.298828125,1.0390625,2.62451171875,0.06103515625,18.73779296875,0.0,0.0,0.0,0.028225241228938103,-0.022363701835274696,-0.954871654510498,0.29482778906822205
5.947164058685303,-3.615884644245002,2.2845586853781032,145.2347382845633,-0.01904296875,0.29345703125,1.0048828125,1.40380859375,-3.173828125,18.12744140625,0.0,0.0,0.0,0.028438851237297058,-0.024149790406227112,-0.9538542032241821,0.2979431748390198
5.966953992843628,-3.81706402426632,2.2358216571120657,144.87223282455403,-0.0146484375,0.275390625,0.998046875,0.3662109375,-0.18310546875,17.02880859375,0.0,0.0,0.0,0.028638338670134544,-0.025861121714115143,-0.9528669118881226,0.30092474818229675
5.987306833267212,-4.018410317035479,2.1887618671740894,144.58048812434612,-0.01708984375,0.24267578125,0.98046875,-0.54931640625,1.8310546875,12.8173828125,0.0,0.0,0.0,0.028846239671111107,-0.027586089447140694,-0.9520540237426758,0.3033149540424347
6.006978750228882,-4.184144857245839,2.194951939552825,144.37156629801376,-0.0615234375,0.21923828125,1.00146484375,-0.48828125,-1.52587890625,9.1552734375,0.0,0.0,0.0,0.029389020055532455,-0.02889302931725979,-0.9514583349227905,0.30500587821006775
6.027200222015381,-4.3751122506843405,2.186350596953663,144.19422726640354,-0.07177734375,0.19091796875,1.00439453125,0.06103515625,-2.38037109375,8.30078125,0.0,0.0,0.0,0.029873061925172806,-0.03045540116727352,-0.9509362578392029,0.30643171072006226
6.047652959823608,-4.566702898884607,2.186050282073594,144.04016551948473,-0.0361328125,0.18310546875,1.015625,0.1220703125,-0.06103515625,6.53076171875,0.0,0.0,0.0,0.03042592480778694,-0.0320051945745945,-0.9504712224006653,0.30765965580940247
6.067368030548096,-4.745279048508237,2.1354646204200103,143.92723517174775,-0.0263671875,0.1796875,1.0185546875,-0.6103515625,0.0,5.31005859375,0.0,0.0,0.0,0.030519109219312668,-0.03359273821115494,-0.9501188397407532,0.30856820940971375
6.086986541748047,-4.92467780904003,2.101817401021235,143.83879788237442,-0.03564453125,0.1494140625,0.99169921875,-1.40380859375,0.9765625,4.8828125,0.0,0.0,0.0,0.030750464648008347,-0.03514746576547623,-0.9498279690742493,0.3092668652534485
6.10835337638855,-4.913585154941106,2.1830134092138773,143.75877538605855,-0.04638671875,0.060546875,0.96923828125,-4.21142578125,2.13623046875,5.2490234375,0.0,0.0,0.0,0.03141751512885094,-0.03481338545680046,-0.949612021446228,0.30990010499954224
6.128033399581909,-4.550850029821007,2.1646346508178422,143.6899543999815,-0.01416015625,-0.1298828125,0.95849609375,-7.8125,1.953125,4.82177734375,0.0,0.0,0.0,0.030303262174129486,-0.03183900937438011,-0.9495320320129395,0.31057530641555786
6.143622636795044,-4.310589588029346,2.1444279630451826,143.5947688837082,-0.01513671875,-0.13818359375,1.0615234375,-2.74658203125,3.7841796875,8.1787109375,0.0,0.0,0.0,0.02950948104262352,-0.02987860143184662,-0.9493394494056702,0.31143417954444885
6.167238712310791,-4.058915900134593,2.065197768673035,143.4641483460209,0.0263671875,-0.19970703125,0.95556640625,-4.8828125,3.41796875,9.033203125,0.0,0.0,0.0,0.02820117585361004,-0.02797764167189598,-0.9490514397621155,0.31260743737220764
6.187067270278931,-3.785776635225784,2.0402703529668385,143.30612508938347,0.0146484375,-0.20654296875,1.009765625,-2.62451171875,2.0751953125,10.7421875,0.0,0.0,0.0,0.02728511579334736,-0.025746071711182594,-0.9486847519874573,0.31399035453796387
6.204271554946899,-3.7924164328726824,2.0591182599814886,143.07939012969572,-0.06982421875,0.04833984375,1.13134765625,16.4794921875,-0.8544921875,10.6201171875,0.0,0.0,0.0,0.027510181069374084,-0.02569483034312725,-0.94805908203125,0.31585922837257385
6.22347354888916,-3.592600956251252,2.244839641250598,142.7482625587335,-0.1162109375,-0.1298828125,0.806640625,-13.12255859375,-0.48828125,14.95361328125,0.0,0.0,0.0,0.0285632386803627,-0.023445451632142067,-0.947172999382019,0.31858712434768677
6.247862815856934,-3.1669181674100813,2.114831472711048,142.475014010798,-0.0126953125,-0.2998046875,1.00439453125,-13.12255859375,-1.3427734375,17.63916015625,0.0,0.0,0.0,0.02635354921221733,-0.020226679742336273,-0.9465013146400452,0.3209856152534485
6.262699842453003,-2.8383585341323765,2.0055125874977016,142.0649294530304,-0.01171875,-0.30224609375,1.0693359375,-6.28662109375,-5.37109375,22.5830078125,0.0,0.0,0.0,0.024593984708189964,-0.017731979489326477,-0.9454089403152466,0.32447299361228943
6.287053823471069,-2.621714325169681,1.9036552570657708,141.53300798084817,-0.03076171875,-0.2939453125,1.01171875,0.1220703125,-3.0517578125,29.541015625,0.0,0.0,0.0,0.02321545220911503,-0.016126111149787903,-0.9439318180084229,0.32892829179763794
6.306985139846802,-2.50138880355227,1.8071434034330212,140.94843941054344,0.01318359375,-0.31396484375,1.07666015625,4.39453125,1.5869140625,31.982421875,0.0,0.0,0.0,0.022153565660119057,-0.015299748629331589,-0.9422645568847656,0.3337855041027069
6.327304124832153,-2.3923042792048195,1.690616320767784,140.32272578067858,0.03076171875,-0.24560546875,0.96533203125,-1.03759765625,0.79345703125,34.24072265625,0.0,0.0,0.0,0.02095801942050457,-0.01462861243635416,-0.9404492974281311,0.33897167444229126
6.34209418296814,-2.249692490655892,1.5163543961003694,139.63518527844676,0.02197265625,-0.248046875,0.92724609375,2.8076171875,-6.9580078125,35.94970703125,0.0,0.0,0.0,0.019189734011888504,-0.013859633356332779,-0.938425600528717,0.3446696102619171
6.36724853515625,-2.0722857974842155,1.4228621264110002,138.87975269586502,0.0693359375,-0.25732421875,0.9931640625,2.5634765625,-3.11279296875,36.62109375,0.0,0.0,0.0,0.01797383837401867,-0.012570156715810299,-0.9361578226089478,0.3508954644203186
6.387470722198486,-1.9268736313755828,1.2947568058855334,138.09664418676635,0.0263671875,-0.2255859375,0.97509765625,0.9765625,-5.37109375,39.794921875,0.0,0.0,0.0,0.016562212258577347,-0.011662019416689873,-0.9337586760520935,0.35732975602149963
6.406989574432373,-1.739355590189643,1.0787759790459752,137.30647326206594,0.04931640625,-0.20361328125,1.02734375,-3.41796875,-4.150390625,41.44287109375,0.0,0.0,0.0,0.014291876927018166,-0.010709830559790134,-0.9312978982925415,0.3638204038143158
6.428363561630249,-1.5595659080495725,0.8506876814072175,136.48377697653788,0.09716796875,-0.17919921875,1.02734375,-1.3427734375,-6.8359375,42.8466796875,0.0,0.0,0.0,0.01193876564502716,-0.009887855499982834,-0.9286829829216003,0.37055060267448425
6.446946382522583,-1.365845094601909,0.5970452982059148,135.6139660461151,0.0673828125,-0.1591796875,0.95166015625,-1.3427734375,-4.08935546875,44.189453125,0.0,0.0,0.0,0.009325914084911346,-0.009067927487194538,-0.9258617758750916,0.37763848900794983
6.467421531677246,-1.1902067800950311,0.4844758299170239,134.72339134061548,0.10107421875,-0.15380859375,1.01904296875,1.77001953125,0.18310546875,44.43359375,0.0,0.0,0.0,0.007899674586951733,-0.007958746515214443,-0.9229120016098022,0.3848477602005005
6.487127065658569,-1.0704833823416393,0.3896414280557472,133.76567587557463,0.00341796875,-0.14111328125,1.0283203125,2.8076171875,-2.99072265625,48.828125,0.0,0.0,0.0,0.006794698536396027,-0.007256524171680212,-0.9196709990501404,0.392564058303833
6.507464170455933,-0.936264722343894,0.27134185794003873,132.7541385198741,0.03564453125,-0.12548828125,1.03857421875,0.91552734375,-7.32421875,48.33984375,0.0,0.0,0.0,0.005443388596177101,-0.00653685862198472,-0.9161770343780518,0.40068358182907104
6.527356147766113,-0.7584054757788512,0.077062156259411,131.73881723937336,0.07763671875,-0.185546875,0.96142578125,0.244140625,-7.75146484375,50.048828125,0.0,0.0,0.0,0.003319388721138239,-0.005765031557530165,-0.9125977158546448,0.4088048040866852
6.542071580886841,-0.5703372841996079,0.03026932066328708,130.81667339952995,0.1748046875,-0.1748046875,0.9599609375,-5.79833984375,13.48876953125,45.83740234375,0.0,0.0,0.0,0.0023114047944545746,-0.004415745846927166,-0.9092859029769897,0.41614219546318054
6.5619895458221436,-0.26847896814117206,0.1294832978503035,130.00054775598346,0.0947265625,-0.1865234375,0.9140625,-7.87353515625,10.43701171875,36.56005859375,0.0,0.0,0.0,0.0020142358262091875,-0.0016458756290376186,-0.9063078761100769,0.4226101338863373
6.588281631469727,0.19119206930959853,0.47806905911469905,129.32001502784007,-0.009765625,-0.2529296875,0.93798828125,-14.16015625,13.61083984375,28.38134765625,0.0,0.0,0.0,0.0030564384069293737,0.0032934548798948526,-0.9037718772888184,0.42799076437950134
6.602060317993164,0.47055915940056425,0.5756799862344388,128.86609431597935,-0.1552734375,-0.24560546875,1.08544921875,-2.8076171875,-2.5634765625,18.310546875,0.0,0.0,0.0,0.002759624971076846,0.005872305482625961,-0.902053713798523,0.43157511949539185
6.626973628997803,0.5102968264657282,0.6911273654022851,128.64930411172315,-0.033203125,-0.19482421875,1.189453125,9.8876953125,2.44140625,5.0048828125,0.0,0.0,0.0,0.0035062411334365606,0.006626517046242952,-0.9012265801429749,0.43328341841697693
6.647711277008057,0.5022249302489483,0.7746250406235159,128.63419573327909,-0.10791015625,-0.11328125,0.94921875,3.90625,-1.8310546875,-1.77001953125,0.0,0.0,0.0,0.0041925543919205666,0.006879264488816261,-0.9011642932891846,0.4334028363227844
6.663545846939087,0.702579885093104,0.9994971195759911,128.79970487724682,-0.1181640625,-0.0771484375,0.8291015625,-8.36181640625,5.18798828125,-12.87841796875,0.0,0.0,0.0,0.00521667068824172,0.009297697804868221,-0.9017570614814758,0.43211185932159424
6.686697721481323,0.9488483853942904,1.1834877949424425,129.1835751689799,-0.19873046875,-0.12451171875,0.978515625,-3.90625,-1.5869140625,-22.27783203125,0.0,0.0,0.0,0.005775878671556711,0.011909957975149155,-0.9031579494476318,0.4291042983531952
6.7068257331848145,1.0596026775503975,1.4731278363906513,129.7603983047658,-0.14501953125,-0.11572265625,1.05859375,2.9296875,12.87841796875,-31.494140625,0.0,0.0,0.0,0.007713812869042158,0.013828347437083721,-0.9052581191062927,0.42456677556037903
6.7297751903533936,1.0179246497915682,1.8828043970770143,130.52125405754853,-0.2265625,-0.0302734375,0.9921875,3.60107421875,7.2021484375,-42.48046875,0.0,0.0,0.0,0.011204386129975319,0.014942062087357044,-0.9080013036727905,0.418550968170166
6.7487006187438965,1.0679742483170118,2.048581412526275,131.48778046661872,-0.28271484375,-0.0107421875,1.0244140625,-1.708984375,-1.3427734375,-51.3916015625,0.0,0.0,0.0,0.012469363398849964,0.01583913154900074,-0.911464512348175,0.4108845591545105
6.767779111862183,1.0734605977678244,2.448736796231346,132.70049421413282,-0.076171875,-0.0458984375,1.15771484375,9.27734375,15.93017578125,-65.24658203125,0.0,0.0,0.0,0.015815312042832375,0.017150012776255608,-0.9156851172447205,0.4012189209461212
6.7867796421051025,1.0190031793501955,2.7952700723099393,134.15298858264939,-0.24609375,0.01220703125,0.9326171875,5.2490234375,2.8076171875,-76.23291015625,0.0,0.0,0.0,0.01900121010839939,0.017687590792775154,-0.9206307530403137,0.38957029581069946
6.8068952560424805,0.9843059250882364,2.9834217202631037,135.78892817189416,-0.177734375,-0.01806640625,0.88232421875,4.57763671875,4.69970703125,-84.8388671875,0.0,0.0,0.0,0.020886575803160667,0.01775144785642624,-0.9260599613189697,0.3763795495033264
6.828561305999756,1.0853309329367777,3.45877407163543,137.53788007114596,-0.111328125,-0.0244140625,0.984375,1.953125,12.39013671875,-88.92822265625,0.0,0.0,0.0,0.024701111018657684,0.01975250616669655,-0.9315577149391174,0.36221522092819214
6.846832036972046,1.1730731438403483,3.645488818541953,139.3631525041835,-0.302734375,-0.04296875,1.08544921875,1.46484375,-2.5634765625,-90.8203125,0.0,0.0,0.0,0.026274004951119423,0.020639173686504364,-0.937140703201294,0.34734874963760376
6.86674952507019,1.1993921038682287,3.83349190988067,141.19608840946978,-0.23486328125,-0.04345703125,1.0673828125,9.09423828125,6.4697265625,-93.26171875,0.0,0.0,0.0,0.02807118557393551,0.02097693644464016,-0.9425156116485596,0.332319438457489
6.887003660202026,1.1448819649279438,4.084630708586046,143.10915609409864,-0.2119140625,-0.03369140625,1.0283203125,10.55908203125,1.89208984375,-96.61865234375,0.0,0.0,0.0,0.030645931139588356,0.020746730268001556,-0.9478629231452942,0.3165222108364105
6.907304286956787,1.1471706119084268,4.141730663160529,145.04313781796608,-0.31787109375,-0.001953125,0.876953125,4.150390625,-5.2490234375,-95.76416015625,0.0,0.0,0.0,0.031460702419281006,0.020395003259181976,-0.9530507922172546,0.3004806339740753
6.926696062088013,1.2411047094597314,4.374793793114289,146.92527840603316,-0.23583984375,-0.0498046875,0.921875,4.08935546875,5.31005859375,-90.087890625,0.0,0.0,0.0,0.03350646421313286,0.0212384182959795,-0.9577620029449463,0.2848127782344818
6.947023153305054,1.3980838009277807,4.389611461631809,148.61681573512183,-0.36328125,-0.0419921875,0.9580078125,-1.40380859375,-14.83154296875,-80.74951171875,0.0,0.0,0.0,0.03356993570923805,0.022094039246439934,-0.9618272185325623,0.2706904411315918
6.966707468032837,1.5274190891123784,4.36415790791611,150.0770282174005,-0.234375,-0.05908203125,1.11181640625,1.64794921875,-0.9765625,-67.7490234375,0.0,0.0,0.0,0.03334261104464531,0.022696664556860924,-0.9651823043823242,0.258449912071228
6.98705267906189,1.6048336271040666,4.52723080878428,151.26855471810924,-0.16357421875,-0.056640625,1.02734375,3.662109375,-3.2958984375,-54.5654296875,0.0,0.0,0.0,0.034786585718393326,0.023354602977633476,-0.9677436947822571,0.2484283745288849
7.006848096847534,1.7448640310335524,4.518977378945966,152.14754542277652,-0.13330078125,-0.0283203125,0.85595703125,-7.568359375,-3.23486328125,-38.75732421875,0.0,0.0,0.0,0.03460032865405083,0.024254661053419113,-0.9695948362350464,0.24104002118110657
7.026931047439575,2.140320671476478,4.629069783082816,152.7751032037173,-0.0185546875,-0.15234375,1.03271484375,-3.7841796875,9.82666015625,-24.35302734375,0.0,0.0,0.0,0.03485194593667984,0.027640441432595253,-0.9707701802253723,0.23585347831249237
7.0420520305633545,2.2177015921308447,4.546220869111031,153.1769095722108,-0.166015625,-0.09814453125,1.16552734375,10.7421875,-7.2021484375,-15.56396484375,0.0,0.0,0.0,0.034088972955942154,0.02800717018544674,-0.9716036915779114,0.23246459662914276
7.066878318786621,2.004701715977174,4.456136223487263,153.41222324949607,-0.009765625,0.01025390625,0.97216796875,0.42724609375,5.67626953125,-11.5966796875,0.0,0.0,0.0,0.03381025046110153,0.025950109586119652,-0.9721625447273254,0.23039884865283966
7.0867018699646,1.9863771722076762,4.460076815751537,153.6181671133503,-0.11376953125,0.021484375,0.84716796875,-11.962890625,-3.2958984375,-10.92529296875,0.0,0.0,0.0,0.03392685204744339,0.025741595774888992,-0.972577691078186,0.2286461889743805
7.1067304611206055,2.138019111169595,4.551957801127019,153.81314169339748,-0.1083984375,-0.04052734375,1.06396484375,-4.45556640625,-2.0751953125,-11.3525390625,0.0,0.0,0.0,0.034450553357601166,0.027152257040143013,-0.9728963375091553,0.22704313695430756
7.121933221817017,2.1394278376859104,4.449554055561487,154.06342714534344,-0.04052734375,-0.06396484375,1.12158203125,9.8876953125,3.662109375,-11.65771484375,0.0,0.0,0.0,0.03363683447241783,0.026889195665717125,-0.9734275937080383,0.22490978240966797
7.146954298019409,2.0075836289200963,4.4500466829553735,154.24534240369755,-0.19287109375,0.01171875,0.83203125,2.62451171875,-17.08984375,-7.99560546875,0.0,0.0,0.0,0.033940639346838,0.025716304779052734,-0.9738134741783142,0.22332526743412018
7.165891170501709,2.0518870106411495,4.262955848757677,154.38790211205406,-0.10205078125,0.04345703125,0.91162109375,-10.80322265625,-8.1787109375,-8.97216796875,0.0,0.0,0.0,0.032295819371938705,0.02569018304347992,-0.9741475582122803,0.22211207449436188
7.183786869049072,2.0587660783524098,4.09583819524039,154.55133487851413,0.0068359375,-0.0400390625,1.11962890625,2.01416015625,7.080078125,-8.48388671875,0.0,0.0,0.0,0.030897587537765503,0.025382567197084427,-0.9745193719863892,0.22071045637130737
7.203458547592163,1.9854087794494153,4.028033626689204,154.71090175790397,-0.0966796875,0.01708984375,0.9736328125,-5.2490234375,-5.126953125,-7.568359375,0.0,0.0,0.0,0.030496330931782722,0.024586394429206848,-0.9748644828796387,0.21932801604270935
7.226759672164917,1.9028535636119406,3.978004198566153,154.88296788347492,0.0107421875,0.02001953125,1.03857421875,-2.50244140625,6.16455078125,-9.82666015625,0.0,0.0,0.0,0.03026428446173668,0.0237433984875679,-0.9752265810966492,0.21783818304538727
7.242128610610962,1.7818623119938652,3.879427066483121,155.07007408559826,-0.037109375,0.00146484375,1.14306640625,2.44140625,2.3193359375,-9.46044921875,0.0,0.0,0.0,0.02969183959066868,0.022478774189949036,-0.9756371974945068,0.21620678901672363
7.2671730518341064,1.4977138493600526,3.7753738302330313,155.2616882125738,-0.1025390625,-0.00244140625,1.06494140625,10.80322265625,-11.23046875,-12.02392578125,0.0,0.0,0.0,0.029374899342656136,0.019814886152744293,-0.9760820865631104,0.21449552476406097
7.286804437637329,1.2862248323951297,3.720972227267526,155.48125147363302,-0.00341796875,0.048828125,0.9375,0.3662109375,3.72314453125,-11.8408203125,0.0,0.0,0.0,0.029341500252485275,0.017855755984783173,-0.9765423536300659,0.21256835758686066
7.306743621826172,1.2296188925967086,3.7202486541023276,155.67470975168447,-0.140625,0.03369140625,0.88671875,-6.9580078125,-4.82177734375,-8.30078125,0.0,0.0,0.0,0.029469622299075127,0.017322294414043427,-0.9769087433815002,0.2109048217535019
7.3269593715667725,1.1379508170242618,3.708373089569791,155.87238908664298,-0.00537109375,-0.025390625,1.1298828125,7.080078125,5.37109375,-10.3759765625,0.0,0.0,0.0,0.02956552244722843,0.01646803878247738,-0.9772881269454956,0.2091953307390213
7.347007989883423,0.9301400703708024,3.743650162859261,156.05897619438937,-0.09912109375,-0.00439453125,0.9482421875,10.92529296875,-0.54931640625,-8.6669921875,0.0,0.0,0.0,0.030269740149378777,0.014710669405758381,-0.9776452779769897,0.20755015313625336
7.367810964584351,0.7909012213330976,3.5954948220252216,156.20628971440823,-0.1943359375,0.072265625,0.818359375,-4.39453125,-17.9443359375,-7.62939453125,0.0,0.0,0.0,0.02927476167678833,0.013217372819781303,-0.9779707789421082,0.2062559276819229
7.386680603027344,0.811973742304762,3.478507982251478,156.36118474440576,-0.04345703125,0.03076171875,1.02001953125,-6.591796875,-4.57763671875,-8.23974609375,0.0,0.0,0.0,0.028256108984351158,0.013148896396160126,-0.978278636932373,0.2049386203289032
7.407618045806885,0.7681436713488498,3.437258548863067,156.50926324561163,-0.06494140625,-0.01416015625,1.07470703125,0.9765625,2.25830078125,-6.9580078125,0.0,0.0,0.0,0.027998702600598335,0.012664919719099998,-0.9785585999488831,0.20366327464580536
7.422223329544067,0.7063010041694388,3.5256924231418068,156.60970800754586,-0.09326171875,0.04833984375,0.96728515625,-6.4697265625,-0.54931640625,-5.43212890625,0.0,0.0,0.0,0.02887461706995964,0.012268385849893093,-0.9787194728851318,0.20279023051261902
7.447053909301758,0.5433943223580233,3.4251381647374677,156.71531639249258,-0.0126953125,0.00732421875,1.1474609375,6.77490234375,1.15966796875,-6.16455078125,0.0,0.0,0.0,0.02831382118165493,0.010673240758478642,-0.9789493083953857,0.20184819400310516
7.466969013214111,0.31437674546617345,3.3468349551017376,156.79230628481696,-0.0927734375,0.0205078125,1.0927734375,5.37109375,-10.009765625,-4.39453125,0.0,0.0,0.0,0.02805394120514393,0.008560107089579105,-0.9791242480278015,0.20113562047481537
7.487074613571167,0.031808527805133255,3.2447607661636586,156.90072870770175,-0.02783203125,0.0361328125,0.94384765625,5.2490234375,0.6103515625,-5.79833984375,0.0,0.0,0.0,0.027683265507221222,0.005940409377217293,-0.9793572425842285,0.20014424622058868
7.507484197616577,-0.07084809150719439,3.188232839932164,157.00848177204787,-0.03759765625,0.06787109375,0.84130859375,-7.8125,0.8544921875,-4.69970703125,0.0,0.0,0.0,0.027384091168642044,0.0049385689198970795,-0.9795634746551514,0.19920146465301514
7.524801254272461,0.02372050827314708,3.189256301090608,157.08544434361556,-0.01806640625,-0.03271484375,1.13037109375,-2.99072265625,4.33349609375,-5.37109375,0.0,0.0,0.0,0.027232293039560318,0.005730456672608852,-0.9796923398971558,0.19856590032577515
7.543755054473877,0.2114841477870965,3.2280438781700527,157.1562324241736,-0.0771484375,-0.15234375,1.001953125,1.03759765625,3.2958984375,-2.62451171875,0.0,0.0,0.0,0.027243075892329216,0.007386083249002695,-0.9797948002815247,0.19800373911857605
7.566828727722168,0.3466588074850189,3.120099995413994,157.18079378442894,-0.20556640625,-0.14306640625,0.87109375,-1.46484375,-19.04296875,-0.48828125,0.0,0.0,0.0,0.0260882880538702,0.008349880576133728,-0.9798539280891418,0.19782812893390656
7.586909770965576,0.5992076400476056,2.8857566318776797,157.20304654074485,-0.02001953125,-0.06884765625,0.986328125,-4.21142578125,-12.02392578125,-1.15966796875,0.0,0.0,0.0,0.023650236427783966,0.01010063849389553,-0.9799262285232544,0.19769498705863953
7.608167886734009,0.7432871188552924,2.65559014246224,157.11545619482862,0.0595703125,-0.0859375,1.0283203125,-0.1220703125,-7.87353515625,9.765625,0.0,0.0,0.0,0.021424874663352966,0.01095257606357336,-0.9798114895820618,0.19847039878368378
7.6269471645355225,0.9897067904527183,2.270427237428758,156.70819933537743,0.10498046875,-0.09765625,0.93994140625,-12.20703125,-5.79833984375,25.69580078125,0.0,0.0,0.0,0.01766025647521019,0.012456392869353294,-0.9791505336761475,0.2019830197095871
7.646662712097168,1.214426844335308,1.9183331201487166,156.06285574183795,0.17041015625,-0.2255859375,1.13427734375,-4.08935546875,-6.2255859375,37.4755859375,0.0,0.0,0.0,0.014177627861499786,0.013837073929607868,-0.9780327677726746,0.20750796794891357
7.666785478591919,1.3357982386693765,1.695854435530949,155.1254532593887,0.103515625,-0.23681640625,1.126953125,2.685546875,-12.02392578125,51.45263671875,0.0,0.0,0.0,0.011940059252083302,0.01456893514841795,-0.9763219356536865,0.21550095081329346
7.687232971191406,1.3570482378377555,1.2838676700795348,153.8796267547784,0.10302734375,-0.177734375,0.9169921875,-1.03759765625,-12.39013671875,69.03076171875,0.0,0.0,0.0,0.008237188681960106,0.014066713862121105,-0.9739738702774048,0.2260737121105194
7.703256130218506,1.5235281224412927,1.2046113288894706,152.30469441520017,0.236328125,-0.16162109375,0.96337890625,-6.04248046875,2.44140625,82.275390625,0.0,0.0,0.0,0.007023754063993692,0.015423513948917389,-0.9707627296447754,0.23944242298603058
7.7299652099609375,1.7612278836244335,0.9100395706953953,150.45746975417023,0.029296875,-0.220703125,0.9384765625,-3.96728515625,-27.64892578125,95.703125,0.0,0.0,0.0,0.003759775310754776,0.016885148361325264,-0.9667755961418152,0.25504070520401
7.7524731159210205,1.9966913981846302,0.4799873817761206,147.8254563575058,0.2822265625,-0.1953125,0.966796875,-3.41796875,9.58251953125,113.09814453125,0.0,0.0,0.0,-0.0008040083339437842,0.01790160872042179,-0.9606662392616272,0.2771267592906952
7.7669758796691895,2.1127711034592314,0.5063168538920206,146.06216106099697,0.2451171875,-0.1787109375,0.9296875,-3.96728515625,-1.77001953125,120.91064453125,0.0,0.0,0.0,-0.001155302976258099,0.018922843039035797,-0.9562675356864929,0.2918784022331238
7.787121295928955,2.285770617068957,0.08859446376551473,143.54779084259687,0.2119140625,-0.2822265625,1.14697265625,-0.54931640625,-18.06640625,128.5400390625,0.0,0.0,0.0,-0.005504199769347906,0.01918685808777809,-0.9496356248855591,0.3127201199531555
7.807765245437622,2.3248713156331644,0.010796913244463562,140.9076358604418,0.37060546875,-0.2587890625,1.1533203125,4.150390625,-2.5634765625,135.009765625,0.0,0.0,0.0,-0.006698558107018471,0.019149363040924072,-0.9421775341033936,0.3344994783401489
7.826969623565674,2.4369154463253464,-0.10454949885208023,138.10862433857056,0.2314453125,-0.21630859375,0.90673828125,-3.47900390625,-0.79345703125,143.798828125,0.0,0.0,0.0,-0.00845357310026884,0.01953323930501938,-0.9337151050567627,0.3573837876319885
7.8488383293151855,2.476538867804471,-0.36679804713962466,135.18486624169824,0.20263671875,-0.25,0.93701171875,3.0517578125,-12.451171875,150.20751953125,0.0,0.0,0.0,-0.011196140199899673,0.01875855214893818,-0.9243014454841614,0.3810375928878784
7.867033004760742,2.727601467211919,-0.5101170003914864,132.0376653363181,0.22314453125,-0.14208984375,0.7119140625,-13.61083984375,1.64794921875,161.0107421875,0.0,0.0,0.0,-0.013739497400820255,0.01993708312511444,-0.9134542942047119,0.4062204360961914
7.886774301528931,2.9526382711172676,-0.692726643524273,128.76295845951216,0.2607421875,-0.3837890625,1.12255859375,6.89697265625,-26.42822265625,161.62109375,0.0,0.0,0.0,-0.016588522121310234,0.02061767503619194,-0.9014443755149841,0.43208542466163635
7.90688419342041,2.8927714495986945,-1.0293569990799942,125.40154916138209,0.404296875,-0.349609375,1.21533203125,12.0849609375,-16.357421875,169.0673828125,0.0,0.0,0.0,-0.019555944949388504,0.018310796469449997,-0.8884084820747375,0.45827147364616394
7.927030801773071,2.8995395267359423,-1.2058815306316815,121.88857796556943,0.408203125,-0.234375,0.9609375,-0.48828125,2.5634765625,179.62646484375,0.0,0.0,0.0,-0.021482590585947037,0.01700618676841259,-0.8739489912986755,0.4852448105812073
7.9467949867248535,2.931335337982821,-1.404469387471508,118.24344260931703,0.2236328125,-0.23681640625,0.8662109375,10.3759765625,-26.67236328125,185.791015625,0.0,0.0,0.0,-0.023641405627131462,0.015662945806980133,-0.8580752015113831,0.5127403140068054
7.967036724090576,3.3271021117027475,-1.5943031829511995,114.37242606702313,0.2509765625,-0.22265625,0.75341796875,-7.2021484375,-14.5263671875,194.64111328125,0.0,0.0,0.0,-0.027417952194809914,0.016859672963619232,-0.8402195572853088,0.5412901639938354
7.986982345581055,3.348160438687543,-1.6916411693084032,110.41795144326085,0.47119140625,-0.4169921875,1.25439453125,15.56396484375,-6.16455078125,200.25634765625,0.0,0.0,0.0,-0.028785083442926407,0.015569818206131458,-0.8210446834564209,0.5699251294136047
8.006954431533813,3.224979897997067,-2.060366263608897,106.44793130894762,0.4443359375,-0.25732421875,1.04248046875,19.22607421875,-22.88818359375,199.03564453125,0.0,0.0,0.0,-0.0312393456697464,0.011775986291468143,-0.8008381724357605,0.5979496836662292
8.02763056755066,3.0683860718868887,-2.2584532754834914,102.4031752447361,0.4951171875,-0.11376953125,0.84423828125,11.5966796875,-0.06103515625,206.6650390625,0.0,0.0,0.0,-0.03212615102529526,0.008518123999238014,-0.7792552709579468,0.6258247494697571
8.047427415847778,3.2703884897031927,-2.4985442432063714,98.26609551351353,0.3681640625,-0.12744140625,0.6884765625,2.74658203125,-27.03857421875,206.11572265625,0.0,0.0,0.0,-0.035147346556186676,0.007314952090382576,-0.7561504244804382,0.6534123420715332
8.06181001663208,3.470429576010645,-2.818022713095721,94.18349337111098,0.68359375,-0.26171875,1.14404296875,7.62939453125,-6.9580078125,202.81982421875,0.0,0.0,0.0,-0.03861171379685402,0.005438712425529957,-0.7323945760726929,0.6797629594802856
8.087789058685303,3.5171653588498692,-2.855915108507071,90.25498029638392,0.73291015625,-0.22607421875,1.1240234375,9.27734375,-1.5869140625,193.9697265625,0.0,0.0,0.0,-0.03929673507809639,0.004167786333709955,-0.7086642384529114,0.704438328742981
8.109580516815186,3.5111153053491186,-3.1738307457369572,86.4399303241491,0.5751953125,-0.2041015625,0.955078125,16.11328125,-23.8037109375,188.17138671875,0.0,0.0,0.0,-0.041271958500146866,0.0007996405474841595,-0.6848353743553162,0.7275277972221375
8.128261089324951,3.536534067788733,-2.9285227941486567,82.74029688850916,0.6298828125,-0.154296875,0.90771484375,13.00048828125,3.90625,187.07275390625,0.0,0.0,0.0,-0.040030114352703094,0.0012199367629364133,-0.6609822511672974,0.7493321895599365
8.146671056747437,3.8801536278560813,-3.1844890424933507,79.01177858286924,0.3525390625,-0.1064453125,0.60595703125,-8.544921875,-30.1513671875,184.814453125,0.0,0.0,0.0,-0.04377683252096176,0.00010181201650993899,-0.6362731456756592,0.7702208757400513
8.167413473129272,4.080521069139813,-3.6020535111757264,75.46511406388092,0.7783203125,-0.24169921875,1.138671875,7.50732421875,-8.7890625,172.4853515625,0.0,0.0,0.0,-0.04736405983567238,-0.0030637618619948626,-0.6121713519096375,0.789299488067627
8.187800884246826,4.036047999906568,-3.6194619558227963,72.10794631322541,0.7451171875,-0.1845703125,1.1484375,17.02880859375,-10.80322265625,164.55078125,0.0,0.0,0.0,-0.047030009329319,-0.004801152739673853,-0.5887877345085144,0.8069040179252625
8.207182168960571,4.02019128886156,-3.5160343222119974,68.8919107613899,0.75341796875,-0.1435546875,1.0419921875,9.3994140625,8.97216796875,157.16552734375,0.0,0.0,0.0,-0.046253710985183716,-0.005453245248645544,-0.5659018754959106,0.8231561183929443
8.227000951766968,4.076075896650605,-3.397392869111818,65.92625628414869,0.59228515625,-0.08837890625,0.91259765625,6.53076171875,-11.04736328125,142.333984375,0.0,0.0,0.0,-0.045943763107061386,-0.005514506250619888,-0.5444005727767944,0.8375481367111206
8.247629404067993,4.114676283858109,-3.469964909703673,63.33692473960769,0.63720703125,-0.10888671875,0.990234375,11.1083984375,-5.43212890625,120.30029296875,0.0,0.0,0.0,-0.04642518609762192,-0.006912979297339916,-0.5253493785858154,0.849591076374054
8.267366886138916,4.198559971489151,-3.1627752307916452,61.06915167100172,0.5361328125,-0.01953125,0.759765625,-6.16455078125,16.357421875,111.38916015625,0.0,0.0,0.0,-0.04555065557360649,-0.005150230135768652,-0.5083945989608765,0.8599032163619995
8.287259578704834,4.430645957504776,-3.2001489587128975,59.177025346368104,0.5126953125,0.0,0.84521484375,-4.5166015625,-13.671875,82.1533203125,0.0,0.0,0.0,-0.04737822338938713,-0.005184303969144821,-0.4941447377204895,0.8680722713470459
8.306981563568115,4.395357785157905,-3.5377827117463756,58.005811828251,0.75634765625,-0.01953125,1.2109375,10.31494140625,-6.591796875,45.654296875,0.0,0.0,0.0,-0.048477903008461,-0.008393218740820885,-0.4853017032146454,0.8729614615440369
8.331207036972046,4.0485088262736095,-3.511996186308639,57.400861973462966,0.6474609375,0.05615234375,1.0634765625,10.6201171875,-7.01904296875,12.02392578125,0.0,0.0,0.0,-0.045674946159124374,-0.009906647726893425,-0.4806544780731201,0.875663697719574
8.342375993728638,3.9680556011532064,-3.707724648485463,57.41845654076492,0.58935546875,0.11572265625,0.94189453125,2.8076171875,-2.38037109375,-7.99560546875,0.0,0.0,0.0,-0.04587967321276665,-0.011734524741768837,-0.4808078110218048,0.8755462169647217
8.362107753753662,3.898011584327903,-3.6296794919343123,57.89370793340358,0.6171875,0.091796875,0.98486328125,-1.03759765625,12.451171875,-30.1513671875,0.0,0.0,0.0,-0.045065347105264664,-0.011244559660553932,-0.48441800475120544,0.8736029267311096
8.381818771362305,3.7620993575811115,-3.869388395950495,58.779132676269015,0.49072265625,0.07275390625,0.943359375,2.13623046875,-4.638671875,-51.3916015625,0.0,0.0,0.0,-0.04514269158244133,-0.013300330378115177,-0.4911665916442871,0.8697934746742249
8.4074068069458,3.543574071832312,-3.914065943972018,60.08021541126474,0.58837890625,0.068359375,1.06103515625,10.1318359375,10.986328125,-73.18115234375,0.0,0.0,0.0,-0.04383737966418266,-0.014079691842198372,-0.5009889602661133,0.8642280697822571
8.424163103103638,3.1068641560195673,-3.9390644363342644,61.8266264801453,0.4921875,0.103515625,0.98388671875,8.60595703125,17.2119140625,-92.4072265625,0.0,0.0,0.0,-0.04089424014091492,-0.015556219965219498,-0.5140477418899536,0.8566449284553528
8.449488162994385,2.8233124811644843,-3.584213057063653,63.896119157145804,0.125,0.27685546875,0.89013671875,0.8544921875,24.59716796875,-106.62841796875,0.0,0.0,0.0,-0.03743686154484749,-0.013498486019670963,-0.5293846130371094,0.8474481105804443
8.466803789138794,2.394216091842188,-3.2791949514208665,66.16458207485795,-0.123046875,0.27197265625,1.11181640625,12.451171875,14.16015625,-116.14990234375,0.0,0.0,0.0,-0.03311244770884514,-0.012569737620651722,-0.5460013151168823,0.8370353579521179
8.487039804458618,1.7851767680103197,-2.99983274384794,68.46366473061926,-0.19140625,0.2841796875,1.03955078125,19.47021484375,8.4228515625,-115.66162109375,0.0,0.0,0.0,-0.027598006650805473,-0.012878160923719406,-0.5626189112663269,0.8261552453041077
8.507076740264893,1.3226841687412463,-2.719609718996181,70.81954040932924,-0.142578125,0.3759765625,0.91650390625,3.0517578125,19.59228515625,-117.67578125,0.0,0.0,0.0,-0.02315390110015869,-0.012654057703912258,-0.5794416069984436,0.8145866990089417
8.527371406555176,0.94783975855295,-2.3604169007343803,73.19767567454427,-0.20947265625,0.328125,1.013671875,8.60595703125,10.009765625,-118.95751953125,0.0,0.0,0.0,-0.01891881786286831,-0.011604954488575459,-0.5961984992027283,0.8025302290916443
8.547027111053467,0.5810303188712331,-2.1988238030385756,75.57418535473684,-0.25048828125,0.33837890625,1.02734375,6.89697265625,8.23974609375,-118.2861328125,0.0,0.0,0.0,-0.015762774273753166,-0.012057077139616013,-0.6126852631568909,0.7900778651237488
8.56707215309143,0.2770513091167876,-1.8045607381531101,77.95969039406633,-0.1630859375,0.3359375,0.98291015625,1.953125,17.15087890625,-117.3095703125,0.0,0.0,0.0,-0.011784871108829975,-0.010720578953623772,-0.628996729850769,0.7772447466850281
8.586840867996216,-0.02906497955375665,-1.620445411834306,80.34105633875879,-0.26806640625,0.3232421875,1.00341796875,6.04248046875,0.1220703125,-118.83544921875,0.0,0.0,0.0,-0.008927796967327595,-0.010968811810016632,-0.6449974775314331,0.7640538215637207
8.60707139968872,-0.31132981408568666,-1.4190484262549001,82.7033660556669,-0.1953125,0.33349609375,0.9912109375,3.90625,6.103515625,-118.10302734375,0.0,0.0,0.0,-0.006141996942460537,-0.011090492829680443,-0.6606007218360901,0.7506303191184998
8.627179861068726,-0.4604527205847668,-1.153760783962137,85.01821961822178,-0.251953125,0.3564453125,0.97900390625,-4.0283203125,6.8359375,-112.9150390625,0.0,0.0,0.0,-0.0038412194699048996,-0.01013696938753128,-0.6756379008293152,0.7371540069580078
8.647172451019287,-0.665165656284508,-1.0601722512941532,87.23789449469253,-0.3359375,0.30029296875,1.064453125,8.23974609375,-2.5634765625,-109.0087890625,0.0,0.0,0.0,-0.002180154202505946,-0.010701742954552174,-0.6897789835929871,0.7239377498626709
8.670344829559326,-0.9825900535026824,-0.9473626058064011,89.41065963194362,-0.17626953125,0.296875,0.95849609375,3.90625,7.8125,-105.3466796875,0.0,0.0,0.0,0.00027861964190378785,-0.011907263658940792,-0.7033605575561523,0.7107335329055786
8.688297986984253,-1.114948020560128,-0.638013413177886,91.41310717205127,-0.22314453125,0.3095703125,0.90087890625,-1.3427734375,-0.30517578125,-97.10693359375,0.0,0.0,0.0,0.002809390425682068,-0.010851995088160038,-0.7156898379325867,0.6983282566070557
8.707901954650879,-1.1650010341801567,-0.5781534218484826,93.19771265877054,-0.28955078125,0.322265625,1.083984375,-2.197265625,-3.23486328125,-84.28955078125,0.0,0.0,0.0,0.00331970676779747,-0.010852866806089878,-0.7264789342880249,0.6870951056480408
8.726081848144531,-1.3093445958488,-0.4735705791334523,94.71122793733201,-0.2099609375,0.27978515625,1.10107421875,2.0751953125,-0.42724609375,-68.78662109375,0.0,0.0,0.0,0.004700710065662861,-0.011204011738300323,-0.7354862093925476,0.6774308681488037
8.748792171478271,-1.5105389169089267,-0.40987906512308336,95.87394470012163,-0.181640625,0.23828125,0.93017578125,4.2724609375,-4.638671875,-51.45263671875,0.0,0.0,0.0,0.006175635382533073,-0.012182136997580528,-0.7423074841499329,0.6699202060699463
8.762048959732056,-1.6657651043595156,-0.3511669991414918,96.70218026906655,-0.1650390625,0.29541015625,0.91845703125,-0.42724609375,-1.77001953125,-36.1328125,0.0,0.0,0.0,0.007370430510491133,-0.012898067012429237,-0.7471190094947815,0.6645243763923645
8.787545204162598,-1.8615405240868836,-0.2979255678395366,97.27322506481462,-0.1669921875,0.30078125,1.05224609375,2.44140625,-2.01416015625,-23.13232421875,0.0,0.0,0.0,0.008783672004938126,-0.013909706845879555,-0.7504040598869324,0.6607747077941895
8.803173780441284,-2.0678527912694658,-0.21014280268776914,97.64881033708446,-0.1181640625,0.318359375,1.04931640625,2.5634765625,-0.18310546875,-16.4794921875,0.0,0.0,0.0,0.01049978006631136,-0.014789093285799026,-0.7525498270988464,0.6582854986190796
8.827008724212646,-2.2683850108669246,-0.1137744097080163,97.88805820333167,-0.12158203125,0.32763671875,1.02099609375,2.13623046875,-1.52587890625,-10.55908203125,0.0,0.0,0.0,0.012252135202288628,-0.015578081831336021,-0.753907322883606,0.6566817760467529
8.847221851348877,-2.450329937855251,-0.07974231181755342,98.04065828976809,-0.08544921875,0.32373046875,0.98583984375,0.48828125,1.03759765625,-5.4931640625,0.0,0.0,0.0,0.013496587052941322,-0.016598070040345192,-0.7547597885131836,0.6556523442268372
8.867158651351929,-2.636324526691161,-0.099980749297683,98.08499987785981,-0.095703125,0.31689453125,0.99072265625,0.9765625,-4.638671875,1.46484375,0.0,0.0,0.0,0.01442052237689495,-0.017944475635886192,-0.7549827098846436,0.6553404927253723
8.8851900100708,-2.8292880429145995,-0.15564571047601589,97.97035515264115,-0.048828125,0.31787109375,1.0146484375,1.03759765625,-5.67626953125,7.99560546875,0.0,0.0,0.0,0.015176833607256413,-0.01951892115175724,-0.7542871832847595,0.6560789942741394
8.903156995773315,-2.990580825730335,-0.21861016952553544,97.70255026547412,-0.00537109375,0.3212890625,1.00732421875,-0.8544921875,-2.44140625,15.5029296875,0.0,0.0,0.0,0.015734706073999405,-0.020904332399368286,-0.7527135610580444,0.6578280329704285
8.926764726638794,-3.137040145216095,-0.2702063123100977,97.32936238960296,-0.0244140625,0.314453125,1.0322265625,0.244140625,-3.96728515625,20.263671875,0.0,0.0,0.0,0.016308613121509552,-0.022109506651759148,-0.7505311369895935,0.6602638363838196
8.950236320495605,-3.1876356252666107,-0.27422422445021055,96.91509092587418,-0.0224609375,0.1845703125,0.93994140625,-11.3525390625,4.0283203125,23.25439453125,0.0,0.0,0.0,0.01665491983294487,-0.022403966635465622,-0.7481287121772766,0.6629661917686462
8.966787338256836,-3.1535568232896556,-0.11937703245727793,96.45156696804042,-0.02001953125,0.06884765625,1.08349609375,-2.9296875,3.60107421875,24.5361328125,0.0,0.0,0.0,0.01755477301776409,-0.021214883774518967,-0.7454739809036255,0.6659657955169678
8.989151239395142,-3.143903845001723,0.07514662837265959,95.9518020264706,-0.0166015625,0.0478515625,1.06689453125,-1.28173828125,0.8544921875,23.13232421875,0.0,0.0,0.0,0.018851326778531075,-0.019939597696065903,-0.7425956726074219,0.669177770614624
9.006813287734985,-2.837118427911196,0.07657666587959795,95.49907659771465,0.01220703125,-0.06640625,0.9140625,-6.65283203125,-1.28173828125,21.78955078125,0.0,0.0,0.0,0.017139757052063942,-0.017875518649816513,-0.7399968504905701,0.672154426574707
9.026859045028687,-2.4852243071077886,0.001815722664644246,95.07533166160705,0.03173828125,-0.1142578125,0.97998046875,-6.89697265625,0.42724609375,22.27783203125,0.0,0.0,0.0,0.014652004465460777,-0.01598750799894333,-0.7375480532646179,0.6749464869499207
9.052682399749756,-2.2146557546478425,-0.020847136401740646,94.60464966552313,-0.01318359375,-0.11669921875,1.03759765625,-1.3427734375,-1.708984375,23.86474609375,0.0,0.0,0.0,0.012971390970051289,-0.014326333068311214,-0.7348024845123291,0.6780057549476624
9.066879510879517,-1.9566272160606277,-0.040314167714635425,94.0813342316951,-0.0146484375,-0.1474609375,1.0126953125,-2.9296875,-2.8076171875,25.146484375,0.0,0.0,0.0,0.011378121562302113,-0.012735079973936081,-0.7317267656326294,0.681384265422821
9.087820291519165,-1.6518917094947505,-0.09180563318109258,93.5310395506455,-0.02099609375,-0.17041015625,0.9560546875,-6.77490234375,-2.86865234375,28.38134765625,0.0,0.0,0.0,0.009290422312915325,-0.011050843633711338,-0.7284727096557617,0.6849227547645569
9.10702896118164,-1.362504064880715,-0.19902887094875513,92.95405249031951,0.001953125,-0.1591796875,1.02099609375,-3.0517578125,-2.44140625,30.8837890625,0.0,0.0,0.0,0.006928549613803625,-0.009817259386181831,-0.7250317335128784,0.6886106729507446
9.126733779907227,-1.111235919467932,-0.3285057921771382,92.31140682150219,-0.00537109375,-0.158203125,1.01123046875,-0.42724609375,-8.9111328125,32.16552734375,0.0,0.0,0.0,0.00464976578950882,-0.008979548700153828,-0.7211687564849854,0.692685604095459
9.146715641021729,-0.8993901318405818,-0.48346192035124724,91.65097534008613,0.048828125,-0.1513671875,1.01806640625,0.0,-7.32421875,31.67724609375,0.0,0.0,0.0,0.0024433506187051535,-0.008569006808102131,-0.7171691656112671,0.6968423128128052
9.166710615158081,-0.6719036912615785,-0.6518507361060971,90.96468476247243,0.02978515625,-0.11279296875,0.9423828125,-3.0517578125,-4.8828125,35.15625,0.0,0.0,0.0,5.497285019373521e-05,-0.008169022388756275,-0.7129872441291809,0.7011294960975647
9.187130212783813,-0.4027810578324121,-0.7372491782681483,90.23558938933024,0.0556640625,-0.103515625,1.01318359375,-1.77001953125,3.5400390625,38.2080078125,0.0,0.0,0.0,-0.0020783476065844297,-0.00703037716448307,-0.7085240483283997,0.70564866065979
9.206726789474487,-0.22652445112308936,-0.7399175944386548,89.44666838924792,-0.0087890625,-0.11572265625,1.08642578125,3.60107421875,-0.54931640625,41.1376953125,0.0,0.0,0.0,-0.003139136591926217,-0.005978752858936787,-0.7036589980125427,0.7105057835578918
9.226736783981323,-0.025396364221613135,-0.7793147125406701,88.63224346280478,-0.01806640625,-0.052734375,0.94091796875,-4.45556640625,-8.11767578125,40.52734375,0.0,0.0,0.0,-0.004592549987137318,-0.005020739044994116,-0.6985993981361389,0.7154806852340698
9.246781349182129,0.2924031731325962,-0.8569130786705668,87.79080513819423,0.048828125,-0.0517578125,1.0380859375,-3.23486328125,-2.38037109375,41.80908203125,0.0,0.0,0.0,-0.007023463491350412,-0.003619459457695484,-0.6933361291885376,0.7205710411071777
9.266943454742432,0.4584903218588575,-1.0222938364262606,86.93365054830348,0.03466796875,-0.068359375,1.0693359375,1.89208984375,-8.72802734375,42.1142578125,0.0,0.0,0.0,-0.009040821343660355,-0.0037222583778202534,-0.6879274845123291,0.7257136106491089
9.287609338760376,0.602534315699372,-1.2220574462986815,86.07299890155768,0.060546875,-0.04150390625,0.9365234375,0.6103515625,-1.953125,43.15185546875,0.0,0.0,0.0,-0.011120885610580444,-0.0042063589207828045,-0.6824568510055542,0.7308292984962463
9.306737899780273,0.6805581812702194,-1.38136221717912,85.19125563065488,0.03759765625,-0.04150390625,1.01123046875,5.55419921875,-2.13623046875,44.43359375,0.0,0.0,0.0,-0.012530127540230751,-0.004854339640587568,-0.6768113970756531,0.7360337972640991
9.326790571212769,0.7284053105925983,-1.5252294798748605,84.28218477288286,0.0400390625,-0.0078125,0.99951171875,2.50244140625,-2.197265625,44.5556640625,0.0,0.0,0.0,-0.013642995618283749,-0.005604342557489872,-0.670948326587677,0.7413574457168579
9.346781015396118,0.6416648429803453,-1.6351937112430674,83.37897421741872,0.03662109375,0.01123046875,1.0087890625,-3.5400390625,-1.28173828125,45.95947265625,0.0,0.0,0.0,-0.013671346940100193,-0.006931711919605732,-0.66507488489151,0.7466193437576294
9.366714477539062,0.7392332415003312,-1.7284000734826483,82.44813554676188,0.03857421875,-0.02197265625,1.0029296875,1.220703125,-5.9814453125,46.0205078125,0.0,0.0,0.0,-0.014790763147175312,-0.0070931874215602875,-0.6589899659156799,0.7519728541374207
9.386826753616333,0.7456785921992961,-1.957169148882586,81.50788487542874,0.0478515625,0.009765625,0.86328125,-5.37109375,-0.8544921875,47.119140625,0.0,0.0,0.0,-0.016077572479844093,-0.008689802139997482,-0.6527870297431946,0.7573210597038269
9.402213096618652,0.7657611626281319,-1.9878311487272426,80.55093439157494,0.08642578125,0.0,1.05126953125,-1.5869140625,7.568359375,49.01123046875,0.0,0.0,0.0,-0.0163110438734293,-0.008914601057767868,-0.6464399099349976,0.7627384662628174
9.42683482170105,0.6643141237940778,-2.0825579751090917,79.57517356674691,0.044921875,-0.00048828125,1.08251953125,1.953125,-1.708984375,48.27880859375,0.0,0.0,0.0,-0.01608329452574253,-0.010254839435219765,-0.6399077773094177,0.7682149410247803
9.446934938430786,0.5642302413079703,-2.1266538898341056,78.62117372461455,0.0439453125,0.03662109375,0.91650390625,-5.615234375,-1.52587890625,47.42431640625,0.0,0.0,0.0,-0.015565484762191772,-0.011239367537200451,-0.6334777474403381,0.7735227346420288
9.466833114624023,0.5221586772590718,-2.0858144812393067,77.64541289978654,-0.001953125,0.0185546875,1.03369140625,-3.90625,-5.92041015625,49.98779296875,0.0,0.0,0.0,-0.014959889464080334,-0.0113240210339427,-0.62686687707901,0.7789005041122437
9.487756252288818,0.5125130094079857,-2.010522104367083,76.63117761936383,0.01416015625,0.00341796875,1.0068359375,-3.96728515625,-6.7138671875,51.3916015625,0.0,0.0,0.0,-0.01438579335808754,-0.01099269650876522,-0.6199524402618408,0.7844305634498596
9.506778001785278,0.409222459828263,-1.972462155877656,75.59817297910193,0.01025390625,0.0048828125,1.009765625,3.47900390625,-8.7890625,51.81884765625,0.0,0.0,0.0,-0.013370513916015625,-0.011411929503083229,-0.6128482818603516,0.7900051474571228
9.526760816574097,0.2746718419646844,-2.02677752770489,74.55934218747801,0.037109375,0.04541015625,0.98388671875,-2.5634765625,-5.4931640625,51.8798828125,0.0,0.0,0.0,-0.012619453482329845,-0.012620916590094566,-0.6056433916091919,0.7955360412597656
9.546804428100586,0.19626802044082872,-2.142688826127768,73.49943343207543,0.068359375,0.03466796875,1.0634765625,-1.89208984375,-3.72314453125,52.734375,0.0,0.0,0.0,-0.012559143826365471,-0.013956792652606964,-0.598240852355957,0.8010963797569275
9.566710233688354,0.059923557445409385,-2.2249693402945616,72.3961256546866,0.02392578125,0.04052734375,1.02490234375,-0.6103515625,-8.4228515625,55.419921875,0.0,0.0,0.0,-0.011888169683516026,-0.01535898819565773,-0.5904751420021057,0.8068221211433411
9.586913108825684,-0.01000407435715987,-2.315655469452113,71.29209387724573,0.0927734375,0.03173828125,1.01220703125,-0.91552734375,-0.67138671875,53.955078125,0.0,0.0,0.0,-0.011704955250024796,-0.01647135429084301,-0.5826557874679565,0.8124678134918213
9.606785535812378,-0.06529534781517235,-2.553821604489519,70.22486998924207,0.068359375,0.00537109375,0.9951171875,5.06591796875,-6.04248046875,52.8564453125,0.0,0.0,0.0,-0.012351629324257374,-0.018556898459792137,-0.5750294923782349,0.8178289532661438
9.621997833251953,-0.28722090050198124,-2.7692831235087447,69.15583610110835,0.07568359375,0.021484375,0.98828125,9.21630859375,-0.9765625,53.28369140625,0.0,0.0,0.0,-0.01165066473186016,-0.021317731589078903,-0.5673090815544128,0.8231465816497803
