time,orientation.x,orientation.y,orientation.z,orientation.w,orientation_covariance,angular_velocity.x,angular_velocity.y,angular_velocity.z,angular_velocity_covariance,linear_acceleration.x,linear_acceleration.y,linear_acceleration.z,linear_acceleration_covariance
0.0075032711029052734,0.025277920067310333,0.00249339547008276,-0.896601676940918,0.44210898876190186,[0. 0. 0. 0. 0. 0. 0. 0. 0.],-0.30517578125,-0.9765625,-0.30517578125,[0. 0. 0. 0. 0. 0. 0. 0. 0.],-0.0478515625,0.01806640625,1.00341796875,[0. 0. 0. 0. 0. 0. 0. 0. 0.]
0.02664017677307129,0.025476820766925812,0.0016533397138118744,-0.8966025710105896,0.44209957122802734,[0. 0. 0. 0. 0. 0. 0. 0. 0.],-0.06103515625,-0.30517578125,-0.18310546875,[0. 0. 0. 0. 0. 0. 0. 0. 0.],-0.04736328125,0.01953125,1.00146484375,[0. 0. 0. 0. 0. 0. 0. 0. 0.]
0.04889965057373047,0.02654881961643696,0.0019434065325185657,-0.8965878486633301,0.44206514954566956,[0. 0. 0. 0. 0. 0. 0. 0. 0.],-0.1220703125,-0.1220703125,0.1220703125,[0. 0. 0. 0. 0. 0. 0. 0. 0.],-0.04931640625,0.02001953125,1.00341796875,[0. 0. 0. 0. 0. 0. 0. 0. 0.]
0.06439495086669922,0.026249157264828682,0.002127852523699403,-0.8966091871261597,0.4420391619205475,[0. 0. 0. 0. 0. 0. 0. 0. 0.],-0.18310546875,-0.732421875,0.0,[0. 0. 0. 0. 0. 0. 0. 0. 0.],-0.04931640625,0.01953125,1.00439453125,[0. 0. 0. 0. 0. 0. 0. 0. 0.]
0.08238983154296875,0.0262941624969244,0.001953155966475606,-0.89662766456604,0.44199973344802856,[0. 0. 0. 0. 0. 0. 0. 0. 0.],0.0,-0.9765625,-0.3662109375,[0. 0. 0. 0. 0. 0. 0. 0. 0.],-0.048828125,0.01953125,1.00537109375,[0. 0. 0. 0. 0. 0. 0. 0. 0.]
0.1079108715057373,0.025599317625164986,0.0018087702337652445,-0.8966509699821472,0.44199374318122864,[0. 0. 0. 0. 0. 0. 0. 0. 0.],0.30517578125,-0.67138671875,-0.244140625,[0. 0. 0. 0. 0. 0. 0. 0. 0.],-0.04736328125,0.01953125,1.00439453125,[0. 0. 0. 0. 0. 0. 0. 0. 0.]
0.12685513496398926,0.026313576847314835,0.0019358100835233927,-0.8966415524482727,0.441970556974411,[0. 0. 0. 0. 0. 0. 0. 0. 0.],-0.30517578125,-0.42724609375,-0.18310546875,[0. 0. 0. 0. 0. 0. 0. 0. 0.],-0.048828125,0.01953125,1.00537109375,[0. 0. 0. 0. 0. 0. 0. 0. 0.]
0.14698457717895508,0.025840850546956062,0.0013057836331427097,-0.8966599106788635,0.44196343421936035,[0. 0. 0. 0. 0. 0. 0. 0. 0.],-0.48828125,-0.54931640625,-0.244140625,[0. 0. 0. 0. 0. 0. 0. 0. 0.],-0.04736328125,0.02001953125,1.0029296875,[0. 0. 0. 0. 0. 0. 0. 0. 0.]
0.16664814949035645,0.025719771161675453,0.0018525875639170408,-0.8966808319091797,0.44192591309547424,[0. 0. 0. 0. 0. 0. 0. 0. 0.],0.06103515625,-0.30517578125,-0.06103515625,[0. 0. 0. 0. 0. 0. 0. 0. 0.],-0.0478515625,0.02001953125,1.00537109375,[0. 0. 0. 0. 0. 0. 0. 0. 0.]
0.18221735954284668,0.02620815485715866,0.0012755787465721369,-0.8966777324676514,0.44190579652786255,[0. 0. 0. 0. 0. 0. 0. 0. 0.],0.3662109375,-0.67138671875,-0.18310546875,[0. 0. 0. 0. 0. 0. 0. 0. 0.],-0.0478515625,0.0205078125,1.00439453125,[0. 0. 0. 0. 0. 0. 0. 0. 0.]
0.2077317237854004,0.02601984702050686,0.001926788710989058,-0.8966944217681885,0.4418805241584778,[0. 0. 0. 0. 0. 0. 0. 0. 0.],-0.244140625,-1.220703125,-0.06103515625,[0. 0. 0. 0. 0. 0. 0. 0. 0.],-0.048828125,0.01953125,1.001953125,[0. 0. 0. 0. 0. 0. 0. 0. 0.]
0.22710061073303223,0.02640908770263195,0.0013554963516071439,-0.8966941237449646,0.441860169172287,[0. 0. 0. 0. 0. 0. 0. 0. 0.],-0.06103515625,-0.79345703125,-0.3662109375,[0. 0. 0. 0. 0. 0. 0. 0. 0.],-0.048828125,0.02099609375,1.00244140625,[0. 0. 0. 0. 0. 0. 0. 0. 0.]
0.24719667434692383,0.026621278375387192,0.001060666050761938,-0.8967000246047974,0.4418363571166992,[0. 0. 0. 0. 0. 0. 0. 0. 0.],0.0,-0.18310546875,-0.18310546875,[0. 0. 0. 0. 0. 0. 0. 0. 0.],-0.048828125,0.021484375,1.00244140625,[0. 0. 0. 0. 0. 0. 0. 0. 0.]
0.2626028060913086,0.026671359315514565,0.0012475157855078578,-0.8967103958129883,0.4418119192123413,[0. 0. 0. 0. 0. 0. 0. 0. 0.],-0.18310546875,-0.54931640625,-0.06103515625,[0. 0. 0. 0. 0. 0. 0. 0. 0.],-0.04931640625,0.021484375,1.00537109375,[0. 0. 0. 0. 0. 0. 0. 0. 0.]
0.2880058288574219,0.026884064078330994,0.0016300383722409606,-0.8967257142066956,0.44176650047302246,[0. 0. 0. 0. 0. 0. 0. 0. 0.],-0.06103515625,-0.91552734375,-0.1220703125,[0. 0. 0. 0. 0. 0. 0. 0. 0.],-0.0498046875,0.02099609375,1.00439453125,[0. 0. 0. 0. 0. 0. 0. 0. 0.]
0.31292128562927246,0.02604830078780651,0.0014994106022641063,-0.896760880947113,0.441745787858963,[0. 0. 0. 0. 0. 0. 0. 0. 0.],0.30517578125,-0.732421875,-0.244140625,[0. 0. 0. 0. 0. 0. 0. 0. 0.],-0.04833984375,0.02001953125,1.005859375,[0. 0. 0. 0. 0. 0. 0. 0. 0.]
0.3266637325286865,0.026438172906637192,0.0016443112399429083,-0.8967579007148743,0.4417280852794647,[0. 0. 0. 0. 0. 0. 0. 0. 0.],-0.06103515625,-0.3662109375,-0.18310546875,[0. 0. 0. 0. 0. 0. 0. 0. 0.],-0.04931640625,0.0205078125,1.0029296875,[0. 0. 0. 0. 0. 0. 0. 0. 0.]
0.3470182418823242,0.026757916435599327,0.0011689224047586322,-0.8967572450637817,0.4417116045951843,[0. 0. 0. 0. 0. 0. 0. 0. 0.],-0.54931640625,-0.48828125,-0.244140625,[0. 0. 0. 0. 0. 0. 0. 0. 0.],-0.04931640625,0.021484375,1.00439453125,[0. 0. 0. 0. 0. 0. 0. 0. 0.]
0.38532042503356934,0.025787170976400375,0.00227973866276443,-0.8968174457550049,0.4416428208351135,[0. 0. 0. 0. 0. 0. 0. 0. 0.],0.18310546875,-0.732421875,-0.244140625,[0. 0. 0. 0. 0. 0. 0. 0. 0.],-0.048828125,0.01904296875,1.00390625,[0. 0. 0. 0. 0. 0. 0. 0. 0.]
0.39098620414733887,0.025787170976400375,0.00227973866276443,-0.8968174457550049,0.4416428208351135,[0. 0. 0. 0. 0. 0. 0. 0. 0.],0.18310546875,-0.732421875,-0.244140625,[0. 0. 0. 0. 0. 0. 0. 0. 0.],-0.048828125,0.01904296875,1.00390625,[0. 0. 0. 0. 0. 0. 0. 0. 0.]
0.4076690673828125,0.026445040479302406,0.0020147457253187895,-0.8968116641044617,0.4416169822216034,[0. 0. 0. 0. 0. 0. 0. 0. 0.],0.244140625,-0.91552734375,-0.18310546875,[0. 0. 0. 0. 0. 0. 0. 0. 0.],-0.0498046875,0.01953125,1.00537109375,[0. 0. 0. 0. 0. 0. 0. 0. 0.]
0.425386905670166,0.026301871985197067,0.0015235522296279669,-0.8968208432197571,0.44160881638526917,[0. 0. 0. 0. 0. 0. 0. 0. 0.],-0.54931640625,-0.54931640625,-0.18310546875,[0. 0. 0. 0. 0. 0. 0. 0. 0.],-0.048828125,0.0205078125,1.0048828125,[0. 0. 0. 0. 0. 0. 0. 0. 0.]
0.4566314220428467,0.025820912793278694,0.0022370151709765196,-0.8968600630760193,0.4415545165538788,[0. 0. 0. 0. 0. 0. 0. 0. 0.],-0.18310546875,-0.30517578125,-0.1220703125,[0. 0. 0. 0. 0. 0. 0. 0. 0.],-0.0478515625,0.01904296875,1.00048828125,[0. 0. 0. 0. 0. 0. 0. 0. 0.]
0.4659743309020996,0.025740742683410645,0.0025147919077426195,-0.8968681693077087,0.44154122471809387,[0. 0. 0. 0. 0. 0. 0. 0. 0.],0.30517578125,-0.42724609375,0.06103515625,[0. 0. 0. 0. 0. 0. 0. 0. 0.],-0.04833984375,0.0185546875,1.00341796875,[0. 0. 0. 0. 0. 0. 0. 0. 0.]
0.48923468589782715,0.025498926639556885,0.002543921349570155,-0.8968850374221802,0.4415208101272583,[0. 0. 0. 0. 0. 0. 0. 0. 0.],-0.06103515625,-1.15966796875,-0.18310546875,[0. 0. 0. 0. 0. 0. 0. 0. 0.],-0.048828125,0.0185546875,1.0068359375,[0. 0. 0. 0. 0. 0. 0. 0. 0.]
0.506859540939331,0.025409018620848656,0.0016865989891812205,-0.8968920111656189,0.4415159225463867,[0. 0. 0. 0. 0. 0. 0. 0. 0.],0.0,-1.03759765625,-0.244140625,[0. 0. 0. 0. 0. 0. 0. 0. 0.],-0.04736328125,0.01953125,1.0048828125,[0. 0. 0. 0. 0. 0. 0. 0. 0.]
0.5268914699554443,0.02682439051568508,0.0014650332741439342,-0.8968690633773804,0.4414794445037842,[0. 0. 0. 0. 0. 0. 0. 0. 0.],-0.1220703125,-0.30517578125,-0.244140625,[0. 0. 0. 0. 0. 0. 0. 0. 0.],-0.04931640625,0.02099609375,1.001953125,[0. 0. 0. 0. 0. 0. 0. 0. 0.]
0.551811695098877,0.02668623998761177,0.001287364400923252,-0.8968852162361145,0.44145578145980835,[0. 0. 0. 0. 0. 0. 0. 0. 0.],-0.1220703125,-0.18310546875,0.06103515625,[0. 0. 0. 0. 0. 0. 0. 0. 0.],-0.048828125,0.02099609375,1.0029296875,[0. 0. 0. 0. 0. 0. 0. 0. 0.]
0.5676217079162598,0.02641277015209198,0.0018658472690731287,-0.8969086408615112,0.4414224922657013,[0. 0. 0. 0. 0. 0. 0. 0. 0.],-0.1220703125,-0.91552734375,-0.06103515625,[0. 0. 0. 0. 0. 0. 0. 0. 0.],-0.048828125,0.0205078125,1.00439453125,[0. 0. 0. 0. 0. 0. 0. 0. 0.]
0.5872979164123535,0.02682972513139248,0.0014576534740626812,-0.8969051241874695,0.44140613079071045,[0. 0. 0. 0. 0. 0. 0. 0. 0.],0.1220703125,-1.03759765625,-0.244140625,[0. 0. 0. 0. 0. 0. 0. 0. 0.],-0.04931640625,0.0205078125,1.00439453125,[0. 0. 0. 0. 0. 0. 0. 0. 0.]
0.6213092803955078,0.026264775544404984,0.002091034548357129,-0.8969444036483765,0.44135767221450806,[0. 0. 0. 0. 0. 0. 0. 0. 0.],-0.06103515625,-0.3662109375,-0.06103515625,[0. 0. 0. 0. 0. 0. 0. 0. 0.],-0.048828125,0.01953125,1.00439453125,[0. 0. 0. 0. 0. 0. 0. 0. 0.]
0.6267678737640381,0.026780515909194946,0.0015426549362018704,-0.8969365954399109,0.4413449168205261,[0. 0. 0. 0. 0. 0. 0. 0. 0.],-0.30517578125,-0.8544921875,-0.244140625,[0. 0. 0. 0. 0. 0. 0. 0. 0.],-0.0498046875,0.0205078125,1.00341796875,[0. 0. 0. 0. 0. 0. 0. 0. 0.]
0.6479713916778564,0.026607003062963486,0.0014061115216463804,-0.8969467282295227,0.44133520126342773,[0. 0. 0. 0. 0. 0. 0. 0. 0.],-0.3662109375,-0.42724609375,-0.1220703125,[0. 0. 0. 0. 0. 0. 0. 0. 0.],-0.048828125,0.021484375,1.00390625,[0. 0. 0. 0. 0. 0. 0. 0. 0.]
0.6690106391906738,0.026261113584041595,0.0017306581139564514,-0.8969668745994568,0.441313773393631,[0. 0. 0. 0. 0. 0. 0. 0. 0.],0.244140625,-0.3662109375,0.0,[0. 0. 0. 0. 0. 0. 0. 0. 0.],-0.048828125,0.02001953125,1.00439453125,[0. 0. 0. 0. 0. 0. 0. 0. 0.]
0.6875026226043701,0.02667822130024433,0.002420989330857992,-0.8969752788543701,0.44126835465431213,[0. 0. 0. 0. 0. 0. 0. 0. 0.],0.30517578125,-0.6103515625,-0.1220703125,[0. 0. 0. 0. 0. 0. 0. 0. 0.],-0.05029296875,0.02001953125,1.0048828125,[0. 0. 0. 0. 0. 0. 0. 0. 0.]
0.7073678970336914,0.025954265147447586,0.0015872200019657612,-0.8969974517822266,0.4412704408168793,[0. 0. 0. 0. 0. 0. 0. 0. 0.],-0.244140625,-1.15966796875,-0.244140625,[0. 0. 0. 0. 0. 0. 0. 0. 0.],-0.04833984375,0.02001953125,1.00439453125,[0. 0. 0. 0. 0. 0. 0. 0. 0.]
0.7268121242523193,0.02605845220386982,0.0019821543246507645,-0.897011935710907,0.44123315811157227,[0. 0. 0. 0. 0. 0. 0. 0. 0.],-0.1220703125,-0.48828125,-0.18310546875,[0. 0. 0. 0. 0. 0. 0. 0. 0.],-0.048828125,0.01953125,1.00439453125,[0. 0. 0. 0. 0. 0. 0. 0. 0.]
0.7468981742858887,0.026575781404972076,0.0026858397759497166,-0.8970160484313965,0.44119003415107727,[0. 0. 0. 0. 0. 0. 0. 0. 0.],-0.1220703125,-0.06103515625,-0.06103515625,[0. 0. 0. 0. 0. 0. 0. 0. 0.],-0.05029296875,0.01953125,1.00537109375,[0. 0. 0. 0. 0. 0. 0. 0. 0.]
0.761868953704834,0.026674766093492508,0.0023144157603383064,-0.8970217108726501,0.4411749243736267,[0. 0. 0. 0. 0. 0. 0. 0. 0.],-0.18310546875,-0.67138671875,-0.1220703125,[0. 0. 0. 0. 0. 0. 0. 0. 0.],-0.05029296875,0.01953125,1.005859375,[0. 0. 0. 0. 0. 0. 0. 0. 0.]
0.788947582244873,0.02694893628358841,0.002796010347083211,-0.8970265984535217,0.44114550948143005,[0. 0. 0. 0. 0. 0. 0. 0. 0.],-0.06103515625,-1.0986328125,-0.1220703125,[0. 0. 0. 0. 0. 0. 0. 0. 0.],-0.05078125,0.0185546875,1.005859375,[0. 0. 0. 0. 0. 0. 0. 0. 0.]
0.8092548847198486,0.025482159107923508,0.001647435245104134,-0.897064745426178,0.44116082787513733,[0. 0. 0. 0. 0. 0. 0. 0. 0.],0.1220703125,-0.8544921875,-0.244140625,[0. 0. 0. 0. 0. 0. 0. 0. 0.],-0.046875,0.01953125,1.00537109375,[0. 0. 0. 0. 0. 0. 0. 0. 0.]
0.8272180557250977,0.026246363297104836,0.0012097656726837158,-0.8970537781715393,0.4411398470401764,[0. 0. 0. 0. 0. 0. 0. 0. 0.],-0.244140625,-0.3662109375,-0.18310546875,[0. 0. 0. 0. 0. 0. 0. 0. 0.],-0.048828125,0.021484375,1.00244140625,[0. 0. 0. 0. 0. 0. 0. 0. 0.]
0.848513126373291,0.026201745495200157,0.001725635607726872,-0.8970689177513123,0.4411097764968872,[0. 0. 0. 0. 0. 0. 0. 0. 0.],-0.42724609375,-0.42724609375,-0.1220703125,[0. 0. 0. 0. 0. 0. 0. 0. 0.],-0.048828125,0.0205078125,1.00390625,[0. 0. 0. 0. 0. 0. 0. 0. 0.]
0.8689656257629395,0.026630906388163567,0.0014990774216130376,-0.8970697522163391,0.4410833418369293,[0. 0. 0. 0. 0. 0. 0. 0. 0.],0.0,-0.6103515625,-0.06103515625,[0. 0. 0. 0. 0. 0. 0. 0. 0.],-0.04931640625,0.02099609375,1.0029296875,[0. 0. 0. 0. 0. 0. 0. 0. 0.]
0.8882560729980469,0.02627221867442131,0.0015551894903182983,-0.8970916867256165,0.44106003642082214,[0. 0. 0. 0. 0. 0. 0. 0. 0.],0.42724609375,-0.8544921875,-0.18310546875,[0. 0. 0. 0. 0. 0. 0. 0. 0.],-0.048828125,0.02001953125,1.00390625,[0. 0. 0. 0. 0. 0. 0. 0. 0.]
0.907153844833374,0.026413260027766228,0.0024318560026586056,-0.8971090316772461,0.44101226329803467,[0. 0. 0. 0. 0. 0. 0. 0. 0.],-0.06103515625,-0.91552734375,-0.18310546875,[0. 0. 0. 0. 0. 0. 0. 0. 0.],-0.04931640625,0.01904296875,1.001953125,[0. 0. 0. 0. 0. 0. 0. 0. 0.]
0.926764965057373,0.02546638995409012,0.001383397844620049,-0.8971325755119324,0.44102463126182556,[0. 0. 0. 0. 0. 0. 0. 0. 0.],-0.54931640625,-0.6103515625,-0.18310546875,[0. 0. 0. 0. 0. 0. 0. 0. 0.],-0.046875,0.0205078125,1.00390625,[0. 0. 0. 0. 0. 0. 0. 0. 0.]
0.9523215293884277,0.025838837027549744,0.0015198265900835395,-0.8971351981163025,0.4409972131252289,[0. 0. 0. 0. 0. 0. 0. 0. 0.],-0.18310546875,-0.244140625,-0.1220703125,[0. 0. 0. 0. 0. 0. 0. 0. 0.],-0.0478515625,0.02001953125,1.00439453125,[0. 0. 0. 0. 0. 0. 0. 0. 0.]
0.9672183990478516,0.026010625064373016,0.0023449037689715624,-0.8971508741378784,0.44095149636268616,[0. 0. 0. 0. 0. 0. 0. 0. 0.],0.30517578125,-0.42724609375,0.0,[0. 0. 0. 0. 0. 0. 0. 0. 0.],-0.04931640625,0.0185546875,1.00439453125,[0. 0. 0. 0. 0. 0. 0. 0. 0.]
0.9867699146270752,0.02607351541519165,0.0026128750760108232,-0.8971631526947021,0.44092151522636414,[0. 0. 0. 0. 0. 0. 0. 0. 0.],-0.06103515625,-1.15966796875,-0.1220703125,[0. 0. 0. 0. 0. 0. 0. 0. 0.],-0.04931640625,0.01806640625,1.0029296875,[0. 0. 0. 0. 0. 0. 0. 0. 0.]
1.0069568157196045,0.024721039459109306,0.0021079133730381727,-0.8971987366676331,0.4409295618534088,[0. 0. 0. 0. 0. 0. 0. 0. 0.],-0.244140625,-0.8544921875,-0.30517578125,[0. 0. 0. 0. 0. 0. 0. 0. 0.],-0.04638671875,0.01806640625,1.00341796875,[0. 0. 0. 0. 0. 0. 0. 0. 0.]
1.0300686359405518,0.025462977588176727,0.0020714220590889454,-0.8971897959709167,0.4409056305885315,[0. 0. 0. 0. 0. 0. 0. 0. 0.],-0.244140625,-0.18310546875,-0.1220703125,[0. 0. 0. 0. 0. 0. 0. 0. 0.],-0.04833984375,0.0205078125,1.00537109375,[0. 0. 0. 0. 0. 0. 0. 0. 0.]
1.0432674884796143,0.026969484984874725,0.0011693602427840233,-0.8971587419509888,0.44088277220726013,[0. 0. 0. 0. 0. 0. 0. 0. 0.],-0.06103515625,-0.18310546875,-0.1220703125,[0. 0. 0. 0. 0. 0. 0. 0. 0.],-0.0498046875,0.02197265625,1.00390625,[0. 0. 0. 0. 0. 0. 0. 0. 0.]
1.0682616233825684,0.02585209719836712,0.0012219336349517107,-0.8971968293190002,0.44087207317352295,[0. 0. 0. 0. 0. 0. 0. 0. 0.],-0.30517578125,-0.67138671875,-0.1220703125,[0. 0. 0. 0. 0. 0. 0. 0. 0.],-0.0478515625,0.02099609375,1.00390625,[0. 0. 0. 0. 0. 0. 0. 0. 0.]
1.086273193359375,0.02603190764784813,0.0022997483611106873,-0.8972179889678955,0.44081395864486694,[0. 0. 0. 0. 0. 0. 0. 0. 0.],0.244140625,-0.732421875,-0.18310546875,[0. 0. 0. 0. 0. 0. 0. 0. 0.],-0.048828125,0.01904296875,1.005859375,[0. 0. 0. 0. 0. 0. 0. 0. 0.]
1.1072046756744385,0.02582145668566227,0.0013638271484524012,-0.8972263336181641,0.4408133327960968,[0. 0. 0. 0. 0. 0. 0. 0. 0.],0.244140625,-0.732421875,-0.3662109375,[0. 0. 0. 0. 0. 0. 0. 0. 0.],-0.0478515625,0.0205078125,1.00341796875,[0. 0. 0. 0. 0. 0. 0. 0. 0.]
1.1269385814666748,0.02672717534005642,0.001691320794634521,-0.8972162008285522,0.44077879190444946,[0. 0. 0. 0. 0. 0. 0. 0. 0.],-0.42724609375,-0.91552734375,-0.1220703125,[0. 0. 0. 0. 0. 0. 0. 0. 0.],-0.048828125,0.0205078125,1.0009765625,[0. 0. 0. 0. 0. 0. 0. 0. 0.]
1.1468682289123535,0.02639821358025074,0.0016310893697664142,-0.8972371816635132,0.44075629115104675,[0. 0. 0. 0. 0. 0. 0. 0. 0.],-0.3662109375,-0.48828125,-0.06103515625,[0. 0. 0. 0. 0. 0. 0. 0. 0.],-0.048828125,0.02001953125,1.00390625,[0. 0. 0. 0. 0. 0. 0. 0. 0.]
1.1628897190093994,0.025904061272740364,0.0021737071219831705,-0.8972673416137695,0.4407218396663666,[0. 0. 0. 0. 0. 0. 0. 0. 0.],0.1220703125,-0.42724609375,-0.06103515625,[0. 0. 0. 0. 0. 0. 0. 0. 0.],-0.048828125,0.01953125,1.00537109375,[0. 0. 0. 0. 0. 0. 0. 0. 0.]
1.1868507862091064,0.026222264394164085,0.002108862856402993,-0.8972730040550232,0.44069167971611023,[0. 0. 0. 0. 0. 0. 0. 0. 0.],0.30517578125,-0.8544921875,-0.18310546875,[0. 0. 0. 0. 0. 0. 0. 0. 0.],-0.048828125,0.01953125,1.001953125,[0. 0. 0. 0. 0. 0. 0. 0. 0.]
1.2100727558135986,0.026591883972287178,0.0014247638173401356,-0.8972638249397278,0.4406910240650177,[0. 0. 0. 0. 0. 0. 0. 0. 0.],-0.3662109375,-0.9765625,-0.18310546875,[0. 0. 0. 0. 0. 0. 0. 0. 0.],-0.04931640625,0.02099609375,1.0048828125,[0. 0. 0. 0. 0. 0. 0. 0. 0.]
1.226651668548584,0.025884350761771202,0.0013836486032232642,-0.897288978099823,0.44068214297294617,[0. 0. 0. 0. 0. 0. 0. 0. 0.],-0.18310546875,-0.54931640625,-0.18310546875,[0. 0. 0. 0. 0. 0. 0. 0. 0.],-0.04833984375,0.0205078125,1.00439453125,[0. 0. 0. 0. 0. 0. 0. 0. 0.]
1.2489066123962402,0.025746909901499748,0.0012798667885363102,-0.8972996473312378,0.4406685531139374,[0. 0. 0. 0. 0. 0. 0. 0. 0.],-0.06103515625,-0.1220703125,0.06103515625,[0. 0. 0. 0. 0. 0. 0. 0. 0.],-0.04736328125,0.02001953125,1.00439453125,[0. 0. 0. 0. 0. 0. 0. 0. 0.]
1.2618513107299805,0.02544017694890499,0.0022841941099613905,-0.8973321318626404,0.4406163990497589,[0. 0. 0. 0. 0. 0. 0. 0. 0.],0.0,-0.79345703125,-0.18310546875,[0. 0. 0. 0. 0. 0. 0. 0. 0.],-0.0478515625,0.01904296875,1.001953125,[0. 0. 0. 0. 0. 0. 0. 0. 0.]
1.2866129875183105,0.02569589763879776,0.002614896511659026,-0.8973431587219238,0.4405772089958191,[0. 0. 0. 0. 0. 0. 0. 0. 0.],-0.1220703125,-1.15966796875,-0.18310546875,[0. 0. 0. 0. 0. 0. 0. 0. 0.],-0.048828125,0.01806640625,1.0048828125,[0. 0. 0. 0. 0. 0. 0. 0. 0.]
1.3070673942565918,0.026212098076939583,0.002017381601035595,-0.8973370790481567,0.44056227803230286,[0. 0. 0. 0. 0. 0. 0. 0. 0.],0.18310546875,-0.6103515625,-0.244140625,[0. 0. 0. 0. 0. 0. 0. 0. 0.],-0.048828125,0.01904296875,1.005859375,[0. 0. 0. 0. 0. 0. 0. 0. 0.]
1.327019453048706,0.02670716494321823,0.0012777326628565788,-0.8973338603973389,0.4405418038368225,[0. 0. 0. 0. 0. 0. 0. 0. 0.],-0.1220703125,-0.30517578125,-0.244140625,[0. 0. 0. 0. 0. 0. 0. 0. 0.],-0.04931640625,0.021484375,1.0029296875,[0. 0. 0. 0. 0. 0. 0. 0. 0.]
1.347376823425293,0.026423245668411255,0.001474040444009006,-0.8973561525344849,0.4405129849910736,[0. 0. 0. 0. 0. 0. 0. 0. 0.],-0.48828125,-0.42724609375,0.0,[0. 0. 0. 0. 0. 0. 0. 0. 0.],-0.048828125,0.02099609375,1.0029296875,[0. 0. 0. 0. 0. 0. 0. 0. 0.]
1.3647124767303467,0.0257236510515213,0.0021492685191333294,-0.8973905444145203,0.440481573343277,[0. 0. 0. 0. 0. 0. 0. 0. 0.],0.1220703125,-0.732421875,-0.06103515625,[0. 0. 0. 0. 0. 0. 0. 0. 0.],-0.04833984375,0.01904296875,1.005859375,[0. 0. 0. 0. 0. 0. 0. 0. 0.]
1.3869976997375488,0.0258931964635849,0.002039440907537937,-0.8974026441574097,0.4404473602771759,[0. 0. 0. 0. 0. 0. 0. 0. 0.],0.3662109375,-0.79345703125,-0.30517578125,[0. 0. 0. 0. 0. 0. 0. 0. 0.],-0.04833984375,0.01953125,1.0048828125,[0. 0. 0. 0. 0. 0. 0. 0. 0.]
1.406693696975708,0.025905901566147804,0.001126194023527205,-0.897404670715332,0.44044575095176697,[0. 0. 0. 0. 0. 0. 0. 0. 0.],-0.18310546875,-0.8544921875,-0.30517578125,[0. 0. 0. 0. 0. 0. 0. 0. 0.],-0.0478515625,0.02099609375,1.00244140625,[0. 0. 0. 0. 0. 0. 0. 0. 0.]
1.4265727996826172,0.02559676207602024,0.0011062204139307141,-0.8974189758300781,0.44043493270874023,[0. 0. 0. 0. 0. 0. 0. 0. 0.],-0.54931640625,-0.54931640625,-0.06103515625,[0. 0. 0. 0. 0. 0. 0. 0. 0.],-0.04736328125,0.0205078125,1.00341796875,[0. 0. 0. 0. 0. 0. 0. 0. 0.]
1.4469201564788818,0.02608383446931839,0.0024790228344500065,-0.8974356651306152,0.44036656618118286,[0. 0. 0. 0. 0. 0. 0. 0. 0.],0.0,-0.30517578125,0.0,[0. 0. 0. 0. 0. 0. 0. 0. 0.],-0.048828125,0.0185546875,1.0029296875,[0. 0. 0. 0. 0. 0. 0. 0. 0.]
1.4667882919311523,0.026035895571112633,0.002010040683671832,-0.8974500298500061,0.4403425455093384,[0. 0. 0. 0. 0. 0. 0. 0. 0.],0.3662109375,-0.54931640625,-0.1220703125,[0. 0. 0. 0. 0. 0. 0. 0. 0.],-0.048828125,0.01953125,1.005859375,[0. 0. 0. 0. 0. 0. 0. 0. 0.]
1.486647605895996,0.025231869891285896,0.0015317290090024471,-0.897476315498352,0.44033774733543396,[0. 0. 0. 0. 0. 0. 0. 0. 0.],-0.18310546875,-1.220703125,-0.244140625,[0. 0. 0. 0. 0. 0. 0. 0. 0.],-0.046875,0.02001953125,1.0068359375,[0. 0. 0. 0. 0. 0. 0. 0. 0.]
1.5066189765930176,0.02569533698260784,0.0013684999430552125,-0.8974706530570984,0.440323144197464,[0. 0. 0. 0. 0. 0. 0. 0. 0.],-0.244140625,-0.8544921875,-0.18310546875,[0. 0. 0. 0. 0. 0. 0. 0. 0.],-0.0478515625,0.0205078125,1.0029296875,[0. 0. 0. 0. 0. 0. 0. 0. 0.]
1.5269277095794678,0.02622467279434204,0.0017506185686215758,-0.8974754810333252,0.440280556678772,[0. 0. 0. 0. 0. 0. 0. 0. 0.],0.1220703125,-0.48828125,-0.244140625,[0. 0. 0. 0. 0. 0. 0. 0. 0.],-0.048828125,0.02001953125,1.0029296875,[0. 0. 0. 0. 0. 0. 0. 0. 0.]
1.5466995239257812,0.026018446311354637,0.0012860374990850687,-0.8974875211715698,0.44027000665664673,[0. 0. 0. 0. 0. 0. 0. 0. 0.],-0.30517578125,-0.30517578125,-0.244140625,[0. 0. 0. 0. 0. 0. 0. 0. 0.],-0.0478515625,0.02099609375,1.00146484375,[0. 0. 0. 0. 0. 0. 0. 0. 0.]
1.5670452117919922,0.02644338272511959,0.00189860793761909,-0.8974967002868652,0.4402236342430115,[0. 0. 0. 0. 0. 0. 0. 0. 0.],-0.30517578125,-0.6103515625,-0.06103515625,[0. 0. 0. 0. 0. 0. 0. 0. 0.],-0.04931640625,0.02001953125,1.00439453125,[0. 0. 0. 0. 0. 0. 0. 0. 0.]
1.586698293685913,0.02589699998497963,0.0018337854417040944,-0.8975253105163574,0.44019803404808044,[0. 0. 0. 0. 0. 0. 0. 0. 0.],0.244140625,-0.79345703125,-0.06103515625,[0. 0. 0. 0. 0. 0. 0. 0. 0.],-0.048828125,0.01953125,1.00537109375,[0. 0. 0. 0. 0. 0. 0. 0. 0.]
1.606642723083496,0.02600359544157982,0.002295335289090872,-0.8975315093994141,0.44017693400382996,[0. 0. 0. 0. 0. 0. 0. 0. 0.],0.1220703125,-0.732421875,-0.1220703125,[0. 0. 0. 0. 0. 0. 0. 0. 0.],-0.04931640625,0.01904296875,1.00439453125,[0. 0. 0. 0. 0. 0. 0. 0. 0.]
1.6265709400177002,0.02565220184624195,0.0014134112279862165,-0.8975399732589722,0.44018417596817017,[0. 0. 0. 0. 0. 0. 0. 0. 0.],-0.48828125,-0.732421875,-0.18310546875,[0. 0. 0. 0. 0. 0. 0. 0. 0.],-0.0478515625,0.02001953125,1.00341796875,[0. 0. 0. 0. 0. 0. 0. 0. 0.]
1.6420013904571533,0.026267025619745255,0.0013689632760360837,-0.89753657579422,0.44015491008758545,[0. 0. 0. 0. 0. 0. 0. 0. 0.],-0.3662109375,-0.48828125,-0.1220703125,[0. 0. 0. 0. 0. 0. 0. 0. 0.],-0.048828125,0.021484375,1.001953125,[0. 0. 0. 0. 0. 0. 0. 0. 0.]
1.6669607162475586,0.026428544893860817,0.0012985420180484653,-0.8975439667701721,0.44013044238090515,[0. 0. 0. 0. 0. 0. 0. 0. 0.],0.42724609375,-0.42724609375,-0.1220703125,[0. 0. 0. 0. 0. 0. 0. 0. 0.],-0.048828125,0.02099609375,1.005859375,[0. 0. 0. 0. 0. 0. 0. 0. 0.]
1.6902263164520264,0.026309462264180183,0.0020000028889626265,-0.8975632190704346,0.44009554386138916,[0. 0. 0. 0. 0. 0. 0. 0. 0.],0.06103515625,-0.8544921875,-0.18310546875,[0. 0. 0. 0. 0. 0. 0. 0. 0.],-0.04931640625,0.01953125,1.00390625,[0. 0. 0. 0. 0. 0. 0. 0. 0.]
1.7074549198150635,0.026679014787077904,0.002354188822209835,-0.8975667953491211,0.4400642514228821,[0. 0. 0. 0. 0. 0. 0. 0. 0.],-0.244140625,-1.03759765625,-0.244140625,[0. 0. 0. 0. 0. 0. 0. 0. 0.],-0.0498046875,0.01904296875,1.00390625,[0. 0. 0. 0. 0. 0. 0. 0. 0.]
1.726710319519043,0.02607646957039833,0.0010744823375716805,-0.8975808620452881,0.44007667899131775,[0. 0. 0. 0. 0. 0. 0. 0. 0.],-0.244140625,-0.48828125,-0.1220703125,[0. 0. 0. 0. 0. 0. 0. 0. 0.],-0.0478515625,0.021484375,1.00341796875,[0. 0. 0. 0. 0. 0. 0. 0. 0.]
1.7466926574707031,0.025853866711258888,0.0008941564592532814,-0.8975973725318909,0.4400564432144165,[0. 0. 0. 0. 0. 0. 0. 0. 0.],0.0,-0.18310546875,0.0,[0. 0. 0. 0. 0. 0. 0. 0. 0.],-0.04736328125,0.02099609375,1.0029296875,[0. 0. 0. 0. 0. 0. 0. 0. 0.]
1.7668187618255615,0.026380568742752075,0.002406039508059621,-0.897618293762207,0.43997693061828613,[0. 0. 0. 0. 0. 0. 0. 0. 0.],-0.18310546875,-0.67138671875,-0.1220703125,[0. 0. 0. 0. 0. 0. 0. 0. 0.],-0.0498046875,0.01904296875,1.0048828125,[0. 0. 0. 0. 0. 0. 0. 0. 0.]
1.7871637344360352,0.02619794011116028,0.00207805959507823,-0.8976322412490845,0.4399610757827759,[0. 0. 0. 0. 0. 0. 0. 0. 0.],0.0,-1.15966796875,-0.244140625,[0. 0. 0. 0. 0. 0. 0. 0. 0.],-0.04931640625,0.01953125,1.00634765625,[0. 0. 0. 0. 0. 0. 0. 0. 0.]
1.802610158920288,0.026645855978131294,0.001770251546986401,-0.8976328372955322,0.43993428349494934,[0. 0. 0. 0. 0. 0. 0. 0. 0.],0.0,-0.67138671875,-0.30517578125,[0. 0. 0. 0. 0. 0. 0. 0. 0.],-0.04931640625,0.02099609375,1.00341796875,[0. 0. 0. 0. 0. 0. 0. 0. 0.]
1.8268342018127441,0.026703253388404846,0.001339772716164589,-0.8976379632949829,0.43992191553115845,[0. 0. 0. 0. 0. 0. 0. 0. 0.],-0.1220703125,-0.18310546875,-0.18310546875,[0. 0. 0. 0. 0. 0. 0. 0. 0.],-0.0498046875,0.0205078125,1.0009765625,[0. 0. 0. 0. 0. 0. 0. 0. 0.]
1.8492906093597412,0.02647310495376587,0.0012255163164809346,-0.8976497650146484,0.4399121105670929,[0. 0. 0. 0. 0. 0. 0. 0. 0.],-0.42724609375,-0.48828125,0.06103515625,[0. 0. 0. 0. 0. 0. 0. 0. 0.],-0.048828125,0.02197265625,1.001953125,[0. 0. 0. 0. 0. 0. 0. 0. 0.]
1.8687686920166016,0.027238329872488976,0.0008232833351939917,-0.8976410031318665,0.4398842453956604,[0. 0. 0. 0. 0. 0. 0. 0. 0.],0.0,-0.732421875,-0.18310546875,[0. 0. 0. 0. 0. 0. 0. 0. 0.],-0.0498046875,0.0224609375,1.0048828125,[0. 0. 0. 0. 0. 0. 0. 0. 0.]
1.8867123126983643,0.026096150279045105,0.0012567144585773349,-0.8976837396621704,0.4398651719093323,[0. 0. 0. 0. 0. 0. 0. 0. 0.],0.244140625,-0.79345703125,-0.1220703125,[0. 0. 0. 0. 0. 0. 0. 0. 0.],-0.0478515625,0.01953125,1.00390625,[0. 0. 0. 0. 0. 0. 0. 0. 0.]
1.9066290855407715,0.02637956477701664,0.0008305496885441244,-0.8976813554763794,0.4398541748523712,[0. 0. 0. 0. 0. 0. 0. 0. 0.],-0.06103515625,-0.732421875,-0.30517578125,[0. 0. 0. 0. 0. 0. 0. 0. 0.],-0.048828125,0.021484375,1.00390625,[0. 0. 0. 0. 0. 0. 0. 0. 0.]
1.926856517791748,0.026325175538659096,0.001649538753554225,-0.8976983428001404,0.4398205876350403,[0. 0. 0. 0. 0. 0. 0. 0. 0.],-0.6103515625,-0.48828125,-0.06103515625,[0. 0. 0. 0. 0. 0. 0. 0. 0.],-0.04931640625,0.02099609375,1.0048828125,[0. 0. 0. 0. 0. 0. 0. 0. 0.]
1.9473295211791992,0.026555031538009644,0.0015722200041636825,-0.8977048993110657,0.4397936761379242,[0. 0. 0. 0. 0. 0. 0. 0. 0.],0.06103515625,-0.30517578125,0.0,[0. 0. 0. 0. 0. 0. 0. 0. 0.],-0.0498046875,0.02099609375,1.0048828125,[0. 0. 0. 0. 0. 0. 0. 0. 0.]
1.966670036315918,0.02729633077979088,0.0011169997742399573,-0.8976969718933105,0.4397657513618469,[0. 0. 0. 0. 0. 0. 0. 0. 0.],0.3662109375,-0.6103515625,-0.06103515625,[0. 0. 0. 0. 0. 0. 0. 0. 0.],-0.05029296875,0.02197265625,1.0048828125,[0. 0. 0. 0. 0. 0. 0. 0. 0.]
1.9872114658355713,0.026650214567780495,0.001724544446915388,-0.8977329134941101,0.4397299587726593,[0. 0. 0. 0. 0. 0. 0. 0. 0.],-0.06103515625,-0.8544921875,-0.30517578125,[0. 0. 0. 0. 0. 0. 0. 0. 0.],-0.0498046875,0.02001953125,1.00390625,[0. 0. 0. 0. 0. 0. 0. 0. 0.]
2.007124185562134,0.026566652581095695,0.001901606796309352,-0.8977465033531189,0.4397066831588745,[0. 0. 0. 0. 0. 0. 0. 0. 0.],0.06103515625,-0.9765625,-0.18310546875,[0. 0. 0. 0. 0. 0. 0. 0. 0.],-0.04931640625,0.01953125,1.0048828125,[0. 0. 0. 0. 0. 0. 0. 0. 0.]
2.0223922729492188,0.026046304032206535,0.0016417618608102202,-0.8977667093276978,0.4396975636482239,[0. 0. 0. 0. 0. 0. 0. 0. 0.],-0.06103515625,-0.244140625,-0.18310546875,[0. 0. 0. 0. 0. 0. 0. 0. 0.],-0.048828125,0.01953125,1.001953125,[0. 0. 0. 0. 0. 0. 0. 0. 0.]
2.0469579696655273,0.02603743225336075,0.0016154964687302709,-0.8977769017219543,0.4396772086620331,[0. 0. 0. 0. 0. 0. 0. 0. 0.],-0.3662109375,-0.3662109375,-0.06103515625,[0. 0. 0. 0. 0. 0. 0. 0. 0.],-0.04833984375,0.0205078125,1.00439453125,[0. 0. 0. 0. 0. 0. 0. 0. 0.]
2.066873788833618,0.025470906868577003,0.0021421245764940977,-0.8978119492530823,0.43963679671287537,[0. 0. 0. 0. 0. 0. 0. 0. 0.],-0.244140625,-0.79345703125,-0.1220703125,[0. 0. 0. 0. 0. 0. 0. 0. 0.],-0.04833984375,0.0185546875,1.005859375,[0. 0. 0. 0. 0. 0. 0. 0. 0.]
2.086843967437744,0.02623930014669895,0.002078294986858964,-0.8978061676025391,0.4396035373210907,[0. 0. 0. 0. 0. 0. 0. 0. 0.],0.244140625,-0.79345703125,-0.18310546875,[0. 0. 0. 0. 0. 0. 0. 0. 0.],-0.0498046875,0.01953125,1.00439453125,[0. 0. 0. 0. 0. 0. 0. 0. 0.]
2.106978178024292,0.02694569155573845,0.0012796932132914662,-0.8977953195571899,0.43958622217178345,[0. 0. 0. 0. 0. 0. 0. 0. 0.],0.0,-0.67138671875,-0.1220703125,[0. 0. 0. 0. 0. 0. 0. 0. 0.],-0.05029296875,0.021484375,1.00439453125,[0. 0. 0. 0. 0. 0. 0. 0. 0.]
2.1269145011901855,0.026243768632411957,0.0007752231322228909,-0.897812008857727,0.43959569931030273,[0. 0. 0. 0. 0. 0. 0. 0. 0.],-0.48828125,-0.6103515625,-0.1220703125,[0. 0. 0. 0. 0. 0. 0. 0. 0.],-0.048828125,0.021484375,1.0029296875,[0. 0. 0. 0. 0. 0. 0. 0. 0.]
2.1469192504882812,0.026660149917006493,0.0012618923792615533,-0.8978192210197449,0.4395546019077301,[0. 0. 0. 0. 0. 0. 0. 0. 0.],-0.30517578125,-0.48828125,-0.06103515625,[0. 0. 0. 0. 0. 0. 0. 0. 0.],-0.04931640625,0.021484375,1.00390625,[0. 0. 0. 0. 0. 0. 0. 0. 0.]
2.1689982414245605,0.026046279817819595,0.0019588482100516558,-0.8978564739227295,0.43951281905174255,[0. 0. 0. 0. 0. 0. 0. 0. 0.],0.244140625,-0.6103515625,-0.1220703125,[0. 0. 0. 0. 0. 0. 0. 0. 0.],-0.048828125,0.0185546875,1.0048828125,[0. 0. 0. 0. 0. 0. 0. 0. 0.]
2.186613082885742,0.02597002126276493,0.0025968567933887243,-0.8978710174560547,0.4394844174385071,[0. 0. 0. 0. 0. 0. 0. 0. 0.],0.1220703125,-1.0986328125,-0.1220703125,[0. 0. 0. 0. 0. 0. 0. 0. 0.],-0.048828125,0.0185546875,1.00390625,[0. 0. 0. 0. 0. 0. 0. 0. 0.]
2.206974983215332,0.026164203882217407,0.0008223557961173356,-0.8978579640388489,0.4395065903663635,[0. 0. 0. 0. 0. 0. 0. 0. 0.],-0.244140625,-1.03759765625,-0.244140625,[0. 0. 0. 0. 0. 0. 0. 0. 0.],-0.0478515625,0.02197265625,1.00341796875,[0. 0. 0. 0. 0. 0. 0. 0. 0.]
2.226942300796509,0.02683882974088192,0.0009540567407384515,-0.8978553414344788,0.43947091698646545,[0. 0. 0. 0. 0. 0. 0. 0. 0.],-0.18310546875,-0.30517578125,-0.18310546875,[0. 0. 0. 0. 0. 0. 0. 0. 0.],-0.04931640625,0.02197265625,1.0048828125,[0. 0. 0. 0. 0. 0. 0. 0. 0.]
2.246849536895752,0.02702474221587181,0.0011477697407826781,-0.8978686928749084,0.43943172693252563,[0. 0. 0. 0. 0. 0. 0. 0. 0.],0.1220703125,-0.30517578125,-0.18310546875,[0. 0. 0. 0. 0. 0. 0. 0. 0.],-0.0498046875,0.02197265625,1.0048828125,[0. 0. 0. 0. 0. 0. 0. 0. 0.]
2.2668473720550537,0.025774557143449783,0.001800060854293406,-0.8979235887527466,0.43939244747161865,[0. 0. 0. 0. 0. 0. 0. 0. 0.],-0.18310546875,-0.91552734375,-0.18310546875,[0. 0. 0. 0. 0. 0. 0. 0. 0.],-0.04833984375,0.0185546875,1.005859375,[0. 0. 0. 0. 0. 0. 0. 0. 0.]
2.287102699279785,0.02649320475757122,0.002343325177207589,-0.897922694683075,0.43934911489486694,[0. 0. 0. 0. 0. 0. 0. 0. 0.],-0.06103515625,-1.0986328125,-0.18310546875,[0. 0. 0. 0. 0. 0. 0. 0. 0.],-0.0498046875,0.0185546875,1.0048828125,[0. 0. 0. 0. 0. 0. 0. 0. 0.]
2.309544563293457,0.026257721707224846,0.0011217502178624272,-0.8979278802871704,0.43935731053352356,[0. 0. 0. 0. 0. 0. 0. 0. 0.],0.0,-0.48828125,-0.18310546875,[0. 0. 0. 0. 0. 0. 0. 0. 0.],-0.04833984375,0.021484375,1.001953125,[0. 0. 0. 0. 0. 0. 0. 0. 0.]
2.327786445617676,0.026069054380059242,0.0012500352459028363,-0.8979442119598389,0.4393349587917328,[0. 0. 0. 0. 0. 0. 0. 0. 0.],-0.30517578125,-0.18310546875,-0.06103515625,[0. 0. 0. 0. 0. 0. 0. 0. 0.],-0.048828125,0.0205078125,1.00048828125,[0. 0. 0. 0. 0. 0. 0. 0. 0.]
2.346803903579712,0.026273466646671295,0.002274764934554696,-0.8979648351669312,0.43927645683288574,[0. 0. 0. 0. 0. 0. 0. 0. 0.],-0.42724609375,-0.54931640625,-0.06103515625,[0. 0. 0. 0. 0. 0. 0. 0. 0.],-0.0498046875,0.01953125,1.00341796875,[0. 0. 0. 0. 0. 0. 0. 0. 0.]
2.3671183586120605,0.025813225656747818,0.0022401593159884214,-0.8979897499084473,0.43925291299819946,[0. 0. 0. 0. 0. 0. 0. 0. 0.],0.1220703125,-0.732421875,-0.18310546875,[0. 0. 0. 0. 0. 0. 0. 0. 0.],-0.04833984375,0.01806640625,1.00341796875,[0. 0. 0. 0. 0. 0. 0. 0. 0.]
2.3868958950042725,0.025860659778118134,0.0018065663753077388,-0.8979913592338562,0.4392490088939667,[0. 0. 0. 0. 0. 0. 0. 0. 0.],0.244140625,-0.732421875,-0.18310546875,[0. 0. 0. 0. 0. 0. 0. 0. 0.],-0.0478515625,0.01904296875,1.0029296875,[0. 0. 0. 0. 0. 0. 0. 0. 0.]
2.4084949493408203,0.02545679733157158,0.002309127477928996,-0.8980145454406738,0.4392228126525879,[0. 0. 0. 0. 0. 0. 0. 0. 0.],-0.3662109375,-0.732421875,-0.18310546875,[0. 0. 0. 0. 0. 0. 0. 0. 0.],-0.04833984375,0.0185546875,1.00390625,[0. 0. 0. 0. 0. 0. 0. 0. 0.]
2.427196979522705,0.02575000561773777,0.001588031300343573,-0.8980066776275635,0.4392249286174774,[0. 0. 0. 0. 0. 0. 0. 0. 0.],-0.54931640625,-0.54931640625,-0.06103515625,[0. 0. 0. 0. 0. 0. 0. 0. 0.],-0.04833984375,0.0205078125,1.00390625,[0. 0. 0. 0. 0. 0. 0. 0. 0.]
2.447338104248047,0.025917991995811462,0.001012495020404458,-0.8980115652084351,0.4392067790031433,[0. 0. 0. 0. 0. 0. 0. 0. 0.],-0.06103515625,-0.18310546875,-0.1220703125,[0. 0. 0. 0. 0. 0. 0. 0. 0.],-0.0478515625,0.02099609375,1.00439453125,[0. 0. 0. 0. 0. 0. 0. 0. 0.]
2.467174530029297,0.02564014308154583,0.0016844500787556171,-0.8980324864387512,0.4391781687736511,[0. 0. 0. 0. 0. 0. 0. 0. 0.],0.18310546875,-0.3662109375,0.1220703125,[0. 0. 0. 0. 0. 0. 0. 0. 0.],-0.0478515625,0.01904296875,1.00634765625,[0. 0. 0. 0. 0. 0. 0. 0. 0.]
2.4828877449035645,0.024910707026720047,0.002225644188001752,-0.8980687260627747,0.43914365768432617,[0. 0. 0. 0. 0. 0. 0. 0. 0.],-0.3662109375,-1.15966796875,-0.1220703125,[0. 0. 0. 0. 0. 0. 0. 0. 0.],-0.046875,0.017578125,1.00390625,[0. 0. 0. 0. 0. 0. 0. 0. 0.]
2.5070459842681885,0.025533514097332954,0.0007387428195215762,-0.8980513215065002,0.4391484558582306,[0. 0. 0. 0. 0. 0. 0. 0. 0.],0.1220703125,-0.91552734375,-0.244140625,[0. 0. 0. 0. 0. 0. 0. 0. 0.],-0.046875,0.02099609375,1.001953125,[0. 0. 0. 0. 0. 0. 0. 0. 0.]
2.526918649673462,0.0271143801510334,0.001340174931101501,-0.8980289697647095,0.4390980005264282,[0. 0. 0. 0. 0. 0. 0. 0. 0.],-0.06103515625,-0.3662109375,-0.06103515625,[0. 0. 0. 0. 0. 0. 0. 0. 0.],-0.05078125,0.021484375,1.00341796875,[0. 0. 0. 0. 0. 0. 0. 0. 0.]
2.5419836044311523,0.026586204767227173,0.002090435940772295,-0.8980627059936523,0.4390583038330078,[0. 0. 0. 0. 0. 0. 0. 0. 0.],-0.30517578125,-0.48828125,-0.06103515625,[0. 0. 0. 0. 0. 0. 0. 0. 0.],-0.0498046875,0.02001953125,1.00439453125,[0. 0. 0. 0. 0. 0. 0. 0. 0.]
2.5671849250793457,0.025596408173441887,0.0014623499009758234,-0.898086428642273,0.4390712082386017,[0. 0. 0. 0. 0. 0. 0. 0. 0.],-0.1220703125,-0.91552734375,-0.06103515625,[0. 0. 0. 0. 0. 0. 0. 0. 0.],-0.04833984375,0.02001953125,1.00732421875,[0. 0. 0. 0. 0. 0. 0. 0. 0.]
2.5868191719055176,0.025442073121666908,0.0013475685846060514,-0.8981050252914429,0.4390426278114319,[0. 0. 0. 0. 0. 0. 0. 0. 0.],0.3662109375,-0.79345703125,-0.30517578125,[0. 0. 0. 0. 0. 0. 0. 0. 0.],-0.046875,0.01953125,1.00390625,[0. 0. 0. 0. 0. 0. 0. 0. 0.]
2.606714963912964,0.02636830136179924,0.0008328671101480722,-0.8980886936187744,0.43902260065078735,[0. 0. 0. 0. 0. 0. 0. 0. 0.],0.0,-0.6103515625,-0.1220703125,[0. 0. 0. 0. 0. 0. 0. 0. 0.],-0.04833984375,0.021484375,1.00390625,[0. 0. 0. 0. 0. 0. 0. 0. 0.]
2.626955986022949,0.026614556089043617,0.0015055278781801462,-0.8980991244316101,0.43898454308509827,[0. 0. 0. 0. 0. 0. 0. 0. 0.],-0.6103515625,-0.54931640625,-0.1220703125,[0. 0. 0. 0. 0. 0. 0. 0. 0.],-0.04931640625,0.0205078125,1.00390625,[0. 0. 0. 0. 0. 0. 0. 0. 0.]
2.6467599868774414,0.025417985394597054,0.0016093878075480461,-0.898148238658905,0.438954621553421,[0. 0. 0. 0. 0. 0. 0. 0. 0.],-0.18310546875,-0.48828125,-0.244140625,[0. 0. 0. 0. 0. 0. 0. 0. 0.],-0.04736328125,0.01953125,1.00390625,[0. 0. 0. 0. 0. 0. 0. 0. 0.]
2.6666948795318604,0.025245467200875282,0.0010040485067293048,-0.8981614112854004,0.4389394223690033,[0. 0. 0. 0. 0. 0. 0. 0. 0.],0.30517578125,-0.6103515625,-0.1220703125,[0. 0. 0. 0. 0. 0. 0. 0. 0.],-0.04638671875,0.02001953125,1.00390625,[0. 0. 0. 0. 0. 0. 0. 0. 0.]
2.686905860900879,0.026235360652208328,0.0005591296358034015,-0.8981529474258423,0.438899427652359,[0. 0. 0. 0. 0. 0. 0. 0. 0.],0.1220703125,-0.91552734375,-0.3662109375,[0. 0. 0. 0. 0. 0. 0. 0. 0.],-0.04833984375,0.021484375,1.00341796875,[0. 0. 0. 0. 0. 0. 0. 0. 0.]
2.7068114280700684,0.026831919327378273,0.0013724085874855518,-0.89815753698349,0.4388523995876312,[0. 0. 0. 0. 0. 0. 0. 0. 0.],-0.42724609375,-0.8544921875,-0.30517578125,[0. 0. 0. 0. 0. 0. 0. 0. 0.],-0.0498046875,0.021484375,1.00390625,[0. 0. 0. 0. 0. 0. 0. 0. 0.]
2.727273941040039,0.026086872443556786,0.001102123991586268,-0.8981792330741882,0.4388534724712372,[0. 0. 0. 0. 0. 0. 0. 0. 0.],-0.30517578125,-0.30517578125,-0.1220703125,[0. 0. 0. 0. 0. 0. 0. 0. 0.],-0.04833984375,0.02099609375,1.00537109375,[0. 0. 0. 0. 0. 0. 0. 0. 0.]
2.7467992305755615,0.02667289413511753,0.002700110198929906,-0.8981865048408508,0.4387965500354767,[0. 0. 0. 0. 0. 0. 0. 0. 0.],0.06103515625,-0.244140625,0.06103515625,[0. 0. 0. 0. 0. 0. 0. 0. 0.],-0.05078125,0.0185546875,1.00439453125,[0. 0. 0. 0. 0. 0. 0. 0. 0.]
2.7671265602111816,0.026637330651283264,0.002175534376874566,-0.8981980681419373,0.43877795338630676,[0. 0. 0. 0. 0. 0. 0. 0. 0.],0.0,-0.9765625,-0.1220703125,[0. 0. 0. 0. 0. 0. 0. 0. 0.],-0.04931640625,0.01953125,1.0048828125,[0. 0. 0. 0. 0. 0. 0. 0. 0.]
2.7847325801849365,0.026920031756162643,0.0013451635604724288,-0.8981945514678955,0.4387713074684143,[0. 0. 0. 0. 0. 0. 0. 0. 0.],0.0,-1.0986328125,-0.244140625,[0. 0. 0. 0. 0. 0. 0. 0. 0.],-0.0498046875,0.02197265625,1.0048828125,[0. 0. 0. 0. 0. 0. 0. 0. 0.]
2.8025131225585938,0.02539023570716381,0.000547675124835223,-0.8982337713241577,0.4387838840484619,[0. 0. 0. 0. 0. 0. 0. 0. 0.],-0.06103515625,-0.3662109375,-0.18310546875,[0. 0. 0. 0. 0. 0. 0. 0. 0.],-0.04638671875,0.021484375,1.00146484375,[0. 0. 0. 0. 0. 0. 0. 0. 0.]
2.8266661167144775,0.02562776580452919,0.00213494966737926,-0.89825439453125,0.43872305750846863,[0. 0. 0. 0. 0. 0. 0. 0. 0.],-0.18310546875,-0.30517578125,-0.244140625,[0. 0. 0. 0. 0. 0. 0. 0. 0.],-0.048828125,0.0185546875,1.00341796875,[0. 0. 0. 0. 0. 0. 0. 0. 0.]
2.8505911827087402,0.026283612474799156,0.0018936707638204098,-0.8982503414154053,0.43869349360466003,[0. 0. 0. 0. 0. 0. 0. 0. 0.],-0.30517578125,-0.79345703125,-0.06103515625,[0. 0. 0. 0. 0. 0. 0. 0. 0.],-0.04931640625,0.02001953125,1.00439453125,[0. 0. 0. 0. 0. 0. 0. 0. 0.]
2.866727352142334,0.025840260088443756,0.0017808877164497972,-0.8982728719711304,0.4386742115020752,[0. 0. 0. 0. 0. 0. 0. 0. 0.],0.1220703125,-1.15966796875,-0.1220703125,[0. 0. 0. 0. 0. 0. 0. 0. 0.],-0.04833984375,0.01953125,1.00439453125,[0. 0. 0. 0. 0. 0. 0. 0. 0.]
2.8867433071136475,0.026118850335478783,0.0018271751469001174,-0.8982768654823303,0.43864935636520386,[0. 0. 0. 0. 0. 0. 0. 0. 0.],0.1220703125,-0.732421875,-0.1220703125,[0. 0. 0. 0. 0. 0. 0. 0. 0.],-0.048828125,0.01953125,1.00537109375,[0. 0. 0. 0. 0. 0. 0. 0. 0.]
2.9074928760528564,0.025385292246937752,0.0011140241986140609,-0.8982963562011719,0.43865498900413513,[0. 0. 0. 0. 0. 0. 0. 0. 0.],-0.1220703125,-0.91552734375,-0.06103515625,[0. 0. 0. 0. 0. 0. 0. 0. 0.],-0.04736328125,0.0205078125,1.00439453125,[0. 0. 0. 0. 0. 0. 0. 0. 0.]
2.9269564151763916,0.026712648570537567,0.001287844032049179,-0.8982791304588318,0.43861067295074463,[0. 0. 0. 0. 0. 0. 0. 0. 0.],-0.42724609375,-0.67138671875,-0.244140625,[0. 0. 0. 0. 0. 0. 0. 0. 0.],-0.048828125,0.02099609375,1.00439453125,[0. 0. 0. 0. 0. 0. 0. 0. 0.]
2.942718744277954,0.02633964829146862,0.0029880404472351074,-0.8983179926872253,0.4385455846786499,[0. 0. 0. 0. 0. 0. 0. 0. 0.],0.1220703125,0.0,-0.18310546875,[0. 0. 0. 0. 0. 0. 0. 0. 0.],-0.05029296875,0.017578125,1.0029296875,[0. 0. 0. 0. 0. 0. 0. 0. 0.]
2.9678688049316406,0.02707008458673954,0.0026773628778755665,-0.8983094096183777,0.43852055072784424,[0. 0. 0. 0. 0. 0. 0. 0. 0.],0.244140625,-0.67138671875,0.0,[0. 0. 0. 0. 0. 0. 0. 0. 0.],-0.05126953125,0.01904296875,1.00244140625,[0. 0. 0. 0. 0. 0. 0. 0. 0.]
2.986701726913452,0.02648712694644928,0.0015399582916870713,-0.8983264565467834,0.43852680921554565,[0. 0. 0. 0. 0. 0. 0. 0. 0.],-0.1220703125,-1.0986328125,-0.30517578125,[0. 0. 0. 0. 0. 0. 0. 0. 0.],-0.04931640625,0.0205078125,1.005859375,[0. 0. 0. 0. 0. 0. 0. 0. 0.]
3.003290891647339,0.026280293241143227,0.0014921504771336913,-0.8983464241027832,0.43849849700927734,[0. 0. 0. 0. 0. 0. 0. 0. 0.],-0.18310546875,-0.732421875,-0.18310546875,[0. 0. 0. 0. 0. 0. 0. 0. 0.],-0.04833984375,0.02001953125,1.00439453125,[0. 0. 0. 0. 0. 0. 0. 0. 0.]
3.0280721187591553,0.0263401810079813,0.0014827413251623511,-0.8983551859855652,0.4384769797325134,[0. 0. 0. 0. 0. 0. 0. 0. 0.],-0.06103515625,-0.18310546875,-0.1220703125,[0. 0. 0. 0. 0. 0. 0. 0. 0.],-0.048828125,0.0205078125,1.00244140625,[0. 0. 0. 0. 0. 0. 0. 0. 0.]
3.047597646713257,0.026862043887376785,0.002109463093802333,-0.8983542919158936,0.4384445548057556,[0. 0. 0. 0. 0. 0. 0. 0. 0.],-0.1220703125,-0.6103515625,-0.06103515625,[0. 0. 0. 0. 0. 0. 0. 0. 0.],-0.05078125,0.02001953125,1.005859375,[0. 0. 0. 0. 0. 0. 0. 0. 0.]
3.0665860176086426,0.02635422721505165,0.0011781984940171242,-0.898374080657959,0.43843820691108704,[0. 0. 0. 0. 0. 0. 0. 0. 0.],-0.06103515625,-0.91552734375,-0.18310546875,[0. 0. 0. 0. 0. 0. 0. 0. 0.],-0.048828125,0.02099609375,1.00439453125,[0. 0. 0. 0. 0. 0. 0. 0. 0.]
3.0868606567382812,0.026086026802659035,0.0010719421552494168,-0.8983941078186035,0.4384136497974396,[0. 0. 0. 0. 0. 0. 0. 0. 0.],0.18310546875,-0.8544921875,-0.18310546875,[0. 0. 0. 0. 0. 0. 0. 0. 0.],-0.0478515625,0.02001953125,1.00341796875,[0. 0. 0. 0. 0. 0. 0. 0. 0.]
3.1070680618286133,0.025464696809649467,0.0016004130011424422,-0.8984254598617554,0.4383842647075653,[0. 0. 0. 0. 0. 0. 0. 0. 0.],-0.06103515625,-0.42724609375,-0.30517578125,[0. 0. 0. 0. 0. 0. 0. 0. 0.],-0.04736328125,0.01953125,1.001953125,[0. 0. 0. 0. 0. 0. 0. 0. 0.]
3.121976852416992,0.02703585848212242,0.001234671100974083,-0.8983874917030334,0.43836912512779236,[0. 0. 0. 0. 0. 0. 0. 0. 0.],-0.54931640625,-0.48828125,0.0,[0. 0. 0. 0. 0. 0. 0. 0. 0.],-0.05029296875,0.02197265625,1.00341796875,[0. 0. 0. 0. 0. 0. 0. 0. 0.]
3.146625518798828,0.025940004736185074,0.0021205844823271036,-0.8984420299530029,0.4383202791213989,[0. 0. 0. 0. 0. 0. 0. 0. 0.],-0.06103515625,-0.42724609375,-0.06103515625,[0. 0. 0. 0. 0. 0. 0. 0. 0.],-0.048828125,0.01904296875,1.00439453125,[0. 0. 0. 0. 0. 0. 0. 0. 0.]
3.1627912521362305,0.02533586323261261,0.001999852480366826,-0.8984619379043579,0.4383153021335602,[0. 0. 0. 0. 0. 0. 0. 0. 0.],0.30517578125,-0.6103515625,0.06103515625,[0. 0. 0. 0. 0. 0. 0. 0. 0.],-0.0478515625,0.01806640625,1.005859375,[0. 0. 0. 0. 0. 0. 0. 0. 0.]
3.1867713928222656,0.025747593492269516,0.0019319131970405579,-0.8984648585319519,0.4382857084274292,[0. 0. 0. 0. 0. 0. 0. 0. 0.],0.0,-1.03759765625,-0.244140625,[0. 0. 0. 0. 0. 0. 0. 0. 0.],-0.04833984375,0.01904296875,1.0048828125,[0. 0. 0. 0. 0. 0. 0. 0. 0.]
3.2091450691223145,0.02587069757282734,0.0017682815669104457,-0.8984692692756653,0.4382700026035309,[0. 0. 0. 0. 0. 0. 0. 0. 0.],-0.54931640625,-0.732421875,-0.3662109375,[0. 0. 0. 0. 0. 0. 0. 0. 0.],-0.048828125,0.02001953125,1.00341796875,[0. 0. 0. 0. 0. 0. 0. 0. 0.]
3.2266616821289062,0.026743613183498383,0.001729750307276845,-0.8984623551368713,0.4382319450378418,[0. 0. 0. 0. 0. 0. 0. 0. 0.],-0.1220703125,-0.42724609375,-0.1220703125,[0. 0. 0. 0. 0. 0. 0. 0. 0.],-0.0498046875,0.02001953125,1.00390625,[0. 0. 0. 0. 0. 0. 0. 0. 0.]
3.2491066455841064,0.02610447257757187,0.0027603446505963802,-0.8985047936439514,0.43817827105522156,[0. 0. 0. 0. 0. 0. 0. 0. 0.],0.18310546875,-0.3662109375,0.0,[0. 0. 0. 0. 0. 0. 0. 0. 0.],-0.0498046875,0.0185546875,1.00634765625,[0. 0. 0. 0. 0. 0. 0. 0. 0.]
3.262312173843384,0.02598172426223755,0.00212487718090415,-0.8985126614570618,0.438172847032547,[0. 0. 0. 0. 0. 0. 0. 0. 0.],-0.1220703125,-1.0986328125,-0.1220703125,[0. 0. 0. 0. 0. 0. 0. 0. 0.],-0.04931640625,0.01904296875,1.0068359375,[0. 0. 0. 0. 0. 0. 0. 0. 0.]
3.2868990898132324,0.025560123845934868,0.0017033745534718037,-0.8985300660133362,0.4381639361381531,[0. 0. 0. 0. 0. 0. 0. 0. 0.],-0.1220703125,-0.9765625,-0.3662109375,[0. 0. 0. 0. 0. 0. 0. 0. 0.],-0.0478515625,0.01953125,1.00244140625,[0. 0. 0. 0. 0. 0. 0. 0. 0.]
3.306670665740967,0.026455463841557503,0.0016398333245888352,-0.898518979549408,0.4381335973739624,[0. 0. 0. 0. 0. 0. 0. 0. 0.],0.0,-0.30517578125,-0.18310546875,[0. 0. 0. 0. 0. 0. 0. 0. 0.],-0.048828125,0.02001953125,1.00390625,[0. 0. 0. 0. 0. 0. 0. 0. 0.]
3.3273942470550537,0.025865523144602776,0.0021944574546068907,-0.8985434770584106,0.4381161332130432,[0. 0. 0. 0. 0. 0. 0. 0. 0.],-0.3662109375,-0.42724609375,0.0,[0. 0. 0. 0. 0. 0. 0. 0. 0.],-0.048828125,0.01904296875,1.00439453125,[0. 0. 0. 0. 0. 0. 0. 0. 0.]
3.3473641872406006,0.025896228849887848,0.002288991119712591,-0.898557722568512,0.43808457255363464,[0. 0. 0. 0. 0. 0. 0. 0. 0.],-0.1220703125,-0.79345703125,-0.1220703125,[0. 0. 0. 0. 0. 0. 0. 0. 0.],-0.04931640625,0.01904296875,1.00439453125,[0. 0. 0. 0. 0. 0. 0. 0. 0.]
3.363956928253174,0.025807486847043037,0.002314392477273941,-0.89857017993927,0.43806445598602295,[0. 0. 0. 0. 0. 0. 0. 0. 0.],0.30517578125,-0.42724609375,-0.06103515625,[0. 0. 0. 0. 0. 0. 0. 0. 0.],-0.048828125,0.01904296875,1.00537109375,[0. 0. 0. 0. 0. 0. 0. 0. 0.]
3.3836867809295654,0.026094526052474976,0.002501560840755701,-0.8985748887062073,0.4380365312099457,[0. 0. 0. 0. 0. 0. 0. 0. 0.],0.244140625,-0.732421875,-0.1220703125,[0. 0. 0. 0. 0. 0. 0. 0. 0.],-0.0498046875,0.01806640625,1.00537109375,[0. 0. 0. 0. 0. 0. 0. 0. 0.]
3.407435894012451,0.0262343417853117,0.0022593578323721886,-0.8985809087753296,0.4380171597003937,[0. 0. 0. 0. 0. 0. 0. 0. 0.],-0.30517578125,-0.79345703125,-0.244140625,[0. 0. 0. 0. 0. 0. 0. 0. 0.],-0.04931640625,0.01904296875,1.00390625,[0. 0. 0. 0. 0. 0. 0. 0. 0.]
3.4273505210876465,0.026282282546162605,0.0013838576851412654,-0.8985782861709595,0.4380234479904175,[0. 0. 0. 0. 0. 0. 0. 0. 0.],-0.3662109375,-0.48828125,-0.06103515625,[0. 0. 0. 0. 0. 0. 0. 0. 0.],-0.048828125,0.0205078125,1.00341796875,[0. 0. 0. 0. 0. 0. 0. 0. 0.]
3.4480600357055664,0.026578720659017563,0.0017988492036238313,-0.8985856771469116,0.4379887282848358,[0. 0. 0. 0. 0. 0. 0. 0. 0.],0.06103515625,-0.1220703125,-0.1220703125,[0. 0. 0. 0. 0. 0. 0. 0. 0.],-0.04931640625,0.02001953125,1.00341796875,[0. 0. 0. 0. 0. 0. 0. 0. 0.]
3.461883306503296,0.026184003800153732,0.0023062077816575766,-0.8986068367958069,0.4379667043685913,[0. 0. 0. 0. 0. 0. 0. 0. 0.],0.06103515625,-0.67138671875,0.0,[0. 0. 0. 0. 0. 0. 0. 0. 0.],-0.04931640625,0.01904296875,1.00537109375,[0. 0. 0. 0. 0. 0. 0. 0. 0.]
3.487046718597412,0.02575068362057209,0.002180739538744092,-0.8986275792121887,0.43795064091682434,[0. 0. 0. 0. 0. 0. 0. 0. 0.],-0.244140625,-1.15966796875,-0.244140625,[0. 0. 0. 0. 0. 0. 0. 0. 0.],-0.048828125,0.01904296875,1.00439453125,[0. 0. 0. 0. 0. 0. 0. 0. 0.]
3.5069658756256104,0.0262845940887928,0.0015725510893389583,-0.8986241817474365,0.4379284977912903,[0. 0. 0. 0. 0. 0. 0. 0. 0.],-0.1220703125,-0.54931640625,-0.30517578125,[0. 0. 0. 0. 0. 0. 0. 0. 0.],-0.048828125,0.01953125,1.0048828125,[0. 0. 0. 0. 0. 0. 0. 0. 0.]
3.5272371768951416,0.026007333770394325,0.0012248725397512317,-0.8986377716064453,0.43791812658309937,[0. 0. 0. 0. 0. 0. 0. 0. 0.],-0.1220703125,-0.1220703125,-0.06103515625,[0. 0. 0. 0. 0. 0. 0. 0. 0.],-0.04833984375,0.0205078125,1.005859375,[0. 0. 0. 0. 0. 0. 0. 0. 0.]
3.547579526901245,0.02548413909971714,0.001946489792317152,-0.89867103099823,0.43787819147109985,[0. 0. 0. 0. 0. 0. 0. 0. 0.],-0.18310546875,-0.48828125,-0.18310546875,[0. 0. 0. 0. 0. 0. 0. 0. 0.],-0.0478515625,0.01904296875,1.00390625,[0. 0. 0. 0. 0. 0. 0. 0. 0.]
3.568277597427368,0.025315552949905396,0.0019112328300252557,-0.8986895680427551,0.43784987926483154,[0. 0. 0. 0. 0. 0. 0. 0. 0.],-0.06103515625,-1.03759765625,-0.244140625,[0. 0. 0. 0. 0. 0. 0. 0. 0.],-0.04736328125,0.0185546875,1.0048828125,[0. 0. 0. 0. 0. 0. 0. 0. 0.]
3.5868349075317383,0.025222865864634514,0.001286627259105444,-0.8986966013908386,0.43784308433532715,[0. 0. 0. 0. 0. 0. 0. 0. 0.],0.18310546875,-0.79345703125,-0.18310546875,[0. 0. 0. 0. 0. 0. 0. 0. 0.],-0.046875,0.02001953125,1.0048828125,[0. 0. 0. 0. 0. 0. 0. 0. 0.]
3.6096675395965576,0.025669191032648087,0.0016954749589785933,-0.8986991047859192,0.4378107786178589,[0. 0. 0. 0. 0. 0. 0. 0. 0.],-0.244140625,-0.54931640625,-0.244140625,[0. 0. 0. 0. 0. 0. 0. 0. 0.],-0.0478515625,0.01953125,1.00341796875,[0. 0. 0. 0. 0. 0. 0. 0. 0.]
3.629577159881592,0.026518283411860466,0.001493530347943306,-0.8986822962760925,0.4377954304218292,[0. 0. 0. 0. 0. 0. 0. 0. 0.],-0.54931640625,-0.42724609375,0.0,[0. 0. 0. 0. 0. 0. 0. 0. 0.],-0.04931640625,0.0205078125,1.0029296875,[0. 0. 0. 0. 0. 0. 0. 0. 0.]
3.6475162506103516,0.025565048679709435,0.0022633515764027834,-0.8987305164337158,0.43774959444999695,[0. 0. 0. 0. 0. 0. 0. 0. 0.],0.0,-0.48828125,-0.244140625,[0. 0. 0. 0. 0. 0. 0. 0. 0.],-0.0478515625,0.01904296875,1.0048828125,[0. 0. 0. 0. 0. 0. 0. 0. 0.]
3.666743516921997,0.025501688942313194,0.002231115009635687,-0.8987454771995544,0.4377228021621704,[0. 0. 0. 0. 0. 0. 0. 0. 0.],0.30517578125,-0.732421875,-0.18310546875,[0. 0. 0. 0. 0. 0. 0. 0. 0.],-0.04833984375,0.01904296875,1.00439453125,[0. 0. 0. 0. 0. 0. 0. 0. 0.]
3.687173366546631,0.025707073509693146,0.00203748163767159,-0.8987480998039246,0.43770647048950195,[0. 0. 0. 0. 0. 0. 0. 0. 0.],-0.30517578125,-0.91552734375,-0.30517578125,[0. 0. 0. 0. 0. 0. 0. 0. 0.],-0.0478515625,0.01904296875,1.00244140625,[0. 0. 0. 0. 0. 0. 0. 0. 0.]
3.707371234893799,0.026027783751487732,0.00242774304933846,-0.8987561464309692,0.4376688301563263,[0. 0. 0. 0. 0. 0. 0. 0. 0.],-0.54931640625,-0.6103515625,-0.18310546875,[0. 0. 0. 0. 0. 0. 0. 0. 0.],-0.04931640625,0.0185546875,1.00390625,[0. 0. 0. 0. 0. 0. 0. 0. 0.]
3.726914405822754,0.026428958401083946,0.0021152214612811804,-0.8987522125244141,0.4376544952392578,[0. 0. 0. 0. 0. 0. 0. 0. 0.],-0.06103515625,-0.1220703125,-0.1220703125,[0. 0. 0. 0. 0. 0. 0. 0. 0.],-0.04931640625,0.0205078125,1.00390625,[0. 0. 0. 0. 0. 0. 0. 0. 0.]
3.747032642364502,0.025875458493828773,0.001934187370352447,-0.8987826704978943,0.43762585520744324,[0. 0. 0. 0. 0. 0. 0. 0. 0.],0.244140625,-0.54931640625,-0.1220703125,[0. 0. 0. 0. 0. 0. 0. 0. 0.],-0.04833984375,0.01953125,1.005859375,[0. 0. 0. 0. 0. 0. 0. 0. 0.]
3.7692699432373047,0.0254848450422287,0.0014639418805018067,-0.8987981677055359,0.43761903047561646,[0. 0. 0. 0. 0. 0. 0. 0. 0.],-0.06103515625,-1.0986328125,-0.18310546875,[0. 0. 0. 0. 0. 0. 0. 0. 0.],-0.0478515625,0.02001953125,1.00341796875,[0. 0. 0. 0. 0. 0. 0. 0. 0.]
3.7868552207946777,0.026294521987438202,0.0018962426111102104,-0.8987955451011658,0.43757471442222595,[0. 0. 0. 0. 0. 0. 0. 0. 0.],-0.244140625,-0.91552734375,-0.244140625,[0. 0. 0. 0. 0. 0. 0. 0. 0.],-0.048828125,0.01904296875,1.00341796875,[0. 0. 0. 0. 0. 0. 0. 0. 0.]
3.806779146194458,0.025566132739186287,0.0016894274158403277,-0.8988219499588013,0.43756452202796936,[0. 0. 0. 0. 0. 0. 0. 0. 0.],0.06103515625,-0.3662109375,-0.1220703125,[0. 0. 0. 0. 0. 0. 0. 0. 0.],-0.0478515625,0.01904296875,1.0009765625,[0. 0. 0. 0. 0. 0. 0. 0. 0.]
3.8268136978149414,0.026538081467151642,0.0017356113530695438,-0.8988097906112671,0.43753135204315186,[0. 0. 0. 0. 0. 0. 0. 0. 0.],-0.48828125,-0.54931640625,-0.1220703125,[0. 0. 0. 0. 0. 0. 0. 0. 0.],-0.0498046875,0.02099609375,1.0029296875,[0. 0. 0. 0. 0. 0. 0. 0. 0.]
3.847092866897583,0.026301812380552292,0.0008780038915574551,-0.898826539516449,0.43751397728919983,[0. 0. 0. 0. 0. 0. 0. 0. 0.],-0.3662109375,-0.6103515625,-0.1220703125,[0. 0. 0. 0. 0. 0. 0. 0. 0.],-0.04833984375,0.021484375,1.00390625,[0. 0. 0. 0. 0. 0. 0. 0. 0.]
3.8676912784576416,0.026540007442235947,0.0009950468083843589,-0.8988334536552429,0.43748509883880615,[0. 0. 0. 0. 0. 0. 0. 0. 0.],0.30517578125,-0.67138671875,-0.06103515625,[0. 0. 0. 0. 0. 0. 0. 0. 0.],-0.048828125,0.021484375,1.00341796875,[0. 0. 0. 0. 0. 0. 0. 0. 0.]
3.88826060295105,0.026184264570474625,0.001982444431632757,-0.8988624215126038,0.43744349479675293,[0. 0. 0. 0. 0. 0. 0. 0. 0.],0.18310546875,-0.732421875,-0.244140625,[0. 0. 0. 0. 0. 0. 0. 0. 0.],-0.04931640625,0.02001953125,1.00439453125,[0. 0. 0. 0. 0. 0. 0. 0. 0.]
3.9073073863983154,0.02521502785384655,0.0023639402352273464,-0.8989043831825256,0.4374125301837921,[0. 0. 0. 0. 0. 0. 0. 0. 0.],-0.42724609375,-0.91552734375,-0.30517578125,[0. 0. 0. 0. 0. 0. 0. 0. 0.],-0.04736328125,0.017578125,1.00439453125,[0. 0. 0. 0. 0. 0. 0. 0. 0.]
3.9273457527160645,0.02547440305352211,0.0022909098770469427,-0.8989107012748718,0.4373847544193268,[0. 0. 0. 0. 0. 0. 0. 0. 0.],-0.18310546875,-0.3662109375,-0.18310546875,[0. 0. 0. 0. 0. 0. 0. 0. 0.],-0.04833984375,0.01904296875,1.00341796875,[0. 0. 0. 0. 0. 0. 0. 0. 0.]
3.947298288345337,0.026187926530838013,0.002666460582986474,-0.8989050388336182,0.4373522102832794,[0. 0. 0. 0. 0. 0. 0. 0. 0.],0.244140625,-0.3662109375,0.0,[0. 0. 0. 0. 0. 0. 0. 0. 0.],-0.0498046875,0.0185546875,1.00341796875,[0. 0. 0. 0. 0. 0. 0. 0. 0.]
3.9689548015594482,0.026623560115695,0.002694027265533805,-0.8989022970199585,0.4373312294483185,[0. 0. 0. 0. 0. 0. 0. 0. 0.],0.06103515625,-0.91552734375,0.06103515625,[0. 0. 0. 0. 0. 0. 0. 0. 0.],-0.05029296875,0.0185546875,1.00341796875,[0. 0. 0. 0. 0. 0. 0. 0. 0.]
3.9866819381713867,0.026288453489542007,0.0012001179857179523,-0.8989046216011047,0.43735355138778687,[0. 0. 0. 0. 0. 0. 0. 0. 0.],-0.244140625,-1.03759765625,-0.244140625,[0. 0. 0. 0. 0. 0. 0. 0. 0.],-0.04833984375,0.02099609375,1.00537109375,[0. 0. 0. 0. 0. 0. 0. 0. 0.]
4.014436721801758,0.026355858892202377,0.0017613578820601106,-0.8989239931106567,0.43730753660202026,[0. 0. 0. 0. 0. 0. 0. 0. 0.],0.30517578125,-0.79345703125,-0.244140625,[0. 0. 0. 0. 0. 0. 0. 0. 0.],-0.04931640625,0.0205078125,1.00390625,[0. 0. 0. 0. 0. 0. 0. 0. 0.]
4.024821043014526,0.026027051731944084,0.0014937391970306635,-0.8989385366439819,0.43729835748672485,[0. 0. 0. 0. 0. 0. 0. 0. 0.],0.0,-0.18310546875,0.0,[0. 0. 0. 0. 0. 0. 0. 0. 0.],-0.048828125,0.02001953125,1.00390625,[0. 0. 0. 0. 0. 0. 0. 0. 0.]
4.046688079833984,0.026047324761748314,0.0015455533284693956,-0.8989486694335938,0.43727633357048035,[0. 0. 0. 0. 0. 0. 0. 0. 0.],-0.244140625,-0.67138671875,-0.06103515625,[0. 0. 0. 0. 0. 0. 0. 0. 0.],-0.04833984375,0.01953125,1.0029296875,[0. 0. 0. 0. 0. 0. 0. 0. 0.]
4.06259298324585,0.02642667293548584,0.0023625672329217196,-0.8989577889442444,0.43723103404045105,[0. 0. 0. 0. 0. 0. 0. 0. 0.],0.0,-1.03759765625,-0.1220703125,[0. 0. 0. 0. 0. 0. 0. 0. 0.],-0.0498046875,0.01904296875,1.0048828125,[0. 0. 0. 0. 0. 0. 0. 0. 0.]
4.086752891540527,0.0260450579226017,0.0025105196982622147,-0.8989792466163635,0.43720901012420654,[0. 0. 0. 0. 0. 0. 0. 0. 0.],0.0,-0.732421875,-0.18310546875,[0. 0. 0. 0. 0. 0. 0. 0. 0.],-0.04931640625,0.0185546875,1.00146484375,[0. 0. 0. 0. 0. 0. 0. 0. 0.]
4.107475996017456,0.026281842961907387,0.0015921873273327947,-0.8989719152450562,0.43721437454223633,[0. 0. 0. 0. 0. 0. 0. 0. 0.],-0.244140625,-0.42724609375,-0.06103515625,[0. 0. 0. 0. 0. 0. 0. 0. 0.],-0.048828125,0.02001953125,1.00244140625,[0. 0. 0. 0. 0. 0. 0. 0. 0.]
4.127201080322266,0.026066191494464874,0.0013924523955211043,-0.8989855051040649,0.4371998906135559,[0. 0. 0. 0. 0. 0. 0. 0. 0.],-0.6103515625,-0.42724609375,0.0,[0. 0. 0. 0. 0. 0. 0. 0. 0.],-0.04833984375,0.0205078125,1.00439453125,[0. 0. 0. 0. 0. 0. 0. 0. 0.]
4.147096395492554,0.025975992903113365,0.0013839011080563068,-0.8990010619163513,0.43717339634895325,[0. 0. 0. 0. 0. 0. 0. 0. 0.],0.1220703125,-0.6103515625,-0.06103515625,[0. 0. 0. 0. 0. 0. 0. 0. 0.],-0.04833984375,0.02001953125,1.0068359375,[0. 0. 0. 0. 0. 0. 0. 0. 0.]
4.166709661483765,0.02580670826137066,0.0020839825738221407,-0.8990223407745361,0.43713685870170593,[0. 0. 0. 0. 0. 0. 0. 0. 0.],0.42724609375,-0.91552734375,-0.1220703125,[0. 0. 0. 0. 0. 0. 0. 0. 0.],-0.048828125,0.01806640625,1.00341796875,[0. 0. 0. 0. 0. 0. 0. 0. 0.]
4.186779737472534,0.02546245977282524,0.0016680569387972355,-0.8990364670753479,0.43712955713272095,[0. 0. 0. 0. 0. 0. 0. 0. 0.],-0.06103515625,-1.03759765625,-0.30517578125,[0. 0. 0. 0. 0. 0. 0. 0. 0.],-0.0478515625,0.01953125,1.001953125,[0. 0. 0. 0. 0. 0. 0. 0. 0.]
4.208501815795898,0.025659212842583656,0.0015153794083744287,-0.8990350365638733,0.43712174892425537,[0. 0. 0. 0. 0. 0. 0. 0. 0.],-0.54931640625,-0.48828125,-0.1220703125,[0. 0. 0. 0. 0. 0. 0. 0. 0.],-0.0478515625,0.02001953125,1.00244140625,[0. 0. 0. 0. 0. 0. 0. 0. 0.]
4.2267608642578125,0.026033949106931686,0.0021132936235517263,-0.8990445733070374,0.4370775818824768,[0. 0. 0. 0. 0. 0. 0. 0. 0.],-0.1220703125,-0.244140625,-0.06103515625,[0. 0. 0. 0. 0. 0. 0. 0. 0.],-0.04931640625,0.01904296875,1.00439453125,[0. 0. 0. 0. 0. 0. 0. 0. 0.]
4.242272138595581,0.025992071256041527,0.002053694799542427,-0.8990533947944641,0.4370619058609009,[0. 0. 0. 0. 0. 0. 0. 0. 0.],0.42724609375,-0.54931640625,0.0,[0. 0. 0. 0. 0. 0. 0. 0. 0.],-0.048828125,0.01904296875,1.00390625,[0. 0. 0. 0. 0. 0. 0. 0. 0.]
4.269525766372681,0.02664191834628582,0.002077625598758459,-0.8990498781204224,0.43703001737594604,[0. 0. 0. 0. 0. 0. 0. 0. 0.],-0.18310546875,-1.0986328125,-0.18310546875,[0. 0. 0. 0. 0. 0. 0. 0. 0.],-0.0498046875,0.02001953125,1.00341796875,[0. 0. 0. 0. 0. 0. 0. 0. 0.]
4.286989450454712,0.026062995195388794,0.002230649348348379,-0.8990805149078369,0.4370010793209076,[0. 0. 0. 0. 0. 0. 0. 0. 0.],-0.06103515625,-0.8544921875,-0.18310546875,[0. 0. 0. 0. 0. 0. 0. 0. 0.],-0.04931640625,0.01904296875,1.00341796875,[0. 0. 0. 0. 0. 0. 0. 0. 0.]
4.303645372390747,0.02593214437365532,0.0014038847293704748,-0.8990858197212219,0.43700161576271057,[0. 0. 0. 0. 0. 0. 0. 0. 0.],-0.06103515625,-0.48828125,-0.1220703125,[0. 0. 0. 0. 0. 0. 0. 0. 0.],-0.04833984375,0.02001953125,1.00048828125,[0. 0. 0. 0. 0. 0. 0. 0. 0.]
4.321908712387085,0.025169845670461655,0.002567947842180729,-0.89912348985672,0.43696340918540955,[0. 0. 0. 0. 0. 0. 0. 0. 0.],-7.38525390625,-0.48828125,-0.30517578125,[0. 0. 0. 0. 0. 0. 0. 0. 0.],-0.04296875,-0.04736328125,0.9609375,[0. 0. 0. 0. 0. 0. 0. 0. 0.]
4.346822738647461,0.023959878832101822,0.005903943441808224,-0.8990557789802551,0.43713831901550293,[0. 0. 0. 0. 0. 0. 0. 0. 0.],-7.75146484375,-2.8076171875,-0.91552734375,[0. 0. 0. 0. 0. 0. 0. 0. 0.],-0.046875,-0.34033203125,1.0498046875,[0. 0. 0. 0. 0. 0. 0. 0. 0.]
4.367824554443359,0.023108787834644318,0.007076206151396036,-0.8991363048553467,0.4370010197162628,[0. 0. 0. 0. 0. 0. 0. 0. 0.],0.9765625,1.52587890625,1.220703125,[0. 0. 0. 0. 0. 0. 0. 0. 0.],-0.0546875,-0.2763671875,1.0458984375,[0. 0. 0. 0. 0. 0. 0. 0. 0.]
4.3819239139556885,0.021899370476603508,0.008300790563225746,-0.8992648124694824,0.4367772936820984,[0. 0. 0. 0. 0. 0. 0. 0. 0.],-2.01416015625,-1.46484375,0.06103515625,[0. 0. 0. 0. 0. 0. 0. 0. 0.],-0.06689453125,-0.26318359375,0.9833984375,[0. 0. 0. 0. 0. 0. 0. 0. 0.]
4.409572601318359,0.02055017650127411,0.009786641225218773,-0.8993291854858398,0.4366793930530548,[0. 0. 0. 0. 0. 0. 0. 0. 0.],-2.44140625,-6.77490234375,-0.42724609375,[0. 0. 0. 0. 0. 0. 0. 0. 0.],-0.0625,-0.2685546875,0.98388671875,[0. 0. 0. 0. 0. 0. 0. 0. 0.]
4.4218080043792725,0.01905044913291931,0.011415942572057247,-0.8993626832962036,0.4366390109062195,[0. 0. 0. 0. 0. 0. 0. 0. 0.],-1.953125,-2.44140625,-0.06103515625,[0. 0. 0. 0. 0. 0. 0. 0. 0.],-0.05224609375,-0.26953125,0.94482421875,[0. 0. 0. 0. 0. 0. 0. 0. 0.]
4.446834087371826,0.017357613891363144,0.012997353449463844,-0.8994072675704956,0.43657347559928894,[0. 0. 0. 0. 0. 0. 0. 0. 0.],-1.40380859375,-4.638671875,0.244140625,[0. 0. 0. 0. 0. 0. 0. 0. 0.],-0.05078125,-0.2705078125,0.96435546875,[0. 0. 0. 0. 0. 0. 0. 0. 0.]
4.462395668029785,0.016038186848163605,0.014784228056669235,-0.8995170593261719,0.436340868473053,[0. 0. 0. 0. 0. 0. 0. 0. 0.],-2.13623046875,0.06103515625,-1.52587890625,[0. 0. 0. 0. 0. 0. 0. 0. 0.],-0.00390625,-0.25341796875,1.00146484375,[0. 0. 0. 0. 0. 0. 0. 0. 0.]
4.487051248550415,0.014725024811923504,0.01634802110493183,-0.8997031450271606,0.4359476566314697,[0. 0. 0. 0. 0. 0. 0. 0. 0.],-0.48828125,-1.3427734375,-1.8310546875,[0. 0. 0. 0. 0. 0. 0. 0. 0.],-0.033203125,-0.22998046875,1.0400390625,[0. 0. 0. 0. 0. 0. 0. 0. 0.]
4.50704288482666,0.013838703744113445,0.018324777483940125,-0.8997403383255005,0.43582114577293396,[0. 0. 0. 0. 0. 0. 0. 0. 0.],-3.5400390625,-3.96728515625,-0.9765625,[0. 0. 0. 0. 0. 0. 0. 0. 0.],-0.08056640625,-0.21923828125,0.96630859375,[0. 0. 0. 0. 0. 0. 0. 0. 0.]
4.526758670806885,0.01274261437356472,0.020184729248285294,-0.899659276008606,0.43593961000442505,[0. 0. 0. 0. 0. 0. 0. 0. 0.],-1.52587890625,-4.150390625,0.9765625,[0. 0. 0. 0. 0. 0. 0. 0. 0.],-0.076171875,-0.23828125,1.0048828125,[0. 0. 0. 0. 0. 0. 0. 0. 0.]
4.547612190246582,0.011534813791513443,0.020378291606903076,-0.8996304869651794,0.4360237419605255,[0. 0. 0. 0. 0. 0. 0. 0. 0.],6.9580078125,-6.4697265625,0.54931640625,[0. 0. 0. 0. 0. 0. 0. 0. 0.],-0.037109375,-0.20703125,1.05615234375,[0. 0. 0. 0. 0. 0. 0. 0. 0.]
4.566892385482788,0.009870816022157669,0.020772086456418037,-0.8997476100921631,0.43580421805381775,[0. 0. 0. 0. 0. 0. 0. 0. 0.],0.48828125,-5.43212890625,-3.0517578125,[0. 0. 0. 0. 0. 0. 0. 0. 0.],0.0048828125,-0.138671875,0.93701171875,[0. 0. 0. 0. 0. 0. 0. 0. 0.]
4.582883834838867,0.007952792569994926,0.022541791200637817,-0.8999532461166382,0.43533068895339966,[0. 0. 0. 0. 0. 0. 0. 0. 0.],-5.55419921875,-2.0751953125,-2.99072265625,[0. 0. 0. 0. 0. 0. 0. 0. 0.],-0.0078125,-0.125,0.953125,[0. 0. 0. 0. 0. 0. 0. 0. 0.]
4.607929229736328,0.0068799350410699844,0.0240048635751009,-0.9002010822296143,0.43475785851478577,[0. 0. 0. 0. 0. 0. 0. 0. 0.],0.1220703125,1.8310546875,-3.41796875,[0. 0. 0. 0. 0. 0. 0. 0. 0.],-0.0048828125,-0.0947265625,1.1083984375,[0. 0. 0. 0. 0. 0. 0. 0. 0.]
4.630383014678955,0.006385367829352617,0.02553233690559864,-0.9003373980522156,0.4343961179256439,[0. 0. 0. 0. 0. 0. 0. 0. 0.],-0.48828125,-0.732421875,-3.72314453125,[0. 0. 0. 0. 0. 0. 0. 0. 0.],-0.0302734375,-0.12646484375,1.03759765625,[0. 0. 0. 0. 0. 0. 0. 0. 0.]
4.649069547653198,0.006696351803839207,0.026868699118494987,-0.9004067182540894,0.4341670870780945,[0. 0. 0. 0. 0. 0. 0. 0. 0.],1.0986328125,-1.40380859375,-1.28173828125,[0. 0. 0. 0. 0. 0. 0. 0. 0.],-0.08447265625,-0.0791015625,0.97119140625,[0. 0. 0. 0. 0. 0. 0. 0. 0.]
4.662202835083008,0.007622923236340284,0.02818118967115879,-0.9004377126693726,0.4340042471885681,[0. 0. 0. 0. 0. 0. 0. 0. 0.],2.86865234375,-1.40380859375,-0.42724609375,[0. 0. 0. 0. 0. 0. 0. 0. 0.],-0.0771484375,-0.076171875,0.96533203125,[0. 0. 0. 0. 0. 0. 0. 0. 0.]
4.696404218673706,0.007123173214495182,0.029556985944509506,-0.9005162715911865,0.4337582290172577,[0. 0. 0. 0. 0. 0. 0. 0. 0.],1.220703125,-1.5869140625,-1.89208984375,[0. 0. 0. 0. 0. 0. 0. 0. 0.],-0.03369140625,-0.0673828125,1.0029296875,[0. 0. 0. 0. 0. 0. 0. 0. 0.]
4.702049970626831,0.007078845985233784,0.030740607529878616,-0.9006158709526062,0.4334697127342224,[0. 0. 0. 0. 0. 0. 0. 0. 0.],1.0986328125,-3.0517578125,-2.197265625,[0. 0. 0. 0. 0. 0. 0. 0. 0.],-0.04736328125,-0.0537109375,1.00927734375,[0. 0. 0. 0. 0. 0. 0. 0. 0.]
4.723401784896851,0.0053354427218437195,0.03027867153286934,-0.900915265083313,0.4329046905040741,[0. 0. 0. 0. 0. 0. 0. 0. 0.],0.8544921875,1.708984375,-3.7841796875,[0. 0. 0. 0. 0. 0. 0. 0. 0.],-0.00927734375,-0.052734375,1.0029296875,[0. 0. 0. 0. 0. 0. 0. 0. 0.]
4.747232913970947,0.004597168415784836,0.029386093840003014,-0.9012362360954285,0.4323062598705292,[0. 0. 0. 0. 0. 0. 0. 0. 0.],0.48828125,0.42724609375,-3.2958984375,[0. 0. 0. 0. 0. 0. 0. 0. 0.],-0.03466796875,-0.0439453125,0.9560546875,[0. 0. 0. 0. 0. 0. 0. 0. 0.]
4.774213075637817,0.005635000765323639,0.028524350374937057,-0.9014498591423035,0.431906133890152,[0. 0. 0. 0. 0. 0. 0. 0. 0.],-3.47900390625,-0.54931640625,-1.953125,[0. 0. 0. 0. 0. 0. 0. 0. 0.],-0.04736328125,-0.013671875,0.931640625,[0. 0. 0. 0. 0. 0. 0. 0. 0.]
4.787414312362671,0.005973775405436754,0.028102807700634003,-0.9016492366790771,0.4315128028392792,[0. 0. 0. 0. 0. 0. 0. 0. 0.],-3.84521484375,5.9814453125,-2.38037109375,[0. 0. 0. 0. 0. 0. 0. 0. 0.],-0.0107421875,-0.02392578125,1.017578125,[0. 0. 0. 0. 0. 0. 0. 0. 0.]
4.807300567626953,0.006279249209910631,0.026639696210622787,-0.9019860625267029,0.4308967888355255,[0. 0. 0. 0. 0. 0. 0. 0. 0.],6.77490234375,2.50244140625,-4.0283203125,[0. 0. 0. 0. 0. 0. 0. 0. 0.],-0.03515625,-0.03564453125,1.18701171875,[0. 0. 0. 0. 0. 0. 0. 0. 0.]
4.826828241348267,0.00783305149525404,0.02475903369486332,-0.9025057554244995,0.42989420890808105,[0. 0. 0. 0. 0. 0. 0. 0. 0.],3.2958984375,0.18310546875,-9.21630859375,[0. 0. 0. 0. 0. 0. 0. 0. 0.],-0.04443359375,0.00439453125,1.02294921875,[0. 0. 0. 0. 0. 0. 0. 0. 0.]
4.84686541557312,0.009664184413850307,0.024260252714157104,-0.9036189913749695,0.4275405704975128,[0. 0. 0. 0. 0. 0. 0. 0. 0.],-3.662109375,6.7138671875,-18.00537109375,[0. 0. 0. 0. 0. 0. 0. 0. 0.],-0.08056640625,0.04541015625,0.8388671875,[0. 0. 0. 0. 0. 0. 0. 0. 0.]
4.867125034332275,0.012375783175230026,0.02426859363913536,-0.9053204655647278,0.423854798078537,[0. 0. 0. 0. 0. 0. 0. 0. 0.],8.1787109375,4.2724609375,-26.611328125,[0. 0. 0. 0. 0. 0. 0. 0. 0.],-0.16064453125,-0.013671875,1.0615234375,[0. 0. 0. 0. 0. 0. 0. 0. 0.]
4.887584447860718,0.015211387537419796,0.023501498624682426,-0.9074892997741699,0.41914141178131104,[0. 0. 0. 0. 0. 0. 0. 0. 0.],6.53076171875,1.64794921875,-32.04345703125,[0. 0. 0. 0. 0. 0. 0. 0. 0.],-0.181640625,0.03271484375,1.0244140625,[0. 0. 0. 0. 0. 0. 0. 0. 0.]
4.907390594482422,0.016682442277669907,0.023016253486275673,-0.9100644588470459,0.4134909212589264,[0. 0. 0. 0. 0. 0. 0. 0. 0.],-1.0986328125,-2.9296875,-38.02490234375,[0. 0. 0. 0. 0. 0. 0. 0. 0.],-0.1875,0.0712890625,0.9814453125,[0. 0. 0. 0. 0. 0. 0. 0. 0.]
4.926734447479248,0.018149400129914284,0.02296401932835579,-0.9130154252052307,0.4068737030029297,[0. 0. 0. 0. 0. 0. 0. 0. 0.],-1.220703125,3.5400390625,-44.0673828125,[0. 0. 0. 0. 0. 0. 0. 0. 0.],-0.109375,0.0390625,1.03125,[0. 0. 0. 0. 0. 0. 0. 0. 0.]
4.947910308837891,0.019957320764660835,0.02279215306043625,-0.916263997554779,0.39942771196365356,[0. 0. 0. 0. 0. 0. 0. 0. 0.],2.8076171875,-1.708984375,-47.607421875,[0. 0. 0. 0. 0. 0. 0. 0. 0.],-0.1318359375,0.009765625,1.009765625,[0. 0. 0. 0. 0. 0. 0. 0. 0.]
4.966830492019653,0.02167237177491188,0.02238854393362999,-0.9194763898849487,0.3919084966182709,[0. 0. 0. 0. 0. 0. 0. 0. 0.],4.08935546875,0.9765625,-45.166015625,[0. 0. 0. 0. 0. 0. 0. 0. 0.],-0.1259765625,0.001953125,0.990234375,[0. 0. 0. 0. 0. 0. 0. 0. 0.]
4.986796855926514,0.023229585960507393,0.022400397807359695,-0.9223806858062744,0.38493192195892334,[0. 0. 0. 0. 0. 0. 0. 0. 0.],-1.8310546875,-2.99072265625,-42.05322265625,[0. 0. 0. 0. 0. 0. 0. 0. 0.],-0.126953125,0.02001953125,0.96875,[0. 0. 0. 0. 0. 0. 0. 0. 0.]
5.006791353225708,0.023664114996790886,0.0222232174128294,-0.9250809550285339,0.3783801794052124,[0. 0. 0. 0. 0. 0. 0. 0. 0.],1.46484375,-9.1552734375,-39.61181640625,[0. 0. 0. 0. 0. 0. 0. 0. 0.],-0.111328125,-0.01904296875,0.9833984375,[0. 0. 0. 0. 0. 0. 0. 0. 0.]
5.027153491973877,0.023048071190714836,0.02325911819934845,-0.9274272322654724,0.3725675046443939,[0. 0. 0. 0. 0. 0. 0. 0. 0.],-0.1220703125,0.42724609375,-33.3251953125,[0. 0. 0. 0. 0. 0. 0. 0. 0.],-0.0341796875,-0.07861328125,0.9794921875,[0. 0. 0. 0. 0. 0. 0. 0. 0.]
5.049355506896973,0.02207092009484768,0.02499602735042572,-0.9291099905967712,0.36829710006713867,[0. 0. 0. 0. 0. 0. 0. 0. 0.],0.48828125,0.0,-21.8505859375,[0. 0. 0. 0. 0. 0. 0. 0. 0.],-0.04638671875,-0.17919921875,1.0771484375,[0. 0. 0. 0. 0. 0. 0. 0. 0.]
5.06692099571228,0.021034875884652138,0.02694987691938877,-0.9300382733345032,0.36586904525756836,[0. 0. 0. 0. 0. 0. 0. 0. 0.],-2.62451171875,-5.06591796875,-11.23046875,[0. 0. 0. 0. 0. 0. 0. 0. 0.],-0.09033203125,-0.22021484375,1.0048828125,[0. 0. 0. 0. 0. 0. 0. 0. 0.]
5.082639932632446,0.01925847865641117,0.02784557081758976,-0.9305505156517029,0.36459487676620483,[0. 0. 0. 0. 0. 0. 0. 0. 0.],1.40380859375,-4.21142578125,-7.080078125,[0. 0. 0. 0. 0. 0. 0. 0. 0.],0.02392578125,-0.17431640625,1.03857421875,[0. 0. 0. 0. 0. 0. 0. 0. 0.]
5.104708433151245,0.017878113314509392,0.027826519683003426,-0.9308817386627197,0.3638206124305725,[0. 0. 0. 0. 0. 0. 0. 0. 0.],0.9765625,2.74658203125,-3.41796875,[0. 0. 0. 0. 0. 0. 0. 0. 0.],0.07421875,-0.111328125,0.9375,[0. 0. 0. 0. 0. 0. 0. 0. 0.]
5.124389886856079,0.016651077196002007,0.028602663427591324,-0.9311468005180359,0.3631397485733032,[0. 0. 0. 0. 0. 0. 0. 0. 0.],-0.9765625,3.23486328125,-4.39453125,[0. 0. 0. 0. 0. 0. 0. 0. 0.],0.02197265625,-0.10498046875,0.92822265625,[0. 0. 0. 0. 0. 0. 0. 0. 0.]
5.148861885070801,0.015470271930098534,0.02988790161907673,-0.9314712285995483,0.3622550368309021,[0. 0. 0. 0. 0. 0. 0. 0. 0.],-2.74658203125,1.3427734375,-6.591796875,[0. 0. 0. 0. 0. 0. 0. 0. 0.],-0.0078125,-0.0986328125,0.97021484375,[0. 0. 0. 0. 0. 0. 0. 0. 0.]
5.167686462402344,0.014659998938441277,0.031537819653749466,-0.9317513108253479,0.3614274859428406,[0. 0. 0. 0. 0. 0. 0. 0. 0.],-0.732421875,-8.36181640625,-5.37109375,[0. 0. 0. 0. 0. 0. 0. 0. 0.],-0.0888671875,-0.08740234375,1.03515625,[0. 0. 0. 0. 0. 0. 0. 0. 0.]
5.186856508255005,0.013971094973385334,0.031932197511196136,-0.9322336912155151,0.3601745367050171,[0. 0. 0. 0. 0. 0. 0. 0. 0.],3.0517578125,6.4697265625,-9.27734375,[0. 0. 0. 0. 0. 0. 0. 0. 0.],0.01806640625,-0.0654296875,1.12646484375,[0. 0. 0. 0. 0. 0. 0. 0. 0.]
5.206835746765137,0.014005841687321663,0.03146342933177948,-0.9327531456947327,0.35886693000793457,[0. 0. 0. 0. 0. 0. 0. 0. 0.],5.615234375,-2.86865234375,-6.4697265625,[0. 0. 0. 0. 0. 0. 0. 0. 0.],-0.12158203125,-0.06494140625,0.9951171875,[0. 0. 0. 0. 0. 0. 0. 0. 0.]
5.228496789932251,0.015847770497202873,0.03081767074763775,-0.9330911040306091,0.3579668700695038,[0. 0. 0. 0. 0. 0. 0. 0. 0.],5.06591796875,-0.06103515625,-5.43212890625,[0. 0. 0. 0. 0. 0. 0. 0. 0.],-0.0771484375,0.00244140625,0.884765625,[0. 0. 0. 0. 0. 0. 0. 0. 0.]
5.246930360794067,0.016176380217075348,0.02887779101729393,-0.9334903359413147,0.35707181692123413,[0. 0. 0. 0. 0. 0. 0. 0. 0.],-3.5400390625,-3.662109375,-4.638671875,[0. 0. 0. 0. 0. 0. 0. 0. 0.],-0.10791015625,0.140625,0.91259765625,[0. 0. 0. 0. 0. 0. 0. 0. 0.]
5.267135858535767,0.01602170243859291,0.028374982997775078,-0.9338436722755432,0.35619425773620605,[0. 0. 0. 0. 0. 0. 0. 0. 0.],-3.84521484375,-2.01416015625,-5.43212890625,[0. 0. 0. 0. 0. 0. 0. 0. 0.],-0.06591796875,0.1005859375,1.0419921875,[0. 0. 0. 0. 0. 0. 0. 0. 0.]
5.287160396575928,0.016532793641090393,0.025932418182492256,-0.9341965317726135,0.3554306626319885,[0. 0. 0. 0. 0. 0. 0. 0. 0.],6.65283203125,0.48828125,-3.60107421875,[0. 0. 0. 0. 0. 0. 0. 0. 0.],-0.0478515625,0.05908203125,1.126953125,[0. 0. 0. 0. 0. 0. 0. 0. 0.]
5.301961660385132,0.017559900879859924,0.023673994466662407,-0.93437260389328,0.3550761342048645,[0. 0. 0. 0. 0. 0. 0. 0. 0.],2.38037109375,-1.0986328125,-1.89208984375,[0. 0. 0. 0. 0. 0. 0. 0. 0.],-0.0693359375,0.11767578125,0.95166015625,[0. 0. 0. 0. 0. 0. 0. 0. 0.]
5.327069044113159,0.01757875829935074,0.02261352352797985,-0.9344357848167419,0.35497814416885376,[0. 0. 0. 0. 0. 0. 0. 0. 0.],-6.40869140625,-6.34765625,-1.220703125,[0. 0. 0. 0. 0. 0. 0. 0. 0.],-0.0771484375,0.1240234375,0.9404296875,[0. 0. 0. 0. 0. 0. 0. 0. 0.]
5.347233772277832,0.017303498461842537,0.020348545163869858,-0.9346261024475098,0.35462766885757446,[0. 0. 0. 0. 0. 0. 0. 0. 0.],7.26318359375,-2.197265625,-3.173828125,[0. 0. 0. 0. 0. 0. 0. 0. 0.],-0.025390625,0.06884765625,1.11865234375,[0. 0. 0. 0. 0. 0. 0. 0. 0.]
5.369282960891724,0.017766939476132393,0.0164151880890131,-0.9350283741950989,0.3537469506263733,[0. 0. 0. 0. 0. 0. 0. 0. 0.],15.07568359375,-3.11279296875,-6.53076171875,[0. 0. 0. 0. 0. 0. 0. 0. 0.],0.02978515625,0.189453125,1.13623046875,[0. 0. 0. 0. 0. 0. 0. 0. 0.]
5.3827223777771,0.01827324740588665,0.013970432803034782,-0.935286283493042,0.35314369201660156,[0. 0. 0. 0. 0. 0. 0. 0. 0.],2.01416015625,-4.21142578125,-2.86865234375,[0. 0. 0. 0. 0. 0. 0. 0. 0.],-0.04638671875,0.2578125,0.88427734375,[0. 0. 0. 0. 0. 0. 0. 0. 0.]
5.406744003295898,0.018551386892795563,0.01267753541469574,-0.9355109930038452,0.35258227586746216,[0. 0. 0. 0. 0. 0. 0. 0. 0.],-6.9580078125,7.4462890625,-2.86865234375,[0. 0. 0. 0. 0. 0. 0. 0. 0.],-0.00244140625,0.23193359375,0.939453125,[0. 0. 0. 0. 0. 0. 0. 0. 0.]
5.426691770553589,0.018904702737927437,0.011563017964363098,-0.9358189702033997,0.35178396105766296,[0. 0. 0. 0. 0. 0. 0. 0. 0.],-0.244140625,0.1220703125,-5.37109375,[0. 0. 0. 0. 0. 0. 0. 0. 0.],-0.0166015625,0.14306640625,1.0478515625,[0. 0. 0. 0. 0. 0. 0. 0. 0.]
5.44777512550354,0.019766390323638916,0.010110978037118912,-0.9361211061477661,0.3509764075279236,[0. 0. 0. 0. 0. 0. 0. 0. 0.],0.8544921875,-0.54931640625,-5.7373046875,[0. 0. 0. 0. 0. 0. 0. 0. 0.],-0.04052734375,0.13916015625,0.99560546875,[0. 0. 0. 0. 0. 0. 0. 0. 0.]
5.46242618560791,0.020358042791485786,0.00854536984115839,-0.9365073442459106,0.34995222091674805,[0. 0. 0. 0. 0. 0. 0. 0. 0.],0.79345703125,2.44140625,-6.7138671875,[0. 0. 0. 0. 0. 0. 0. 0. 0.],-0.02490234375,0.158203125,0.9765625,[0. 0. 0. 0. 0. 0. 0. 0. 0.]
5.4872307777404785,0.020655402913689613,0.006972903851419687,-0.9369310736656189,0.34883368015289307,[0. 0. 0. 0. 0. 0. 0. 0. 0.],-1.77001953125,-1.89208984375,-7.38525390625,[0. 0. 0. 0. 0. 0. 0. 0. 0.],-0.0419921875,0.130859375,0.99462890625,[0. 0. 0. 0. 0. 0. 0. 0. 0.]
5.501897573471069,0.02096620760858059,0.005234017502516508,-0.9372913241386414,0.34787654876708984,[0. 0. 0. 0. 0. 0. 0. 0. 0.],1.5869140625,-3.662109375,-6.16455078125,[0. 0. 0. 0. 0. 0. 0. 0. 0.],-0.06884765625,0.12109375,1.03662109375,[0. 0. 0. 0. 0. 0. 0. 0. 0.]
5.527682304382324,0.022348981350660324,0.004201549105346203,-0.9375606775283813,0.3470776677131653,[0. 0. 0. 0. 0. 0. 0. 0. 0.],-1.3427734375,8.85009765625,-5.126953125,[0. 0. 0. 0. 0. 0. 0. 0. 0.],-0.03076171875,0.13134765625,1.05615234375,[0. 0. 0. 0. 0. 0. 0. 0. 0.]
5.54720664024353,0.02379341423511505,0.002530357101932168,-0.9378519654273987,0.346209853887558,[0. 0. 0. 0. 0. 0. 0. 0. 0.],3.7841796875,3.35693359375,-6.2255859375,[0. 0. 0. 0. 0. 0. 0. 0. 0.],-0.068359375,0.11083984375,1.09765625,[0. 0. 0. 0. 0. 0. 0. 0. 0.]
5.567407846450806,0.026005886495113373,0.0006264495896175504,-0.9385190606117249,0.3442460894584656,[0. 0. 0. 0. 0. 0. 0. 0. 0.],7.50732421875,7.87353515625,-15.68603515625,[0. 0. 0. 0. 0. 0. 0. 0. 0.],-0.07177734375,0.1162109375,0.970703125,[0. 0. 0. 0. 0. 0. 0. 0. 0.]
5.587035417556763,0.0284121111035347,-0.0005826297565363348,-0.9396947622299194,0.3408315181732178,[0. 0. 0. 0. 0. 0. 0. 0. 0.],1.28173828125,1.64794921875,-23.98681640625,[0. 0. 0. 0. 0. 0. 0. 0. 0.],-0.15185546875,0.14501953125,0.86962890625,[0. 0. 0. 0. 0. 0. 0. 0. 0.]
5.607387542724609,0.02997005358338356,-0.001182283740490675,-0.9412940740585327,0.3362526297569275,[0. 0. 0. 0. 0. 0. 0. 0. 0.],-1.46484375,0.1220703125,-29.78515625,[0. 0. 0. 0. 0. 0. 0. 0. 0.],-0.13818359375,0.14208984375,1.00732421875,[0. 0. 0. 0. 0. 0. 0. 0. 0.]
5.6271398067474365,0.03126947581768036,-0.0017578020924702287,-0.9432101845741272,0.3307170271873474,[0. 0. 0. 0. 0. 0. 0. 0. 0.],-3.0517578125,1.708984375,-34.60693359375,[0. 0. 0. 0. 0. 0. 0. 0. 0.],-0.115234375,0.13037109375,1.0390625,[0. 0. 0. 0. 0. 0. 0. 0. 0.]
5.64670991897583,0.03271707519888878,-0.002014756202697754,-0.9453113079071045,0.32451850175857544,[0. 0. 0. 0. 0. 0. 0. 0. 0.],-2.50244140625,2.86865234375,-39.6728515625,[0. 0. 0. 0. 0. 0. 0. 0. 0.],-0.10888671875,0.1064453125,1.00732421875,[0. 0. 0. 0. 0. 0. 0. 0. 0.]
5.666663408279419,0.0345795564353466,-0.002689631888642907,-0.9474895000457764,0.31790056824684143,[0. 0. 0. 0. 0. 0. 0. 0. 0.],2.99072265625,1.46484375,-40.46630859375,[0. 0. 0. 0. 0. 0. 0. 0. 0.],-0.12255859375,0.07958984375,1.013671875,[0. 0. 0. 0. 0. 0. 0. 0. 0.]
5.687266826629639,0.036182064563035965,-0.003793492680415511,-0.949591875076294,0.3113706409931183,[0. 0. 0. 0. 0. 0. 0. 0. 0.],1.52587890625,-4.0283203125,-39.1845703125,[0. 0. 0. 0. 0. 0. 0. 0. 0.],-0.119140625,0.0947265625,0.978515625,[0. 0. 0. 0. 0. 0. 0. 0. 0.]
5.706931114196777,0.0370473749935627,-0.004319658502936363,-0.9515498876571655,0.3052240014076233,[0. 0. 0. 0. 0. 0. 0. 0. 0.],-4.94384765625,-1.40380859375,-36.07177734375,[0. 0. 0. 0. 0. 0. 0. 0. 0.],-0.10400390625,0.0947265625,0.9833984375,[0. 0. 0. 0. 0. 0. 0. 0. 0.]
5.727025270462036,0.03707004711031914,-0.005443089175969362,-0.9533886909484863,0.2994098961353302,[0. 0. 0. 0. 0. 0. 0. 0. 0.],-0.8544921875,-3.47900390625,-33.935546875,[0. 0. 0. 0. 0. 0. 0. 0. 0.],-0.0625,0.06103515625,1.04296875,[0. 0. 0. 0. 0. 0. 0. 0. 0.]
5.742186069488525,0.03640947863459587,-0.006690606940537691,-0.955051600933075,0.2941194772720337,[0. 0. 0. 0. 0. 0. 0. 0. 0.],-0.3662109375,2.74658203125,-30.09033203125,[0. 0. 0. 0. 0. 0. 0. 0. 0.],-0.0322265625,0.0693359375,1.04833984375,[0. 0. 0. 0. 0. 0. 0. 0. 0.]
5.7707788944244385,0.0362112782895565,-0.008335573598742485,-0.95632404088974,0.28993746638298035,[0. 0. 0. 0. 0. 0. 0. 0. 0.],1.46484375,-6.4697265625,-21.728515625,[0. 0. 0. 0. 0. 0. 0. 0. 0.],-0.080078125,0.060546875,1.00732421875,[0. 0. 0. 0. 0. 0. 0. 0. 0.]
5.786727428436279,0.03499322757124901,-0.008611511439085007,-0.9571418762207031,0.2873687744140625,[0. 0. 0. 0. 0. 0. 0. 0. 0.],2.9296875,-10.498046875,-12.0849609375,[0. 0. 0. 0. 0. 0. 0. 0. 0.],-0.0498046875,0.029296875,0.9921875,[0. 0. 0. 0. 0. 0. 0. 0. 0.]
5.811816692352295,0.03171787038445473,-0.009244664572179317,-0.9576320052146912,0.28609374165534973,[0. 0. 0. 0. 0. 0. 0. 0. 0.],3.173828125,-0.91552734375,-2.86865234375,[0. 0. 0. 0. 0. 0. 0. 0. 0.],0.0068359375,0.00390625,0.9541015625,[0. 0. 0. 0. 0. 0. 0. 0. 0.]
5.826998472213745,0.02995421551167965,-0.01042537484318018,-0.9577650427818298,0.2857973873615265,[0. 0. 0. 0. 0. 0. 0. 0. 0.],8.30078125,-3.96728515625,-2.3193359375,[0. 0. 0. 0. 0. 0. 0. 0. 0.],0.03955078125,0.07958984375,1.05859375,[0. 0. 0. 0. 0. 0. 0. 0. 0.]
5.8497092723846436,0.02927970141172409,-0.01332784816622734,-0.9576685428619385,0.2860702872276306,[0. 0. 0. 0. 0. 0. 0. 0. 0.],9.46044921875,-4.150390625,2.197265625,[0. 0. 0. 0. 0. 0. 0. 0. 0.],0.02587890625,0.19970703125,1.14453125,[0. 0. 0. 0. 0. 0. 0. 0. 0.]
5.866786479949951,0.029032262042164803,-0.01612469181418419,-0.957272469997406,0.287274569272995,[0. 0. 0. 0. 0. 0. 0. 0. 0.],1.64794921875,-7.9345703125,9.33837890625,[0. 0. 0. 0. 0. 0. 0. 0. 0.],-0.029296875,0.34423828125,0.8984375,[0. 0. 0. 0. 0. 0. 0. 0. 0.]
5.887125492095947,0.02833634987473488,-0.01819000393152237,-0.9566817879676819,0.2891819179058075,[0. 0. 0. 0. 0. 0. 0. 0. 0.],-0.67138671875,-2.50244140625,12.939453125,[0. 0. 0. 0. 0. 0. 0. 0. 0.],0.01611328125,0.31494140625,0.9326171875,[0. 0. 0. 0. 0. 0. 0. 0. 0.]
5.906791925430298,0.02818356640636921,-0.020152537152171135,-0.9558646082878113,0.2917573153972626,[0. 0. 0. 0. 0. 0. 0. 0. 0.],1.89208984375,-1.64794921875,16.66259765625,[0. 0. 0. 0. 0. 0. 0. 0. 0.],0.0078125,0.29833984375,1.06787109375,[0. 0. 0. 0. 0. 0. 0. 0. 0.]
5.930614471435547,0.028225241228938103,-0.022363701835274696,-0.954871654510498,0.29482778906822205,[0. 0. 0. 0. 0. 0. 0. 0. 0.],2.62451171875,0.06103515625,18.73779296875,[0. 0. 0. 0. 0. 0. 0. 0. 0.],-0.013671875,0.298828125,1.0390625,[0. 0. 0. 0. 0. 0. 0. 0. 0.]
5.947166204452515,0.028438851237297058,-0.024149790406227112,-0.9538542032241821,0.2979431748390198,[0. 0. 0. 0. 0. 0. 0. 0. 0.],1.40380859375,-3.173828125,18.12744140625,[0. 0. 0. 0. 0. 0. 0. 0. 0.],-0.01904296875,0.29345703125,1.0048828125,[0. 0. 0. 0. 0. 0. 0. 0. 0.]
5.966956853866577,0.028638338670134544,-0.025861121714115143,-0.9528669118881226,0.30092474818229675,[0. 0. 0. 0. 0. 0. 0. 0. 0.],0.3662109375,-0.18310546875,17.02880859375,[0. 0. 0. 0. 0. 0. 0. 0. 0.],-0.0146484375,0.275390625,0.998046875,[0. 0. 0. 0. 0. 0. 0. 0. 0.]
5.987308740615845,0.028846239671111107,-0.027586089447140694,-0.9520540237426758,0.3033149540424347,[0. 0. 0. 0. 0. 0. 0. 0. 0.],-0.54931640625,1.8310546875,12.8173828125,[0. 0. 0. 0. 0. 0. 0. 0. 0.],-0.01708984375,0.24267578125,0.98046875,[0. 0. 0. 0. 0. 0. 0. 0. 0.]
6.006980657577515,0.029389020055532455,-0.02889302931725979,-0.9514583349227905,0.30500587821006775,[0. 0. 0. 0. 0. 0. 0. 0. 0.],-0.48828125,-1.52587890625,9.1552734375,[0. 0. 0. 0. 0. 0. 0. 0. 0.],-0.0615234375,0.21923828125,1.00146484375,[0. 0. 0. 0. 0. 0. 0. 0. 0.]
6.027200937271118,0.029873061925172806,-0.03045540116727352,-0.9509362578392029,0.30643171072006226,[0. 0. 0. 0. 0. 0. 0. 0. 0.],0.06103515625,-2.38037109375,8.30078125,[0. 0. 0. 0. 0. 0. 0. 0. 0.],-0.07177734375,0.19091796875,1.00439453125,[0. 0. 0. 0. 0. 0. 0. 0. 0.]
6.047654867172241,0.03042592480778694,-0.0320051945745945,-0.9504712224006653,0.30765965580940247,[0. 0. 0. 0. 0. 0. 0. 0. 0.],0.1220703125,-0.06103515625,6.53076171875,[0. 0. 0. 0. 0. 0. 0. 0. 0.],-0.0361328125,0.18310546875,1.015625,[0. 0. 0. 0. 0. 0. 0. 0. 0.]
6.067368984222412,0.030519109219312668,-0.03359273821115494,-0.9501188397407532,0.30856820940971375,[0. 0. 0. 0. 0. 0. 0. 0. 0.],-0.6103515625,0.0,5.31005859375,[0. 0. 0. 0. 0. 0. 0. 0. 0.],-0.0263671875,0.1796875,1.0185546875,[0. 0. 0. 0. 0. 0. 0. 0. 0.]
6.086987257003784,0.030750464648008347,-0.03514746576547623,-0.9498279690742493,0.3092668652534485,[0. 0. 0. 0. 0. 0. 0. 0. 0.],-1.40380859375,0.9765625,4.8828125,[0. 0. 0. 0. 0. 0. 0. 0. 0.],-0.03564453125,0.1494140625,0.99169921875,[0. 0. 0. 0. 0. 0. 0. 0. 0.]
6.1083550453186035,0.03141751512885094,-0.03481338545680046,-0.949612021446228,0.30990010499954224,[0. 0. 0. 0. 0. 0. 0. 0. 0.],-4.21142578125,2.13623046875,5.2490234375,[0. 0. 0. 0. 0. 0. 0. 0. 0.],-0.04638671875,0.060546875,0.96923828125,[0. 0. 0. 0. 0. 0. 0. 0. 0.]
6.1280341148376465,0.030303262174129486,-0.03183900937438011,-0.9495320320129395,0.31057530641555786,[0. 0. 0. 0. 0. 0. 0. 0. 0.],-7.8125,1.953125,4.82177734375,[0. 0. 0. 0. 0. 0. 0. 0. 0.],-0.01416015625,-0.1298828125,0.95849609375,[0. 0. 0. 0. 0. 0. 0. 0. 0.]
6.143623352050781,0.02950948104262352,-0.02987860143184662,-0.9493394494056702,0.31143417954444885,[0. 0. 0. 0. 0. 0. 0. 0. 0.],-2.74658203125,3.7841796875,8.1787109375,[0. 0. 0. 0. 0. 0. 0. 0. 0.],-0.01513671875,-0.13818359375,1.0615234375,[0. 0. 0. 0. 0. 0. 0. 0. 0.]
6.167240619659424,0.02820117585361004,-0.02797764167189598,-0.9490514397621155,0.31260743737220764,[0. 0. 0. 0. 0. 0. 0. 0. 0.],-4.8828125,3.41796875,9.033203125,[0. 0. 0. 0. 0. 0. 0. 0. 0.],0.0263671875,-0.19970703125,0.95556640625,[0. 0. 0. 0. 0. 0. 0. 0. 0.]
6.187069416046143,0.02728511579334736,-0.025746071711182594,-0.9486847519874573,0.31399035453796387,[0. 0. 0. 0. 0. 0. 0. 0. 0.],-2.62451171875,2.0751953125,10.7421875,[0. 0. 0. 0. 0. 0. 0. 0. 0.],0.0146484375,-0.20654296875,1.009765625,[0. 0. 0. 0. 0. 0. 0. 0. 0.]
6.204272270202637,0.027510181069374084,-0.02569483034312725,-0.94805908203125,0.31585922837257385,[0. 0. 0. 0. 0. 0. 0. 0. 0.],16.4794921875,-0.8544921875,10.6201171875,[0. 0. 0. 0. 0. 0. 0. 0. 0.],-0.06982421875,0.04833984375,1.13134765625,[0. 0. 0. 0. 0. 0. 0. 0. 0.]
6.2234742641448975,0.0285632386803627,-0.023445451632142067,-0.947172999382019,0.31858712434768677,[0. 0. 0. 0. 0. 0. 0. 0. 0.],-13.12255859375,-0.48828125,14.95361328125,[0. 0. 0. 0. 0. 0. 0. 0. 0.],-0.1162109375,-0.1298828125,0.806640625,[0. 0. 0. 0. 0. 0. 0. 0. 0.]
6.247865200042725,0.02635354921221733,-0.020226679742336273,-0.9465013146400452,0.3209856152534485,[0. 0. 0. 0. 0. 0. 0. 0. 0.],-13.12255859375,-1.3427734375,17.63916015625,[0. 0. 0. 0. 0. 0. 0. 0. 0.],-0.0126953125,-0.2998046875,1.00439453125,[0. 0. 0. 0. 0. 0. 0. 0. 0.]
6.262700796127319,0.024593984708189964,-0.017731979489326477,-0.9454089403152466,0.32447299361228943,[0. 0. 0. 0. 0. 0. 0. 0. 0.],-6.28662109375,-5.37109375,22.5830078125,[0. 0. 0. 0. 0. 0. 0. 0. 0.],-0.01171875,-0.30224609375,1.0693359375,[0. 0. 0. 0. 0. 0. 0. 0. 0.]
6.287055730819702,0.02321545220911503,-0.016126111149787903,-0.9439318180084229,0.32892829179763794,[0. 0. 0. 0. 0. 0. 0. 0. 0.],0.1220703125,-3.0517578125,29.541015625,[0. 0. 0. 0. 0. 0. 0. 0. 0.],-0.03076171875,-0.2939453125,1.01171875,[0. 0. 0. 0. 0. 0. 0. 0. 0.]
6.306985855102539,0.022153565660119057,-0.015299748629331589,-0.9422645568847656,0.3337855041027069,[0. 0. 0. 0. 0. 0. 0. 0. 0.],4.39453125,1.5869140625,31.982421875,[0. 0. 0. 0. 0. 0. 0. 0. 0.],0.01318359375,-0.31396484375,1.07666015625,[0. 0. 0. 0. 0. 0. 0. 0. 0.]
6.327375173568726,0.02095801942050457,-0.01462861243635416,-0.9404492974281311,0.33897167444229126,[0. 0. 0. 0. 0. 0. 0. 0. 0.],-1.03759765625,0.79345703125,34.24072265625,[0. 0. 0. 0. 0. 0. 0. 0. 0.],0.03076171875,-0.24560546875,0.96533203125,[0. 0. 0. 0. 0. 0. 0. 0. 0.]
6.342094898223877,0.019189734011888504,-0.013859633356332779,-0.938425600528717,0.3446696102619171,[0. 0. 0. 0. 0. 0. 0. 0. 0.],2.8076171875,-6.9580078125,35.94970703125,[0. 0. 0. 0. 0. 0. 0. 0. 0.],0.02197265625,-0.248046875,0.92724609375,[0. 0. 0. 0. 0. 0. 0. 0. 0.]
6.367249488830566,0.01797383837401867,-0.012570156715810299,-0.9361578226089478,0.3508954644203186,[0. 0. 0. 0. 0. 0. 0. 0. 0.],2.5634765625,-3.11279296875,36.62109375,[0. 0. 0. 0. 0. 0. 0. 0. 0.],0.0693359375,-0.25732421875,0.9931640625,[0. 0. 0. 0. 0. 0. 0. 0. 0.]
6.387471675872803,0.016562212258577347,-0.011662019416689873,-0.9337586760520935,0.35732975602149963,[0. 0. 0. 0. 0. 0. 0. 0. 0.],0.9765625,-5.37109375,39.794921875,[0. 0. 0. 0. 0. 0. 0. 0. 0.],0.0263671875,-0.2255859375,0.97509765625,[0. 0. 0. 0. 0. 0. 0. 0. 0.]
6.406992435455322,0.014291876927018166,-0.010709830559790134,-0.9312978982925415,0.3638204038143158,[0. 0. 0. 0. 0. 0. 0. 0. 0.],-3.41796875,-4.150390625,41.44287109375,[0. 0. 0. 0. 0. 0. 0. 0. 0.],0.04931640625,-0.20361328125,1.02734375,[0. 0. 0. 0. 0. 0. 0. 0. 0.]
6.428366184234619,0.01193876564502716,-0.009887855499982834,-0.9286829829216003,0.37055060267448425,[0. 0. 0. 0. 0. 0. 0. 0. 0.],-1.3427734375,-6.8359375,42.8466796875,[0. 0. 0. 0. 0. 0. 0. 0. 0.],0.09716796875,-0.17919921875,1.02734375,[0. 0. 0. 0. 0. 0. 0. 0. 0.]
6.44694709777832,0.009325914084911346,-0.009067927487194538,-0.9258617758750916,0.37763848900794983,[0. 0. 0. 0. 0. 0. 0. 0. 0.],-1.3427734375,-4.08935546875,44.189453125,[0. 0. 0. 0. 0. 0. 0. 0. 0.],0.0673828125,-0.1591796875,0.95166015625,[0. 0. 0. 0. 0. 0. 0. 0. 0.]
6.467423439025879,0.007899674586951733,-0.007958746515214443,-0.9229120016098022,0.3848477602005005,[0. 0. 0. 0. 0. 0. 0. 0. 0.],1.77001953125,0.18310546875,44.43359375,[0. 0. 0. 0. 0. 0. 0. 0. 0.],0.10107421875,-0.15380859375,1.01904296875,[0. 0. 0. 0. 0. 0. 0. 0. 0.]
6.487129211425781,0.006794698536396027,-0.007256524171680212,-0.9196709990501404,0.392564058303833,[0. 0. 0. 0. 0. 0. 0. 0. 0.],2.8076171875,-2.99072265625,48.828125,[0. 0. 0. 0. 0. 0. 0. 0. 0.],0.00341796875,-0.14111328125,1.0283203125,[0. 0. 0. 0. 0. 0. 0. 0. 0.]
6.50746488571167,0.005443388596177101,-0.00653685862198472,-0.9161770343780518,0.40068358182907104,[0. 0. 0. 0. 0. 0. 0. 0. 0.],0.91552734375,-7.32421875,48.33984375,[0. 0. 0. 0. 0. 0. 0. 0. 0.],0.03564453125,-0.12548828125,1.03857421875,[0. 0. 0. 0. 0. 0. 0. 0. 0.]
6.527358293533325,0.003319388721138239,-0.005765031557530165,-0.9125977158546448,0.4088048040866852,[0. 0. 0. 0. 0. 0. 0. 0. 0.],0.244140625,-7.75146484375,50.048828125,[0. 0. 0. 0. 0. 0. 0. 0. 0.],0.07763671875,-0.185546875,0.96142578125,[0. 0. 0. 0. 0. 0. 0. 0. 0.]
6.542072534561157,0.0023114047944545746,-0.004415745846927166,-0.9092859029769897,0.41614219546318054,[0. 0. 0. 0. 0. 0. 0. 0. 0.],-5.79833984375,13.48876953125,45.83740234375,[0. 0. 0. 0. 0. 0. 0. 0. 0.],0.1748046875,-0.1748046875,0.9599609375,[0. 0. 0. 0. 0. 0. 0. 0. 0.]
6.561990261077881,0.0020142358262091875,-0.0016458756290376186,-0.9063078761100769,0.4226101338863373,[0. 0. 0. 0. 0. 0. 0. 0. 0.],-7.87353515625,10.43701171875,36.56005859375,[0. 0. 0. 0. 0. 0. 0. 0. 0.],0.0947265625,-0.1865234375,0.9140625,[0. 0. 0. 0. 0. 0. 0. 0. 0.]
6.588282346725464,0.0030564384069293737,0.0032934548798948526,-0.9037718772888184,0.42799076437950134,[0. 0. 0. 0. 0. 0. 0. 0. 0.],-14.16015625,13.61083984375,28.38134765625,[0. 0. 0. 0. 0. 0. 0. 0. 0.],-0.009765625,-0.2529296875,0.93798828125,[0. 0. 0. 0. 0. 0. 0. 0. 0.]
6.6020612716674805,0.002759624971076846,0.005872305482625961,-0.902053713798523,0.43157511949539185,[0. 0. 0. 0. 0. 0. 0. 0. 0.],-2.8076171875,-2.5634765625,18.310546875,[0. 0. 0. 0. 0. 0. 0. 0. 0.],-0.1552734375,-0.24560546875,1.08544921875,[0. 0. 0. 0. 0. 0. 0. 0. 0.]
6.62697434425354,0.0035062411334365606,0.006626517046242952,-0.9012265801429749,0.43328341841697693,[0. 0. 0. 0. 0. 0. 0. 0. 0.],9.8876953125,2.44140625,5.0048828125,[0. 0. 0. 0. 0. 0. 0. 0. 0.],-0.033203125,-0.19482421875,1.189453125,[0. 0. 0. 0. 0. 0. 0. 0. 0.]
6.6477131843566895,0.0041925543919205666,0.006879264488816261,-0.9011642932891846,0.4334028363227844,[0. 0. 0. 0. 0. 0. 0. 0. 0.],3.90625,-1.8310546875,-1.77001953125,[0. 0. 0. 0. 0. 0. 0. 0. 0.],-0.10791015625,-0.11328125,0.94921875,[0. 0. 0. 0. 0. 0. 0. 0. 0.]
6.663546562194824,0.00521667068824172,0.009297697804868221,-0.9017570614814758,0.43211185932159424,[0. 0. 0. 0. 0. 0. 0. 0. 0.],-8.36181640625,5.18798828125,-12.87841796875,[0. 0. 0. 0. 0. 0. 0. 0. 0.],-0.1181640625,-0.0771484375,0.8291015625,[0. 0. 0. 0. 0. 0. 0. 0. 0.]
6.6866984367370605,0.005775878671556711,0.011909957975149155,-0.9031579494476318,0.4291042983531952,[0. 0. 0. 0. 0. 0. 0. 0. 0.],-3.90625,-1.5869140625,-22.27783203125,[0. 0. 0. 0. 0. 0. 0. 0. 0.],-0.19873046875,-0.12451171875,0.978515625,[0. 0. 0. 0. 0. 0. 0. 0. 0.]
6.706826686859131,0.007713812869042158,0.013828347437083721,-0.9052581191062927,0.42456677556037903,[0. 0. 0. 0. 0. 0. 0. 0. 0.],2.9296875,12.87841796875,-31.494140625,[0. 0. 0. 0. 0. 0. 0. 0. 0.],-0.14501953125,-0.11572265625,1.05859375,[0. 0. 0. 0. 0. 0. 0. 0. 0.]
6.72977614402771,0.011204386129975319,0.014942062087357044,-0.9080013036727905,0.418550968170166,[0. 0. 0. 0. 0. 0. 0. 0. 0.],3.60107421875,7.2021484375,-42.48046875,[0. 0. 0. 0. 0. 0. 0. 0. 0.],-0.2265625,-0.0302734375,0.9921875,[0. 0. 0. 0. 0. 0. 0. 0. 0.]
6.748702764511108,0.012469363398849964,0.01583913154900074,-0.911464512348175,0.4108845591545105,[0. 0. 0. 0. 0. 0. 0. 0. 0.],-1.708984375,-1.3427734375,-51.3916015625,[0. 0. 0. 0. 0. 0. 0. 0. 0.],-0.28271484375,-0.0107421875,1.0244140625,[0. 0. 0. 0. 0. 0. 0. 0. 0.]
6.767780303955078,0.015815312042832375,0.017150012776255608,-0.9156851172447205,0.4012189209461212,[0. 0. 0. 0. 0. 0. 0. 0. 0.],9.27734375,15.93017578125,-65.24658203125,[0. 0. 0. 0. 0. 0. 0. 0. 0.],-0.076171875,-0.0458984375,1.15771484375,[0. 0. 0. 0. 0. 0. 0. 0. 0.]
6.786780595779419,0.01900121010839939,0.017687590792775154,-0.9206307530403137,0.38957029581069946,[0. 0. 0. 0. 0. 0. 0. 0. 0.],5.2490234375,2.8076171875,-76.23291015625,[0. 0. 0. 0. 0. 0. 0. 0. 0.],-0.24609375,0.01220703125,0.9326171875,[0. 0. 0. 0. 0. 0. 0. 0. 0.]
6.806895971298218,0.020886575803160667,0.01775144785642624,-0.9260599613189697,0.3763795495033264,[0. 0. 0. 0. 0. 0. 0. 0. 0.],4.57763671875,4.69970703125,-84.8388671875,[0. 0. 0. 0. 0. 0. 0. 0. 0.],-0.177734375,-0.01806640625,0.88232421875,[0. 0. 0. 0. 0. 0. 0. 0. 0.]
6.828562259674072,0.024701111018657684,0.01975250616669655,-0.9315577149391174,0.36221522092819214,[0. 0. 0. 0. 0. 0. 0. 0. 0.],1.953125,12.39013671875,-88.92822265625,[0. 0. 0. 0. 0. 0. 0. 0. 0.],-0.111328125,-0.0244140625,0.984375,[0. 0. 0. 0. 0. 0. 0. 0. 0.]
6.846832990646362,0.026274004951119423,0.020639173686504364,-0.937140703201294,0.34734874963760376,[0. 0. 0. 0. 0. 0. 0. 0. 0.],1.46484375,-2.5634765625,-90.8203125,[0. 0. 0. 0. 0. 0. 0. 0. 0.],-0.302734375,-0.04296875,1.08544921875,[0. 0. 0. 0. 0. 0. 0. 0. 0.]
6.866750240325928,0.02807118557393551,0.02097693644464016,-0.9425156116485596,0.332319438457489,[0. 0. 0. 0. 0. 0. 0. 0. 0.],9.09423828125,6.4697265625,-93.26171875,[0. 0. 0. 0. 0. 0. 0. 0. 0.],-0.23486328125,-0.04345703125,1.0673828125,[0. 0. 0. 0. 0. 0. 0. 0. 0.]
6.887005567550659,0.030645931139588356,0.020746730268001556,-0.9478629231452942,0.3165222108364105,[0. 0. 0. 0. 0. 0. 0. 0. 0.],10.55908203125,1.89208984375,-96.61865234375,[0. 0. 0. 0. 0. 0. 0. 0. 0.],-0.2119140625,-0.03369140625,1.0283203125,[0. 0. 0. 0. 0. 0. 0. 0. 0.]
6.9073052406311035,0.031460702419281006,0.020395003259181976,-0.9530507922172546,0.3004806339740753,[0. 0. 0. 0. 0. 0. 0. 0. 0.],4.150390625,-5.2490234375,-95.76416015625,[0. 0. 0. 0. 0. 0. 0. 0. 0.],-0.31787109375,-0.001953125,0.876953125,[0. 0. 0. 0. 0. 0. 0. 0. 0.]
6.92669677734375,0.03350646421313286,0.0212384182959795,-0.9577620029449463,0.2848127782344818,[0. 0. 0. 0. 0. 0. 0. 0. 0.],4.08935546875,5.31005859375,-90.087890625,[0. 0. 0. 0. 0. 0. 0. 0. 0.],-0.23583984375,-0.0498046875,0.921875,[0. 0. 0. 0. 0. 0. 0. 0. 0.]
6.947025537490845,0.03356993570923805,0.022094039246439934,-0.9618272185325623,0.2706904411315918,[0. 0. 0. 0. 0. 0. 0. 0. 0.],-1.40380859375,-14.83154296875,-80.74951171875,[0. 0. 0. 0. 0. 0. 0. 0. 0.],-0.36328125,-0.0419921875,0.9580078125,[0. 0. 0. 0. 0. 0. 0. 0. 0.]
6.966708660125732,0.03334261104464531,0.022696664556860924,-0.9651823043823242,0.258449912071228,[0. 0. 0. 0. 0. 0. 0. 0. 0.],1.64794921875,-0.9765625,-67.7490234375,[0. 0. 0. 0. 0. 0. 0. 0. 0.],-0.234375,-0.05908203125,1.11181640625,[0. 0. 0. 0. 0. 0. 0. 0. 0.]
6.987053871154785,0.034786585718393326,0.023354602977633476,-0.9677436947822571,0.2484283745288849,[0. 0. 0. 0. 0. 0. 0. 0. 0.],3.662109375,-3.2958984375,-54.5654296875,[0. 0. 0. 0. 0. 0. 0. 0. 0.],-0.16357421875,-0.056640625,1.02734375,[0. 0. 0. 0. 0. 0. 0. 0. 0.]
7.006849050521851,0.03460032865405083,0.024254661053419113,-0.9695948362350464,0.24104002118110657,[0. 0. 0. 0. 0. 0. 0. 0. 0.],-7.568359375,-3.23486328125,-38.75732421875,[0. 0. 0. 0. 0. 0. 0. 0. 0.],-0.13330078125,-0.0283203125,0.85595703125,[0. 0. 0. 0. 0. 0. 0. 0. 0.]
7.0269317626953125,0.03485194593667984,0.027640441432595253,-0.9707701802253723,0.23585347831249237,[0. 0. 0. 0. 0. 0. 0. 0. 0.],-3.7841796875,9.82666015625,-24.35302734375,[0. 0. 0. 0. 0. 0. 0. 0. 0.],-0.0185546875,-0.15234375,1.03271484375,[0. 0. 0. 0. 0. 0. 0. 0. 0.]
7.042052984237671,0.034088972955942154,0.02800717018544674,-0.9716036915779114,0.23246459662914276,[0. 0. 0. 0. 0. 0. 0. 0. 0.],10.7421875,-7.2021484375,-15.56396484375,[0. 0. 0. 0. 0. 0. 0. 0. 0.],-0.166015625,-0.09814453125,1.16552734375,[0. 0. 0. 0. 0. 0. 0. 0. 0.]
7.066880941390991,0.03381025046110153,0.025950109586119652,-0.9721625447273254,0.23039884865283966,[0. 0. 0. 0. 0. 0. 0. 0. 0.],0.42724609375,5.67626953125,-11.5966796875,[0. 0. 0. 0. 0. 0. 0. 0. 0.],-0.009765625,0.01025390625,0.97216796875,[0. 0. 0. 0. 0. 0. 0. 0. 0.]
7.086702585220337,0.03392685204744339,0.025741595774888992,-0.972577691078186,0.2286461889743805,[0. 0. 0. 0. 0. 0. 0. 0. 0.],-11.962890625,-3.2958984375,-10.92529296875,[0. 0. 0. 0. 0. 0. 0. 0. 0.],-0.11376953125,0.021484375,0.84716796875,[0. 0. 0. 0. 0. 0. 0. 0. 0.]
7.106731414794922,0.034450553357601166,0.027152257040143013,-0.9728963375091553,0.22704313695430756,[0. 0. 0. 0. 0. 0. 0. 0. 0.],-4.45556640625,-2.0751953125,-11.3525390625,[0. 0. 0. 0. 0. 0. 0. 0. 0.],-0.1083984375,-0.04052734375,1.06396484375,[0. 0. 0. 0. 0. 0. 0. 0. 0.]
7.121934175491333,0.03363683447241783,0.026889195665717125,-0.9734275937080383,0.22490978240966797,[0. 0. 0. 0. 0. 0. 0. 0. 0.],9.8876953125,3.662109375,-11.65771484375,[0. 0. 0. 0. 0. 0. 0. 0. 0.],-0.04052734375,-0.06396484375,1.12158203125,[0. 0. 0. 0. 0. 0. 0. 0. 0.]
7.146956443786621,0.033940639346838,0.025716304779052734,-0.9738134741783142,0.22332526743412018,[0. 0. 0. 0. 0. 0. 0. 0. 0.],2.62451171875,-17.08984375,-7.99560546875,[0. 0. 0. 0. 0. 0. 0. 0. 0.],-0.19287109375,0.01171875,0.83203125,[0. 0. 0. 0. 0. 0. 0. 0. 0.]
7.165892124176025,0.032295819371938705,0.02569018304347992,-0.9741475582122803,0.22211207449436188,[0. 0. 0. 0. 0. 0. 0. 0. 0.],-10.80322265625,-8.1787109375,-8.97216796875,[0. 0. 0. 0. 0. 0. 0. 0. 0.],-0.10205078125,0.04345703125,0.91162109375,[0. 0. 0. 0. 0. 0. 0. 0. 0.]
7.183788061141968,0.030897587537765503,0.025382567197084427,-0.9745193719863892,0.22071045637130737,[0. 0. 0. 0. 0. 0. 0. 0. 0.],2.01416015625,7.080078125,-8.48388671875,[0. 0. 0. 0. 0. 0. 0. 0. 0.],0.0068359375,-0.0400390625,1.11962890625,[0. 0. 0. 0. 0. 0. 0. 0. 0.]
7.203459739685059,0.030496330931782722,0.024586394429206848,-0.9748644828796387,0.21932801604270935,[0. 0. 0. 0. 0. 0. 0. 0. 0.],-5.2490234375,-5.126953125,-7.568359375,[0. 0. 0. 0. 0. 0. 0. 0. 0.],-0.0966796875,0.01708984375,0.9736328125,[0. 0. 0. 0. 0. 0. 0. 0. 0.]
7.226760387420654,0.03026428446173668,0.0237433984875679,-0.9752265810966492,0.21783818304538727,[0. 0. 0. 0. 0. 0. 0. 0. 0.],-2.50244140625,6.16455078125,-9.82666015625,[0. 0. 0. 0. 0. 0. 0. 0. 0.],0.0107421875,0.02001953125,1.03857421875,[0. 0. 0. 0. 0. 0. 0. 0. 0.]
7.242129325866699,0.02969183959066868,0.022478774189949036,-0.9756371974945068,0.21620678901672363,[0. 0. 0. 0. 0. 0. 0. 0. 0.],2.44140625,2.3193359375,-9.46044921875,[0. 0. 0. 0. 0. 0. 0. 0. 0.],-0.037109375,0.00146484375,1.14306640625,[0. 0. 0. 0. 0. 0. 0. 0. 0.]
7.267174959182739,0.029374899342656136,0.019814886152744293,-0.9760820865631104,0.21449552476406097,[0. 0. 0. 0. 0. 0. 0. 0. 0.],10.80322265625,-11.23046875,-12.02392578125,[0. 0. 0. 0. 0. 0. 0. 0. 0.],-0.1025390625,-0.00244140625,1.06494140625,[0. 0. 0. 0. 0. 0. 0. 0. 0.]
7.286805152893066,0.029341500252485275,0.017855755984783173,-0.9765423536300659,0.21256835758686066,[0. 0. 0. 0. 0. 0. 0. 0. 0.],0.3662109375,3.72314453125,-11.8408203125,[0. 0. 0. 0. 0. 0. 0. 0. 0.],-0.00341796875,0.048828125,0.9375,[0. 0. 0. 0. 0. 0. 0. 0. 0.]
7.306744575500488,0.029469622299075127,0.017322294414043427,-0.9769087433815002,0.2109048217535019,[0. 0. 0. 0. 0. 0. 0. 0. 0.],-6.9580078125,-4.82177734375,-8.30078125,[0. 0. 0. 0. 0. 0. 0. 0. 0.],-0.140625,0.03369140625,0.88671875,[0. 0. 0. 0. 0. 0. 0. 0. 0.]
7.32696008682251,0.02956552244722843,0.01646803878247738,-0.9772881269454956,0.2091953307390213,[0. 0. 0. 0. 0. 0. 0. 0. 0.],7.080078125,5.37109375,-10.3759765625,[0. 0. 0. 0. 0. 0. 0. 0. 0.],-0.00537109375,-0.025390625,1.1298828125,[0. 0. 0. 0. 0. 0. 0. 0. 0.]
7.347010135650635,0.030269740149378777,0.014710669405758381,-0.9776452779769897,0.20755015313625336,[0. 0. 0. 0. 0. 0. 0. 0. 0.],10.92529296875,-0.54931640625,-8.6669921875,[0. 0. 0. 0. 0. 0. 0. 0. 0.],-0.09912109375,-0.00439453125,0.9482421875,[0. 0. 0. 0. 0. 0. 0. 0. 0.]
7.367814064025879,0.02927476167678833,0.013217372819781303,-0.9779707789421082,0.2062559276819229,[0. 0. 0. 0. 0. 0. 0. 0. 0.],-4.39453125,-17.9443359375,-7.62939453125,[0. 0. 0. 0. 0. 0. 0. 0. 0.],-0.1943359375,0.072265625,0.818359375,[0. 0. 0. 0. 0. 0. 0. 0. 0.]
7.386681318283081,0.028256108984351158,0.013148896396160126,-0.978278636932373,0.2049386203289032,[0. 0. 0. 0. 0. 0. 0. 0. 0.],-6.591796875,-4.57763671875,-8.23974609375,[0. 0. 0. 0. 0. 0. 0. 0. 0.],-0.04345703125,0.03076171875,1.02001953125,[0. 0. 0. 0. 0. 0. 0. 0. 0.]
7.407620906829834,0.027998702600598335,0.012664919719099998,-0.9785585999488831,0.20366327464580536,[0. 0. 0. 0. 0. 0. 0. 0. 0.],0.9765625,2.25830078125,-6.9580078125,[0. 0. 0. 0. 0. 0. 0. 0. 0.],-0.06494140625,-0.01416015625,1.07470703125,[0. 0. 0. 0. 0. 0. 0. 0. 0.]
7.422224283218384,0.02887461706995964,0.012268385849893093,-0.9787194728851318,0.20279023051261902,[0. 0. 0. 0. 0. 0. 0. 0. 0.],-6.4697265625,-0.54931640625,-5.43212890625,[0. 0. 0. 0. 0. 0. 0. 0. 0.],-0.09326171875,0.04833984375,0.96728515625,[0. 0. 0. 0. 0. 0. 0. 0. 0.]
7.447054624557495,0.02831382118165493,0.010673240758478642,-0.9789493083953857,0.20184819400310516,[0. 0. 0. 0. 0. 0. 0. 0. 0.],6.77490234375,1.15966796875,-6.16455078125,[0. 0. 0. 0. 0. 0. 0. 0. 0.],-0.0126953125,0.00732421875,1.1474609375,[0. 0. 0. 0. 0. 0. 0. 0. 0.]
7.466970920562744,0.02805394120514393,0.008560107089579105,-0.9791242480278015,0.20113562047481537,[0. 0. 0. 0. 0. 0. 0. 0. 0.],5.37109375,-10.009765625,-4.39453125,[0. 0. 0. 0. 0. 0. 0. 0. 0.],-0.0927734375,0.0205078125,1.0927734375,[0. 0. 0. 0. 0. 0. 0. 0. 0.]
7.487075567245483,0.027683265507221222,0.005940409377217293,-0.9793572425842285,0.20014424622058868,[0. 0. 0. 0. 0. 0. 0. 0. 0.],5.2490234375,0.6103515625,-5.79833984375,[0. 0. 0. 0. 0. 0. 0. 0. 0.],-0.02783203125,0.0361328125,0.94384765625,[0. 0. 0. 0. 0. 0. 0. 0. 0.]
7.50748610496521,0.027384091168642044,0.0049385689198970795,-0.9795634746551514,0.19920146465301514,[0. 0. 0. 0. 0. 0. 0. 0. 0.],-7.8125,0.8544921875,-4.69970703125,[0. 0. 0. 0. 0. 0. 0. 0. 0.],-0.03759765625,0.06787109375,0.84130859375,[0. 0. 0. 0. 0. 0. 0. 0. 0.]
7.5248026847839355,0.027232293039560318,0.005730456672608852,-0.9796923398971558,0.19856590032577515,[0. 0. 0. 0. 0. 0. 0. 0. 0.],-2.99072265625,4.33349609375,-5.37109375,[0. 0. 0. 0. 0. 0. 0. 0. 0.],-0.01806640625,-0.03271484375,1.13037109375,[0. 0. 0. 0. 0. 0. 0. 0. 0.]
7.543756008148193,0.027243075892329216,0.007386083249002695,-0.9797948002815247,0.19800373911857605,[0. 0. 0. 0. 0. 0. 0. 0. 0.],1.03759765625,3.2958984375,-2.62451171875,[0. 0. 0. 0. 0. 0. 0. 0. 0.],-0.0771484375,-0.15234375,1.001953125,[0. 0. 0. 0. 0. 0. 0. 0. 0.]
7.566829442977905,0.0260882880538702,0.008349880576133728,-0.9798539280891418,0.19782812893390656,[0. 0. 0. 0. 0. 0. 0. 0. 0.],-1.46484375,-19.04296875,-0.48828125,[0. 0. 0. 0. 0. 0. 0. 0. 0.],-0.20556640625,-0.14306640625,0.87109375,[0. 0. 0. 0. 0. 0. 0. 0. 0.]
7.5869104862213135,0.023650236427783966,0.01010063849389553,-0.9799262285232544,0.19769498705863953,[0. 0. 0. 0. 0. 0. 0. 0. 0.],-4.21142578125,-12.02392578125,-1.15966796875,[0. 0. 0. 0. 0. 0. 0. 0. 0.],-0.02001953125,-0.06884765625,0.986328125,[0. 0. 0. 0. 0. 0. 0. 0. 0.]
7.608169794082642,0.021424874663352966,0.01095257606357336,-0.9798114895820618,0.19847039878368378,[0. 0. 0. 0. 0. 0. 0. 0. 0.],-0.1220703125,-7.87353515625,9.765625,[0. 0. 0. 0. 0. 0. 0. 0. 0.],0.0595703125,-0.0859375,1.0283203125,[0. 0. 0. 0. 0. 0. 0. 0. 0.]
7.626948118209839,0.01766025647521019,0.012456392869353294,-0.9791505336761475,0.2019830197095871,[0. 0. 0. 0. 0. 0. 0. 0. 0.],-12.20703125,-5.79833984375,25.69580078125,[0. 0. 0. 0. 0. 0. 0. 0. 0.],0.10498046875,-0.09765625,0.93994140625,[0. 0. 0. 0. 0. 0. 0. 0. 0.]
7.646663427352905,0.014177627861499786,0.013837073929607868,-0.9780327677726746,0.20750796794891357,[0. 0. 0. 0. 0. 0. 0. 0. 0.],-4.08935546875,-6.2255859375,37.4755859375,[0. 0. 0. 0. 0. 0. 0. 0. 0.],0.17041015625,-0.2255859375,1.13427734375,[0. 0. 0. 0. 0. 0. 0. 0. 0.]
7.666786193847656,0.011940059252083302,0.01456893514841795,-0.9763219356536865,0.21550095081329346,[0. 0. 0. 0. 0. 0. 0. 0. 0.],2.685546875,-12.02392578125,51.45263671875,[0. 0. 0. 0. 0. 0. 0. 0. 0.],0.103515625,-0.23681640625,1.126953125,[0. 0. 0. 0. 0. 0. 0. 0. 0.]
7.687234878540039,0.008237188681960106,0.014066713862121105,-0.9739738702774048,0.2260737121105194,[0. 0. 0. 0. 0. 0. 0. 0. 0.],-1.03759765625,-12.39013671875,69.03076171875,[0. 0. 0. 0. 0. 0. 0. 0. 0.],0.10302734375,-0.177734375,0.9169921875,[0. 0. 0. 0. 0. 0. 0. 0. 0.]
7.703256845474243,0.007023754063993692,0.015423513948917389,-0.9707627296447754,0.23944242298603058,[0. 0. 0. 0. 0. 0. 0. 0. 0.],-6.04248046875,2.44140625,82.275390625,[0. 0. 0. 0. 0. 0. 0. 0. 0.],0.236328125,-0.16162109375,0.96337890625,[0. 0. 0. 0. 0. 0. 0. 0. 0.]
7.729967832565308,0.003759775310754776,0.016885148361325264,-0.9667755961418152,0.25504070520401,[0. 0. 0. 0. 0. 0. 0. 0. 0.],-3.96728515625,-27.64892578125,95.703125,[0. 0. 0. 0. 0. 0. 0. 0. 0.],0.029296875,-0.220703125,0.9384765625,[0. 0. 0. 0. 0. 0. 0. 0. 0.]
7.7524755001068115,-0.0008040083339437842,0.01790160872042179,-0.9606662392616272,0.2771267592906952,[0. 0. 0. 0. 0. 0. 0. 0. 0.],-3.41796875,9.58251953125,113.09814453125,[0. 0. 0. 0. 0. 0. 0. 0. 0.],0.2822265625,-0.1953125,0.966796875,[0. 0. 0. 0. 0. 0. 0. 0. 0.]
7.766976833343506,-0.001155302976258099,0.018922843039035797,-0.9562675356864929,0.2918784022331238,[0. 0. 0. 0. 0. 0. 0. 0. 0.],-3.96728515625,-1.77001953125,120.91064453125,[0. 0. 0. 0. 0. 0. 0. 0. 0.],0.2451171875,-0.1787109375,0.9296875,[0. 0. 0. 0. 0. 0. 0. 0. 0.]
7.787123441696167,-0.005504199769347906,0.01918685808777809,-0.9496356248855591,0.3127201199531555,[0. 0. 0. 0. 0. 0. 0. 0. 0.],-0.54931640625,-18.06640625,128.5400390625,[0. 0. 0. 0. 0. 0. 0. 0. 0.],0.2119140625,-0.2822265625,1.14697265625,[0. 0. 0. 0. 0. 0. 0. 0. 0.]
7.807766914367676,-0.006698558107018471,0.019149363040924072,-0.9421775341033936,0.3344994783401489,[0. 0. 0. 0. 0. 0. 0. 0. 0.],4.150390625,-2.5634765625,135.009765625,[0. 0. 0. 0. 0. 0. 0. 0. 0.],0.37060546875,-0.2587890625,1.1533203125,[0. 0. 0. 0. 0. 0. 0. 0. 0.]
7.826970338821411,-0.00845357310026884,0.01953323930501938,-0.9337151050567627,0.3573837876319885,[0. 0. 0. 0. 0. 0. 0. 0. 0.],-3.47900390625,-0.79345703125,143.798828125,[0. 0. 0. 0. 0. 0. 0. 0. 0.],0.2314453125,-0.21630859375,0.90673828125,[0. 0. 0. 0. 0. 0. 0. 0. 0.]
7.848839282989502,-0.011196140199899673,0.01875855214893818,-0.9243014454841614,0.3810375928878784,[0. 0. 0. 0. 0. 0. 0. 0. 0.],3.0517578125,-12.451171875,150.20751953125,[0. 0. 0. 0. 0. 0. 0. 0. 0.],0.20263671875,-0.25,0.93701171875,[0. 0. 0. 0. 0. 0. 0. 0. 0.]
7.867035150527954,-0.013739497400820255,0.01993708312511444,-0.9134542942047119,0.4062204360961914,[0. 0. 0. 0. 0. 0. 0. 0. 0.],-13.61083984375,1.64794921875,161.0107421875,[0. 0. 0. 0. 0. 0. 0. 0. 0.],0.22314453125,-0.14208984375,0.7119140625,[0. 0. 0. 0. 0. 0. 0. 0. 0.]
7.886775255203247,-0.016588522121310234,0.02061767503619194,-0.9014443755149841,0.43208542466163635,[0. 0. 0. 0. 0. 0. 0. 0. 0.],6.89697265625,-26.42822265625,161.62109375,[0. 0. 0. 0. 0. 0. 0. 0. 0.],0.2607421875,-0.3837890625,1.12255859375,[0. 0. 0. 0. 0. 0. 0. 0. 0.]
7.906885147094727,-0.019555944949388504,0.018310796469449997,-0.8884084820747375,0.45827147364616394,[0. 0. 0. 0. 0. 0. 0. 0. 0.],12.0849609375,-16.357421875,169.0673828125,[0. 0. 0. 0. 0. 0. 0. 0. 0.],0.404296875,-0.349609375,1.21533203125,[0. 0. 0. 0. 0. 0. 0. 0. 0.]
7.927031755447388,-0.021482590585947037,0.01700618676841259,-0.8739489912986755,0.4852448105812073,[0. 0. 0. 0. 0. 0. 0. 0. 0.],-0.48828125,2.5634765625,179.62646484375,[0. 0. 0. 0. 0. 0. 0. 0. 0.],0.408203125,-0.234375,0.9609375,[0. 0. 0. 0. 0. 0. 0. 0. 0.]
7.94679594039917,-0.023641405627131462,0.015662945806980133,-0.8580752015113831,0.5127403140068054,[0. 0. 0. 0. 0. 0. 0. 0. 0.],10.3759765625,-26.67236328125,185.791015625,[0. 0. 0. 0. 0. 0. 0. 0. 0.],0.2236328125,-0.23681640625,0.8662109375,[0. 0. 0. 0. 0. 0. 0. 0. 0.]
7.96703839302063,-0.027417952194809914,0.016859672963619232,-0.8402195572853088,0.5412901639938354,[0. 0. 0. 0. 0. 0. 0. 0. 0.],-7.2021484375,-14.5263671875,194.64111328125,[0. 0. 0. 0. 0. 0. 0. 0. 0.],0.2509765625,-0.22265625,0.75341796875,[0. 0. 0. 0. 0. 0. 0. 0. 0.]
7.986984729766846,-0.028785083442926407,0.015569818206131458,-0.8210446834564209,0.5699251294136047,[0. 0. 0. 0. 0. 0. 0. 0. 0.],15.56396484375,-6.16455078125,200.25634765625,[0. 0. 0. 0. 0. 0. 0. 0. 0.],0.47119140625,-0.4169921875,1.25439453125,[0. 0. 0. 0. 0. 0. 0. 0. 0.]
8.006956577301025,-0.0312393456697464,0.011775986291468143,-0.8008381724357605,0.5979496836662292,[0. 0. 0. 0. 0. 0. 0. 0. 0.],19.22607421875,-22.88818359375,199.03564453125,[0. 0. 0. 0. 0. 0. 0. 0. 0.],0.4443359375,-0.25732421875,1.04248046875,[0. 0. 0. 0. 0. 0. 0. 0. 0.]
8.027631282806396,-0.03212615102529526,0.008518123999238014,-0.7792552709579468,0.6258247494697571,[0. 0. 0. 0. 0. 0. 0. 0. 0.],11.5966796875,-0.06103515625,206.6650390625,[0. 0. 0. 0. 0. 0. 0. 0. 0.],0.4951171875,-0.11376953125,0.84423828125,[0. 0. 0. 0. 0. 0. 0. 0. 0.]
8.047428846359253,-0.035147346556186676,0.007314952090382576,-0.7561504244804382,0.6534123420715332,[0. 0. 0. 0. 0. 0. 0. 0. 0.],2.74658203125,-27.03857421875,206.11572265625,[0. 0. 0. 0. 0. 0. 0. 0. 0.],0.3681640625,-0.12744140625,0.6884765625,[0. 0. 0. 0. 0. 0. 0. 0. 0.]
8.061810970306396,-0.03861171379685402,0.005438712425529957,-0.7323945760726929,0.6797629594802856,[0. 0. 0. 0. 0. 0. 0. 0. 0.],7.62939453125,-6.9580078125,202.81982421875,[0. 0. 0. 0. 0. 0. 0. 0. 0.],0.68359375,-0.26171875,1.14404296875,[0. 0. 0. 0. 0. 0. 0. 0. 0.]
8.087790966033936,-0.03929673507809639,0.004167786333709955,-0.7086642384529114,0.704438328742981,[0. 0. 0. 0. 0. 0. 0. 0. 0.],9.27734375,-1.5869140625,193.9697265625,[0. 0. 0. 0. 0. 0. 0. 0. 0.],0.73291015625,-0.22607421875,1.1240234375,[0. 0. 0. 0. 0. 0. 0. 0. 0.]
8.109582901000977,-0.041271958500146866,0.0007996405474841595,-0.6848353743553162,0.7275277972221375,[0. 0. 0. 0. 0. 0. 0. 0. 0.],16.11328125,-23.8037109375,188.17138671875,[0. 0. 0. 0. 0. 0. 0. 0. 0.],0.5751953125,-0.2041015625,0.955078125,[0. 0. 0. 0. 0. 0. 0. 0. 0.]
8.128263473510742,-0.040030114352703094,0.0012199367629364133,-0.6609822511672974,0.7493321895599365,[0. 0. 0. 0. 0. 0. 0. 0. 0.],13.00048828125,3.90625,187.07275390625,[0. 0. 0. 0. 0. 0. 0. 0. 0.],0.6298828125,-0.154296875,0.90771484375,[0. 0. 0. 0. 0. 0. 0. 0. 0.]
8.146672010421753,-0.04377683252096176,0.00010181201650993899,-0.6362731456756592,0.7702208757400513,[0. 0. 0. 0. 0. 0. 0. 0. 0.],-8.544921875,-30.1513671875,184.814453125,[0. 0. 0. 0. 0. 0. 0. 0. 0.],0.3525390625,-0.1064453125,0.60595703125,[0. 0. 0. 0. 0. 0. 0. 0. 0.]
8.167415380477905,-0.04736405983567238,-0.0030637618619948626,-0.6121713519096375,0.789299488067627,[0. 0. 0. 0. 0. 0. 0. 0. 0.],7.50732421875,-8.7890625,172.4853515625,[0. 0. 0. 0. 0. 0. 0. 0. 0.],0.7783203125,-0.24169921875,1.138671875,[0. 0. 0. 0. 0. 0. 0. 0. 0.]
8.187803030014038,-0.047030009329319,-0.004801152739673853,-0.5887877345085144,0.8069040179252625,[0. 0. 0. 0. 0. 0. 0. 0. 0.],17.02880859375,-10.80322265625,164.55078125,[0. 0. 0. 0. 0. 0. 0. 0. 0.],0.7451171875,-0.1845703125,1.1484375,[0. 0. 0. 0. 0. 0. 0. 0. 0.]
8.207182884216309,-0.046253710985183716,-0.005453245248645544,-0.5659018754959106,0.8231561183929443,[0. 0. 0. 0. 0. 0. 0. 0. 0.],9.3994140625,8.97216796875,157.16552734375,[0. 0. 0. 0. 0. 0. 0. 0. 0.],0.75341796875,-0.1435546875,1.0419921875,[0. 0. 0. 0. 0. 0. 0. 0. 0.]
8.227001667022705,-0.045943763107061386,-0.005514506250619888,-0.5444005727767944,0.8375481367111206,[0. 0. 0. 0. 0. 0. 0. 0. 0.],6.53076171875,-11.04736328125,142.333984375,[0. 0. 0. 0. 0. 0. 0. 0. 0.],0.59228515625,-0.08837890625,0.91259765625,[0. 0. 0. 0. 0. 0. 0. 0. 0.]
8.247630596160889,-0.04642518609762192,-0.006912979297339916,-0.5253493785858154,0.849591076374054,[0. 0. 0. 0. 0. 0. 0. 0. 0.],11.1083984375,-5.43212890625,120.30029296875,[0. 0. 0. 0. 0. 0. 0. 0. 0.],0.63720703125,-0.10888671875,0.990234375,[0. 0. 0. 0. 0. 0. 0. 0. 0.]
8.267367601394653,-0.04555065557360649,-0.005150230135768652,-0.5083945989608765,0.8599032163619995,[0. 0. 0. 0. 0. 0. 0. 0. 0.],-6.16455078125,16.357421875,111.38916015625,[0. 0. 0. 0. 0. 0. 0. 0. 0.],0.5361328125,-0.01953125,0.759765625,[0. 0. 0. 0. 0. 0. 0. 0. 0.]
8.287260293960571,-0.04737822338938713,-0.005184303969144821,-0.4941447377204895,0.8680722713470459,[0. 0. 0. 0. 0. 0. 0. 0. 0.],-4.5166015625,-13.671875,82.1533203125,[0. 0. 0. 0. 0. 0. 0. 0. 0.],0.5126953125,0.0,0.84521484375,[0. 0. 0. 0. 0. 0. 0. 0. 0.]
8.306983947753906,-0.048477903008461,-0.008393218740820885,-0.4853017032146454,0.8729614615440369,[0. 0. 0. 0. 0. 0. 0. 0. 0.],10.31494140625,-6.591796875,45.654296875,[0. 0. 0. 0. 0. 0. 0. 0. 0.],0.75634765625,-0.01953125,1.2109375,[0. 0. 0. 0. 0. 0. 0. 0. 0.]
8.331209421157837,-0.045674946159124374,-0.009906647726893425,-0.4806544780731201,0.875663697719574,[0. 0. 0. 0. 0. 0. 0. 0. 0.],10.6201171875,-7.01904296875,12.02392578125,[0. 0. 0. 0. 0. 0. 0. 0. 0.],0.6474609375,0.05615234375,1.0634765625,[0. 0. 0. 0. 0. 0. 0. 0. 0.]
8.342376947402954,-0.04587967321276665,-0.011734524741768837,-0.4808078110218048,0.8755462169647217,[0. 0. 0. 0. 0. 0. 0. 0. 0.],2.8076171875,-2.38037109375,-7.99560546875,[0. 0. 0. 0. 0. 0. 0. 0. 0.],0.58935546875,0.11572265625,0.94189453125,[0. 0. 0. 0. 0. 0. 0. 0. 0.]
8.3621084690094,-0.045065347105264664,-0.011244559660553932,-0.48441800475120544,0.8736029267311096,[0. 0. 0. 0. 0. 0. 0. 0. 0.],-1.03759765625,12.451171875,-30.1513671875,[0. 0. 0. 0. 0. 0. 0. 0. 0.],0.6171875,0.091796875,0.98486328125,[0. 0. 0. 0. 0. 0. 0. 0. 0.]
8.38184928894043,-0.04514269158244133,-0.013300330378115177,-0.4911665916442871,0.8697934746742249,[0. 0. 0. 0. 0. 0. 0. 0. 0.],2.13623046875,-4.638671875,-51.3916015625,[0. 0. 0. 0. 0. 0. 0. 0. 0.],0.49072265625,0.07275390625,0.943359375,[0. 0. 0. 0. 0. 0. 0. 0. 0.]
8.407408952713013,-0.04383737966418266,-0.014079691842198372,-0.5009889602661133,0.8642280697822571,[0. 0. 0. 0. 0. 0. 0. 0. 0.],10.1318359375,10.986328125,-73.18115234375,[0. 0. 0. 0. 0. 0. 0. 0. 0.],0.58837890625,0.068359375,1.06103515625,[0. 0. 0. 0. 0. 0. 0. 0. 0.]
8.424164295196533,-0.04089424014091492,-0.015556219965219498,-0.5140477418899536,0.8566449284553528,[0. 0. 0. 0. 0. 0. 0. 0. 0.],8.60595703125,17.2119140625,-92.4072265625,[0. 0. 0. 0. 0. 0. 0. 0. 0.],0.4921875,0.103515625,0.98388671875,[0. 0. 0. 0. 0. 0. 0. 0. 0.]
8.449490547180176,-0.03743686154484749,-0.013498486019670963,-0.5293846130371094,0.8474481105804443,[0. 0. 0. 0. 0. 0. 0. 0. 0.],0.8544921875,24.59716796875,-106.62841796875,[0. 0. 0. 0. 0. 0. 0. 0. 0.],0.125,0.27685546875,0.89013671875,[0. 0. 0. 0. 0. 0. 0. 0. 0.]
8.466804504394531,-0.03311244770884514,-0.012569737620651722,-0.5460013151168823,0.8370353579521179,[0. 0. 0. 0. 0. 0. 0. 0. 0.],12.451171875,14.16015625,-116.14990234375,[0. 0. 0. 0. 0. 0. 0. 0. 0.],-0.123046875,0.27197265625,1.11181640625,[0. 0. 0. 0. 0. 0. 0. 0. 0.]
8.487040519714355,-0.027598006650805473,-0.012878160923719406,-0.5626189112663269,0.8261552453041077,[0. 0. 0. 0. 0. 0. 0. 0. 0.],19.47021484375,8.4228515625,-115.66162109375,[0. 0. 0. 0. 0. 0. 0. 0. 0.],-0.19140625,0.2841796875,1.03955078125,[0. 0. 0. 0. 0. 0. 0. 0. 0.]
8.507077932357788,-0.02315390110015869,-0.012654057703912258,-0.5794416069984436,0.8145866990089417,[0. 0. 0. 0. 0. 0. 0. 0. 0.],3.0517578125,19.59228515625,-117.67578125,[0. 0. 0. 0. 0. 0. 0. 0. 0.],-0.142578125,0.3759765625,0.91650390625,[0. 0. 0. 0. 0. 0. 0. 0. 0.]
8.527372360229492,-0.01891881786286831,-0.011604954488575459,-0.5961984992027283,0.8025302290916443,[0. 0. 0. 0. 0. 0. 0. 0. 0.],8.60595703125,10.009765625,-118.95751953125,[0. 0. 0. 0. 0. 0. 0. 0. 0.],-0.20947265625,0.328125,1.013671875,[0. 0. 0. 0. 0. 0. 0. 0. 0.]
8.5470290184021,-0.015762774273753166,-0.012057077139616013,-0.6126852631568909,0.7900778651237488,[0. 0. 0. 0. 0. 0. 0. 0. 0.],6.89697265625,8.23974609375,-118.2861328125,[0. 0. 0. 0. 0. 0. 0. 0. 0.],-0.25048828125,0.33837890625,1.02734375,[0. 0. 0. 0. 0. 0. 0. 0. 0.]
8.5670747756958,-0.011784871108829975,-0.010720578953623772,-0.628996729850769,0.7772447466850281,[0. 0. 0. 0. 0. 0. 0. 0. 0.],1.953125,17.15087890625,-117.3095703125,[0. 0. 0. 0. 0. 0. 0. 0. 0.],-0.1630859375,0.3359375,0.98291015625,[0. 0. 0. 0. 0. 0. 0. 0. 0.]
8.586841583251953,-0.008927796967327595,-0.010968811810016632,-0.6449974775314331,0.7640538215637207,[0. 0. 0. 0. 0. 0. 0. 0. 0.],6.04248046875,0.1220703125,-118.83544921875,[0. 0. 0. 0. 0. 0. 0. 0. 0.],-0.26806640625,0.3232421875,1.00341796875,[0. 0. 0. 0. 0. 0. 0. 0. 0.]
8.607072353363037,-0.006141996942460537,-0.011090492829680443,-0.6606007218360901,0.7506303191184998,[0. 0. 0. 0. 0. 0. 0. 0. 0.],3.90625,6.103515625,-118.10302734375,[0. 0. 0. 0. 0. 0. 0. 0. 0.],-0.1953125,0.33349609375,0.9912109375,[0. 0. 0. 0. 0. 0. 0. 0. 0.]
8.627182006835938,-0.0038412194699048996,-0.01013696938753128,-0.6756379008293152,0.7371540069580078,[0. 0. 0. 0. 0. 0. 0. 0. 0.],-4.0283203125,6.8359375,-112.9150390625,[0. 0. 0. 0. 0. 0. 0. 0. 0.],-0.251953125,0.3564453125,0.97900390625,[0. 0. 0. 0. 0. 0. 0. 0. 0.]
8.647173404693604,-0.002180154202505946,-0.010701742954552174,-0.6897789835929871,0.7239377498626709,[0. 0. 0. 0. 0. 0. 0. 0. 0.],8.23974609375,-2.5634765625,-109.0087890625,[0. 0. 0. 0. 0. 0. 0. 0. 0.],-0.3359375,0.30029296875,1.064453125,[0. 0. 0. 0. 0. 0. 0. 0. 0.]
8.670346736907959,0.00027861964190378785,-0.011907263658940792,-0.7033605575561523,0.7107335329055786,[0. 0. 0. 0. 0. 0. 0. 0. 0.],3.90625,7.8125,-105.3466796875,[0. 0. 0. 0. 0. 0. 0. 0. 0.],-0.17626953125,0.296875,0.95849609375,[0. 0. 0. 0. 0. 0. 0. 0. 0.]
8.688300371170044,0.002809390425682068,-0.010851995088160038,-0.7156898379325867,0.6983282566070557,[0. 0. 0. 0. 0. 0. 0. 0. 0.],-1.3427734375,-0.30517578125,-97.10693359375,[0. 0. 0. 0. 0. 0. 0. 0. 0.],-0.22314453125,0.3095703125,0.90087890625,[0. 0. 0. 0. 0. 0. 0. 0. 0.]
8.707926750183105,0.00331970676779747,-0.010852866806089878,-0.7264789342880249,0.6870951056480408,[0. 0. 0. 0. 0. 0. 0. 0. 0.],-2.197265625,-3.23486328125,-84.28955078125,[0. 0. 0. 0. 0. 0. 0. 0. 0.],-0.28955078125,0.322265625,1.083984375,[0. 0. 0. 0. 0. 0. 0. 0. 0.]
8.726082801818848,0.004700710065662861,-0.011204011738300323,-0.7354862093925476,0.6774308681488037,[0. 0. 0. 0. 0. 0. 0. 0. 0.],2.0751953125,-0.42724609375,-68.78662109375,[0. 0. 0. 0. 0. 0. 0. 0. 0.],-0.2099609375,0.27978515625,1.10107421875,[0. 0. 0. 0. 0. 0. 0. 0. 0.]
8.748794078826904,0.006175635382533073,-0.012182136997580528,-0.7423074841499329,0.6699202060699463,[0. 0. 0. 0. 0. 0. 0. 0. 0.],4.2724609375,-4.638671875,-51.45263671875,[0. 0. 0. 0. 0. 0. 0. 0. 0.],-0.181640625,0.23828125,0.93017578125,[0. 0. 0. 0. 0. 0. 0. 0. 0.]
8.762049674987793,0.007370430510491133,-0.012898067012429237,-0.7471190094947815,0.6645243763923645,[0. 0. 0. 0. 0. 0. 0. 0. 0.],-0.42724609375,-1.77001953125,-36.1328125,[0. 0. 0. 0. 0. 0. 0. 0. 0.],-0.1650390625,0.29541015625,0.91845703125,[0. 0. 0. 0. 0. 0. 0. 0. 0.]
8.78754734992981,0.008783672004938126,-0.013909706845879555,-0.7504040598869324,0.6607747077941895,[0. 0. 0. 0. 0. 0. 0. 0. 0.],2.44140625,-2.01416015625,-23.13232421875,[0. 0. 0. 0. 0. 0. 0. 0. 0.],-0.1669921875,0.30078125,1.05224609375,[0. 0. 0. 0. 0. 0. 0. 0. 0.]
8.803175449371338,0.01049978006631136,-0.014789093285799026,-0.7525498270988464,0.6582854986190796,[0. 0. 0. 0. 0. 0. 0. 0. 0.],2.5634765625,-0.18310546875,-16.4794921875,[0. 0. 0. 0. 0. 0. 0. 0. 0.],-0.1181640625,0.318359375,1.04931640625,[0. 0. 0. 0. 0. 0. 0. 0. 0.]
8.827009439468384,0.012252135202288628,-0.015578081831336021,-0.753907322883606,0.6566817760467529,[0. 0. 0. 0. 0. 0. 0. 0. 0.],2.13623046875,-1.52587890625,-10.55908203125,[0. 0. 0. 0. 0. 0. 0. 0. 0.],-0.12158203125,0.32763671875,1.02099609375,[0. 0. 0. 0. 0. 0. 0. 0. 0.]
8.847224235534668,0.013496587052941322,-0.016598070040345192,-0.7547597885131836,0.6556523442268372,[0. 0. 0. 0. 0. 0. 0. 0. 0.],0.48828125,1.03759765625,-5.4931640625,[0. 0. 0. 0. 0. 0. 0. 0. 0.],-0.08544921875,0.32373046875,0.98583984375,[0. 0. 0. 0. 0. 0. 0. 0. 0.]
8.86716103553772,0.01442052237689495,-0.017944475635886192,-0.7549827098846436,0.6553404927253723,[0. 0. 0. 0. 0. 0. 0. 0. 0.],0.9765625,-4.638671875,1.46484375,[0. 0. 0. 0. 0. 0. 0. 0. 0.],-0.095703125,0.31689453125,0.99072265625,[0. 0. 0. 0. 0. 0. 0. 0. 0.]
8.885192155838013,0.015176833607256413,-0.01951892115175724,-0.7542871832847595,0.6560789942741394,[0. 0. 0. 0. 0. 0. 0. 0. 0.],1.03759765625,-5.67626953125,7.99560546875,[0. 0. 0. 0. 0. 0. 0. 0. 0.],-0.048828125,0.31787109375,1.0146484375,[0. 0. 0. 0. 0. 0. 0. 0. 0.]
8.90315866470337,0.015734706073999405,-0.020904332399368286,-0.7527135610580444,0.6578280329704285,[0. 0. 0. 0. 0. 0. 0. 0. 0.],-0.8544921875,-2.44140625,15.5029296875,[0. 0. 0. 0. 0. 0. 0. 0. 0.],-0.00537109375,0.3212890625,1.00732421875,[0. 0. 0. 0. 0. 0. 0. 0. 0.]
8.92676568031311,0.016308613121509552,-0.022109506651759148,-0.7505311369895935,0.6602638363838196,[0. 0. 0. 0. 0. 0. 0. 0. 0.],0.244140625,-3.96728515625,20.263671875,[0. 0. 0. 0. 0. 0. 0. 0. 0.],-0.0244140625,0.314453125,1.0322265625,[0. 0. 0. 0. 0. 0. 0. 0. 0.]
