time,imu.ypr.x,imu.ypr.y,imu.ypr.z,imu.linear_acceleration.x,imu.linear_acceleration.y,imu.linear_acceleration.z,imu.angular_velocity.x,imu.angular_velocity.y,imu.angular_velocity.z,imu.compass.x,imu.compass.y,imu.compass.z,imu.orientation.x,imu.orientation.y,imu.orientation.z,imu.orientation.w
0.1644906997680664,-2.04407946408959,1.9110965347230882,35.970071112848274,-0.03369140625,0.03564453125,1.001953125,-0.1220703125,-0.79345703125,-0.244140625,0.0,0.0,0.0,-0.022111503407359123,-0.010352554731070995,0.3089594542980194,-0.9507618546485901
0.18553996086120605,-1.9643592036444937,1.935048514038442,35.97694569824789,-0.0341796875,0.0341796875,1.00341796875,-0.1220703125,-0.6103515625,-0.18310546875,0.0,0.0,0.0,-0.021515170112252235,-0.010764969512820244,0.3090115189552307,-0.9507540464401245
0.20858168601989746,-1.9162358251866995,1.9204299882239104,35.98230739674635,-0.03369140625,0.03369140625,1.0029296875,-0.30517578125,-0.3662109375,-0.06103515625,0.0,0.0,0.0,-0.021077049896121025,-0.01077244058251381,0.3090501129627228,-0.9507511258125305
0.21970725059509277,-1.9669465646794593,1.913704172882152,35.98520681204902,-0.0341796875,0.03466796875,1.001953125,-0.06103515625,-0.8544921875,-0.18310546875,0.0,0.0,0.0,-0.02147994376718998,-0.010579317808151245,0.30907824635505676,-0.9507352709770203
0.2444322109222412,-1.939094547348028,1.9454180218589905,35.988936095335845,-0.0341796875,0.03369140625,1.00244140625,0.0,-1.0986328125,-0.30517578125,0.0,0.0,0.0,-0.021334609016776085,-0.010916918516159058,0.3091095983982086,-0.9507244229316711
0.26443052291870117,-1.877796374311514,1.9593069980928,35.99231020878583,-0.0341796875,0.03271484375,1.00244140625,-0.1220703125,-0.48828125,-0.1220703125,0.0,0.0,0.0,-0.020863767713308334,-0.011196905747056007,0.30913299322128296,-0.9507240056991577
0.28475379943847656,-1.9816214395546432,1.915450780318971,35.991634020058,-0.0341796875,0.0341796875,1.00341796875,-0.06103515625,-0.244140625,-0.244140625,0.0,0.0,0.0,-0.021606994792819023,-0.010553018189966679,0.3091331124305725,-0.9507147669792175
0.3153994083404541,-2.0027139174852886,1.9969961953763418,35.99448903913107,-0.03466796875,0.03515625,1.00244140625,0.0,-0.48828125,0.0,0.0,0.0,0.0,-0.022001853212714195,-0.011172238737344742,0.3091667890548706,-0.9506876468658447
0.320784330368042,-1.8993673923708836,1.9212566545568937,36.003836153010226,-0.03369140625,0.03369140625,1.0009765625,-0.06103515625,-0.8544921875,-0.244140625,0.0,0.0,0.0,-0.0209413543343544,-0.010820860043168068,0.30922722816467285,-0.9506959915161133
0.34522342681884766,-1.8987430703920622,1.902000643739335,36.00569737955906,-0.033203125,0.03271484375,1.0029296875,-0.06103515625,-0.8544921875,-0.1220703125,0.0,0.0,0.0,-0.020884472876787186,-0.010662421584129333,0.30924081802368164,-0.9506946206092834
0.3650045394897461,-1.9079608375638175,1.910518316521164,36.0090817382928,-0.033203125,0.03369140625,1.00146484375,-0.1220703125,-0.54931640625,-0.244140625,0.0,0.0,0.0,-0.020984210073947906,-0.010707604698836803,0.30927056074142456,-0.9506822228431702
0.3845841884613037,-1.920777900984758,1.9178511649254075,36.0121792290814,-0.03369140625,0.033203125,1.0009765625,-0.06103515625,-0.3662109375,0.0,0.0,0.0,0.0,-0.021110590547323227,-0.010733288712799549,0.3092981278896332,-0.9506701827049255
0.4044060707092285,-1.8657229477364587,1.9730730309215492,36.0174862860665,-0.03466796875,0.03271484375,1.00390625,-0.1220703125,-0.732421875,-0.06103515625,0.0,0.0,0.0,-0.020803162828087807,-0.011339139193296432,0.3093418776988983,-0.9506557583808899
0.42516040802001953,-1.9990723594406141,1.9854228667145783,36.01815222951058,-0.03466796875,0.0341796875,1.00341796875,0.06103515625,-1.03759765625,-0.3662109375,0.0,0.0,0.0,-0.02194276452064514,-0.011081497184932232,0.30936163663864136,-0.9506266713142395
0.4456806182861328,-1.976503066545365,1.9853652369934565,36.022544041146894,-0.03515625,0.03466796875,1.00341796875,-0.06103515625,-0.79345703125,-0.3662109375,0.0,0.0,0.0,-0.021755805239081383,-0.011141115799546242,0.30939584970474243,-0.9506192207336426
0.4597446918487549,-1.9791864771155336,1.9800615951029414,36.02586351308352,-0.0341796875,0.03515625,1.00244140625,-0.1220703125,-0.3662109375,0.06103515625,0.0,0.0,0.0,-0.02176409400999546,-0.011089233681559563,0.3094231188297272,-0.9506107568740845
0.48439478874206543,-1.936211567188048,2.0050101417068826,36.030794909664266,-0.03466796875,0.0341796875,1.0029296875,-0.1220703125,-0.3662109375,0.0,0.0,0.0,0.0,-0.021475322544574738,-0.011411355808377266,0.30946218967437744,-0.950600802898407
0.50459885597229,-1.9364487028182944,1.9794539217102218,36.035511155286166,-0.03466796875,0.03369140625,1.0029296875,-0.06103515625,-0.732421875,-0.18310546875,0.0,0.0,0.0,-0.02140885777771473,-0.011197789572179317,0.30949893593788147,-0.9505928754806519
0.5249934196472168,-1.8668379761184632,1.9125208426084472,36.04032302355644,-0.033203125,0.033203125,1.0029296875,-0.06103515625,-1.03759765625,-0.18310546875,0.0,0.0,0.0,-0.02065138705074787,-0.010829578153789043,0.3095260262489319,-0.9506050944328308
0.5445058345794678,-1.8981140526581863,1.914798497253235,36.04157977836372,-0.0341796875,0.033203125,1.001953125,-0.1220703125,-1.03759765625,-0.18310546875,0.0,0.0,0.0,-0.020917102694511414,-0.010763763450086117,0.3095396161079407,-0.9505955576896667
0.5637609958648682,-1.833881673042917,1.8951817670701352,36.04697904290261,-0.033203125,0.03271484375,1.0009765625,0.06103515625,-1.03759765625,-0.18310546875,0.0,0.0,0.0,-0.020331861451268196,-0.010773551650345325,0.3095765709877014,-0.9505962133407593
0.5888991355895996,-1.9102673070691663,1.9141086481470637,36.04959500535473,-0.033203125,0.033203125,1.0029296875,-0.1220703125,-0.67138671875,-0.3662109375,0.0,0.0,0.0,-0.021016810089349747,-0.01072374265640974,0.3096071481704712,-0.9505718350410461
0.6084790229797363,-1.9919875322806069,1.882503228423299,36.04970428838145,-0.03271484375,0.0341796875,1.00439453125,-0.1220703125,-0.30517578125,0.0,0.0,0.0,0.0,-0.021609464660286903,-0.010240702889859676,0.3096124827861786,-0.9505621194839478
0.6267127990722656,-1.9523224893362272,1.9634057519250423,36.05442053400334,-0.0341796875,0.0341796875,1.0029296875,-0.06103515625,-0.79345703125,-0.1220703125,0.0,0.0,0.0,-0.021499089896678925,-0.011018216609954834,0.3096558451652527,-0.9505418539047241
0.6444063186645508,-1.9494484737995328,2.0042125036778717,36.05696819456376,-0.03515625,0.0341796875,1.00244140625,-0.06103515625,-0.9765625,-0.244140625,0.0,0.0,0.0,-0.021585574373602867,-0.011364060454070568,0.3096805512905121,-0.9505277276039124
0.6659092903137207,-1.924930015669891,2.022490516783649,36.061421477902606,-0.03564453125,0.03369140625,1.001953125,0.0,-1.03759765625,-0.18310546875,0.0,0.0,0.0,-0.021431950852274895,-0.01158113032579422,0.30971670150756836,-0.9505168795585632
0.679419994354248,-1.8790659357234902,1.9449448178155557,36.064775100785084,-0.03466796875,0.033203125,1.00244140625,-0.1220703125,-0.30517578125,-0.06103515625,0.0,0.0,0.0,-0.020842622965574265,-0.011061123572289944,0.30973297357559204,-0.9505307674407959
0.7134628295898438,-1.9065807124646519,1.8956615878593286,36.06731934625091,-0.033203125,0.033203125,1.00244140625,-0.06103515625,-0.48828125,-0.06103515625,0.0,0.0,0.0,-0.020938105881214142,-0.010577413253486156,0.3097521662712097,-0.9505279660224915
0.7200610637664795,-1.9057235237238153,1.9568511181993573,36.072001440926954,-0.0341796875,0.03369140625,1.00341796875,-0.06103515625,-1.03759765625,-0.18310546875,0.0,0.0,0.0,-0.021096570417284966,-0.011086518876254559,0.3097965717315674,-0.9505041837692261
0.7826337814331055,-1.9031376567927307,1.919846647380109,36.07541653551196,-0.03369140625,0.033203125,1.0029296875,-0.06103515625,-0.9765625,-0.3662109375,0.0,0.0,0.0,-0.020975572988390923,-0.010785886086523533,0.309821218252182,-0.950502336025238
0.7828733921051025,-1.882439835730065,2.007488646601951,36.079545384865234,-0.03466796875,0.03369140625,1.00390625,-0.18310546875,-0.54931640625,-0.244140625,0.0,0.0,0.0,-0.021040860563516617,-0.011568183079361916,0.309861421585083,-0.9504784941673279
0.7834959030151367,-1.9588019909810421,1.8999955563311133,36.08169689445379,-0.033203125,0.03466796875,1.00341796875,-0.06103515625,-0.244140625,-0.18310546875,0.0,0.0,0.0,-0.021384287625551224,-0.010469526052474976,0.30987662076950073,-0.9504786133766174
0.8037302494049072,-1.9093953907329317,1.9941998732414563,36.0869561401147,-0.03466796875,0.03369140625,1.00390625,0.0,-0.6103515625,-0.06103515625,0.0,0.0,0.0,-0.021229306235909462,-0.011383677832782269,0.3099243640899658,-0.9504560232162476
0.8245534896850586,-2.005749509684536,1.979634067949581,36.08767330997755,-0.03466796875,0.03466796875,1.0029296875,0.0,-0.9765625,-0.244140625,0.0,0.0,0.0,-0.021989235654473305,-0.011002099141478539,0.30993837118148804,-0.9504386782646179
0.8446164131164551,-1.9546720744107116,1.9180793359323682,36.09187046122253,-0.0341796875,0.03369140625,1.00244140625,-0.244140625,-0.732421875,-0.30517578125,0.0,0.0,0.0,-0.021399792283773422,-0.010628818534314632,0.30996236205101013,-0.9504485130310059
0.8655135631561279,-1.938165855064318,1.8686714550237886,36.09582514075196,-0.033203125,0.03369140625,1.0009765625,-0.1220703125,-0.48828125,-0.1220703125,0.0,0.0,0.0,-0.021129822358489037,-0.01026285719126463,0.3099888861179352,-0.95045006275177
0.886969804763794,-1.9362602322858844,1.8662680822095903,36.097242405004735,-0.03271484375,0.03466796875,1.00244140625,-0.1220703125,-0.3662109375,-0.1220703125,0.0,0.0,0.0,-0.02110765501856804,-0.01024781446903944,0.3100002408027649,-0.9504469633102417
0.9051885604858398,-1.9564041676955446,1.894916670352974,36.10045942410382,-0.033203125,0.0341796875,1.001953125,-0.06103515625,-0.79345703125,-0.18310546875,0.0,0.0,0.0,-0.02135239727795124,-0.010430378839373589,0.310031533241272,-0.9504292011260986
0.9275298118591309,-1.903534021208003,1.8862421166636463,36.1063402169792,-0.033203125,0.033203125,1.00244140625,0.06103515625,-0.6103515625,-0.18310546875,0.0,0.0,0.0,-0.020890995860099792,-0.010500387288630009,0.31007465720176697,-0.9504246711730957
0.9455447196960449,-1.9712515048472714,1.9284251515342334,36.10585527354812,-0.03369140625,0.03466796875,1.00244140625,-0.1220703125,-0.91552734375,-0.18310546875,0.0,0.0,0.0,-0.021566543728113174,-0.01066716481000185,0.3100809156894684,-0.9504056572914124
0.9648888111114502,-1.9782703779931057,1.9283905737015603,36.10993972667179,-0.03369140625,0.0341796875,1.00146484375,-0.244140625,-0.3662109375,-0.1220703125,0.0,0.0,0.0,-0.021625040099024773,-0.010647112503647804,0.31011542677879333,-0.9503933787345886
0.9847960472106934,-1.9704084033715978,1.9977596824595023,36.113624613729016,-0.03515625,0.0341796875,1.0029296875,-0.06103515625,-0.42724609375,-0.1220703125,0.0,0.0,0.0,-0.021747590973973274,-0.011243129149079323,0.3101519048213959,-0.9503718018531799
1.0090265274047852,-1.9159399926182734,2.0003630517503352,36.11962835000946,-0.03515625,0.0341796875,1.001953125,-0.1220703125,-0.67138671875,-0.18310546875,0.0,0.0,0.0,-0.021303484216332436,-0.011411030776798725,0.31019657850265503,-0.9503652453422546
1.0195088386535645,-1.9404654943804966,1.9541837158850557,36.12181742563845,-0.03466796875,0.0341796875,1.001953125,-0.06103515625,-0.91552734375,-0.244140625,0.0,0.0,0.0,-0.02138231322169304,-0.010961171239614487,0.3102128207683563,-0.9503634572029114
1.0401427745819092,-1.8629402859799131,2.004444730109652,36.1279099543781,-0.03515625,0.033203125,1.00244140625,-0.06103515625,-0.91552734375,-0.244140625,0.0,0.0,0.0,-0.02087579481303692,-0.011586848646402359,0.3102602958679199,-0.9503518342971802
1.0663402080535889,-1.9879293326965615,1.9817159949859655,36.12655757692243,-0.03466796875,0.03466796875,1.00146484375,-0.1220703125,-0.6103515625,-0.18310546875,0.0,0.0,0.0,-0.021850809454917908,-0.011060155928134918,0.3102593719959259,-0.9503363966941833
1.0893282890319824,-1.9249214779334285,1.947653841595112,36.13344923779498,-0.0341796875,0.03369140625,1.0048828125,-0.1220703125,-0.6103515625,-0.1220703125,0.0,0.0,0.0,-0.021236862987279892,-0.010946930386126041,0.31030717492103577,-0.9503360986709595
1.1035029888153076,-1.8826616034346788,1.8530868843285235,36.13708289843342,-0.03271484375,0.033203125,1.001953125,-0.18310546875,-0.244140625,0.06103515625,0.0,0.0,0.0,-0.02063106931746006,-0.010276290588080883,0.31032463908195496,-0.9503512382507324
1.119673490524292,-1.9173211849344969,1.9964738993482474,36.13774201168833,-0.0341796875,0.033203125,1.00048828125,-0.06103515625,-0.79345703125,-0.1220703125,0.0,0.0,0.0,-0.021306229755282402,-0.011371662840247154,0.3103466033935547,-0.9503166079521179
1.1490061283111572,-1.9937379816988343,1.910660042946442,36.13992767222273,-0.0341796875,0.03466796875,1.00244140625,0.06103515625,-0.91552734375,-0.18310546875,0.0,0.0,0.0,-0.021708162501454353,-0.010452494025230408,0.3103637993335724,-0.9503125548362732
1.1646668910980225,-1.9836019809705352,1.957734133592993,36.14165229498816,-0.03515625,0.03466796875,1.00341796875,-0.1220703125,-0.48828125,-0.1220703125,0.0,0.0,0.0,-0.021751541644334793,-0.010870079509913921,0.31038179993629456,-0.950300931930542
1.1792802810668945,-2.0107272234855946,1.920778327871581,36.14660076704183,-0.03369140625,0.03564453125,1.00146484375,-0.1220703125,-0.30517578125,-0.06103515625,0.0,0.0,0.0,-0.021877024322748184,-0.010489133186638355,0.3104217052459717,-0.950289249420166
1.1997463703155518,-2.107291370754177,1.9491699301474432,36.14777214448449,-0.03369140625,0.0361328125,1.00146484375,-0.1220703125,-0.54931640625,-0.18310546875,0.0,0.0,0.0,-0.02275468036532402,-0.010462800040841103,0.3104431927204132,-0.9502619504928589
1.219801664352417,-1.9005381294833061,1.9432857221774773,36.158222333914615,-0.0341796875,0.033203125,1.00341796875,-0.06103515625,-1.15966796875,-0.244140625,0.0,0.0,0.0,-0.02102520875632763,-0.010972179472446442,0.31050989031791687,-0.9502743482589722
1.2525947093963623,-1.9259857067834811,2.0305964572245734,36.16269610782097,-0.03564453125,0.03369140625,1.00390625,-0.1220703125,-0.6103515625,-0.1220703125,0.0,0.0,0.0,-0.021472861990332603,-0.01162655744701624,0.3105575144290924,-0.9502409100532532
1.2643632888793945,-2.018811179255128,2.0781068262043587,36.15974888119411,-0.03662109375,0.03564453125,1.00390625,-0.1220703125,-0.48828125,-0.06103515625,0.0,0.0,0.0,-0.02237081527709961,-0.011769605800509453,0.3105470538139343,-0.950221836566925
1.2914443016052246,-1.9372696061791654,1.9977645916579683,36.16526084385431,-0.0341796875,0.033203125,1.00341796875,0.06103515625,-0.1220703125,-0.06103515625,0.0,0.0,0.0,-0.021477870643138885,-0.011323186568915844,0.3105769157409668,-0.9502381086349487
1.2996814250946045,-1.8439557751818627,1.9246171076285399,36.17216958019978,-0.03369140625,0.03173828125,1.001953125,-0.06103515625,-0.54931640625,-0.1220703125,0.0,0.0,0.0,-0.02050682157278061,-0.01096816174685955,0.31061846017837524,-0.9502501487731934
1.3252742290496826,-1.959934948609618,1.9384873008421317,36.171145051824276,-0.0341796875,0.0341796875,1.0009765625,0.0,-1.0986328125,-0.1220703125,0.0,0.0,0.0,-0.02150600217282772,-0.010769004002213478,0.31062227487564087,-0.9502291083335876
1.3444809913635254,-1.9390898515929738,1.9943879168870433,36.1730745802648,-0.03466796875,0.0341796875,1.0029296875,-0.244140625,-0.8544921875,-0.1220703125,0.0,0.0,0.0,-0.021484600380063057,-0.011288778856396675,0.3106415569782257,-0.9502172470092773
1.3646533489227295,-1.9569285981577547,1.998815587016504,36.17464552377391,-0.03515625,0.0341796875,1.0029296875,-0.06103515625,-0.3662109375,-0.06103515625,0.0,0.0,0.0,-0.021644657477736473,-0.011276849545538425,0.31065672636032104,-0.9502087831497192
1.3847224712371826,-1.9521177971045385,1.8879310943793435,36.179447146760424,-0.033203125,0.0341796875,1.001953125,-0.1220703125,-0.30517578125,-0.06103515625,0.0,0.0,0.0,-0.021305128931999207,-0.010369344614446163,0.31068548560142517,-0.9502174854278564
1.4025452136993408,-1.9361829657708987,1.870476545955376,36.18371943008627,-0.03271484375,0.03369140625,1.001953125,0.06103515625,-0.8544921875,-0.18310546875,0.0,0.0,0.0,-0.02112613432109356,-0.010266995057463646,0.3107178211212158,-0.9502119421958923
1.4244394302368164,-1.8922484142650262,1.9392217596213197,36.18789950585832,-0.0341796875,0.033203125,1.00244140625,-0.1220703125,-0.9765625,-0.244140625,0.0,0.0,0.0,-0.020948313176631927,-0.01095550786703825,0.3107548654079437,-0.9501960873603821
1.4465315341949463,-1.9301045242964103,1.9477910857087468,36.189975883366,-0.0341796875,0.03369140625,1.00341796875,-0.1220703125,-0.79345703125,-0.18310546875,0.0,0.0,0.0,-0.021285608410835266,-0.010923532769083977,0.3107764422893524,-0.9501819014549255
1.4645016193389893,-1.9740130357060721,1.86008419968979,36.19206250615744,-0.03271484375,0.03466796875,1.00390625,0.0,-0.67138671875,-0.1220703125,0.0,0.0,0.0,-0.021412428468465805,-0.010076668113470078,0.3107893466949463,-0.950184166431427
1.4798767566680908,-2.0054011700368655,1.9465704028380186,36.19417303461098,-0.0341796875,0.03515625,1.00244140625,-0.18310546875,-0.30517578125,-0.1220703125,0.0,0.0,0.0,-0.021907048299908638,-0.010708396323025227,0.31081828474998474,-0.9501565098762512
1.5047380924224854,-1.9145824925207333,1.9994926295179816,36.20178528044095,-0.03515625,0.0341796875,1.00048828125,0.0,-0.48828125,-0.1220703125,0.0,0.0,0.0,-0.02129804715514183,-0.011392218060791492,0.3108776807785034,-0.9501429796218872
1.5198447704315186,-1.94472689209235,2.018019517641641,36.20394020512409,-0.03564453125,0.0341796875,1.0029296875,0.0,-0.8544921875,-0.18310546875,0.0,0.0,0.0,-0.02159837633371353,-0.011463677510619164,0.3109002411365509,-0.9501280188560486
1.5394806861877441,-1.9228751959467751,1.9399713728827286,36.207802677099735,-0.03369140625,0.033203125,1.00146484375,-0.06103515625,-0.9765625,-0.244140625,0.0,0.0,0.0,-0.021206187084317207,-0.01087498664855957,0.31092286109924316,-0.9501363635063171
1.559807300567627,-2.006796663061664,1.9530981426938467,36.20706843176396,-0.03466796875,0.03466796875,1.0029296875,-0.18310546875,-0.48828125,-0.06103515625,0.0,0.0,0.0,-0.021937500685453415,-0.010756279341876507,0.3109259307384491,-0.9501201510429382
1.58455491065979,-2.035954740628448,2.003591810237047,36.20859156394887,-0.03515625,0.03564453125,1.00341796875,0.0,-0.3662109375,0.06103515625,0.0,0.0,0.0,-0.022316161543130875,-0.011095606721937656,0.31094640493392944,-0.9501006007194519
1.6055669784545898,-2.0208032466152446,1.9964431634969824,36.212638451032106,-0.0341796875,0.03515625,1.00146484375,-0.06103515625,-0.48828125,0.06103515625,0.0,0.0,0.0,-0.022171564400196075,-0.011076655238866806,0.3109777569770813,-0.9500940442085266
1.6247336864471436,-1.8870384740321875,1.9202528301923132,36.22083467803612,-0.03369140625,0.03271484375,1.001953125,0.0,-0.9765625,-0.30517578125,0.0,0.0,0.0,-0.020856862887740135,-0.01080632396042347,0.3110257089138031,-0.9501112103462219
1.644887924194336,-1.8932947138685077,1.920635320785834,36.223559923514955,-0.03369140625,0.033203125,1.00244140625,-0.06103515625,-0.8544921875,-0.244140625,0.0,0.0,0.0,-0.020910028368234634,-0.010792017914354801,0.3110489249229431,-0.9501026272773743
1.664534568786621,-1.9075164483809435,1.9031216485368634,36.22653105580391,-0.03369140625,0.0341796875,1.00341796875,-0.1220703125,-0.54931640625,-0.18310546875,0.0,0.0,0.0,-0.02098076045513153,-0.010607636533677578,0.31107327342033386,-0.9500951170921326
1.6856670379638672,-1.9195984126924615,1.9873370272294744,36.22993932019975,-0.03466796875,0.03369140625,1.00390625,-0.18310546875,-0.30517578125,-0.06103515625,0.0,0.0,0.0,-0.021309487521648407,-0.011272567324340343,0.3111104667186737,-0.9500679969787598
1.7044236660003662,-1.924649764470509,1.9660426318314903,36.23391790539128,-0.03369140625,0.03369140625,1.00341796875,0.06103515625,-0.79345703125,-0.1220703125,0.0,0.0,0.0,-0.021294042468070984,-0.011081529781222343,0.3111419975757599,-0.950060248374939
1.7246501445770264,-2.011197225877856,2.025558552381454,36.234460905430296,-0.03515625,0.03564453125,1.00390625,0.1220703125,-1.03759765625,-0.244140625,0.0,0.0,0.0,-0.022172944620251656,-0.011339950375258923,0.3111606240272522,-0.9500309824943542
1.7447099685668945,-1.9693428938610757,1.9416082704060045,36.23889028310705,-0.0341796875,0.0341796875,1.001953125,-0.1220703125,-0.8544921875,-0.18310546875,0.0,0.0,0.0,-0.021598821505904198,-0.01075662113726139,0.31118515133857727,-0.9500430226325989
1.7649648189544678,-1.9958956811463235,1.9719202230556978,36.242032170125256,-0.03466796875,0.03466796875,1.0029296875,-0.06103515625,-0.42724609375,-0.244140625,0.0,0.0,0.0,-0.021901428699493408,-0.010935267433524132,0.31121668219566345,-0.9500237107276917
1.7848474979400635,-1.933527302844233,1.9309111269487067,36.248274963026645,-0.03369140625,0.03369140625,1.00341796875,0.0,-0.30517578125,-0.06103515625,0.0,0.0,0.0,-0.021273773163557053,-0.010763435624539852,0.31125858426094055,-0.9500260949134827
1.7995290756225586,-2.009443788251867,1.9384279635737172,36.24893407628155,-0.03466796875,0.03515625,1.0029296875,0.0,-0.79345703125,-0.1220703125,0.0,0.0,0.0,-0.021923596039414406,-0.01061942894011736,0.3112718462944031,-0.950008749961853
1.8247196674346924,-1.9136614841998394,2.0193573809453174,36.25505392577789,-0.03515625,0.0341796875,1.0029296875,-0.06103515625,-0.91552734375,-0.244140625,0.0,0.0,0.0,-0.021349573507905006,-0.01154953520745039,0.3113209903240204,-0.9499948620796204
1.8451626300811768,-1.8849563335523913,1.8706146438426572,36.258731982645934,-0.03369140625,0.033203125,1.001953125,-0.1220703125,-0.67138671875,-0.18310546875,0.0,0.0,0.0,-0.020708533003926277,-0.010393488220870495,0.31133517622947693,-0.9500176906585693
1.8657894134521484,-1.8954479310043542,2.008941342461048,36.26108839790959,-0.03515625,0.033203125,1.0009765625,-0.244140625,-0.244140625,-0.1220703125,0.0,0.0,0.0,-0.02117093652486801,-0.011511534452438354,0.31136825680732727,-0.9499838352203369
1.8804659843444824,-1.9002992863057673,2.0029226651417975,36.26532994538417,-0.03466796875,0.033203125,1.00341796875,0.06103515625,-0.30517578125,-0.1220703125,0.0,0.0,0.0,-0.02119525894522667,-0.011447660624980927,0.31140339374542236,-0.9499724507331848
1.9105501174926758,-1.9262817527953189,2.0137617484677843,36.26709213419003,-0.03515625,0.0341796875,1.00439453125,-0.18310546875,-0.6103515625,-0.1220703125,0.0,0.0,0.0,-0.021440232172608376,-0.011466597206890583,0.31142157316207886,-0.9499608278274536
1.9273598194122314,-1.9620555089034954,1.9669939491168262,36.26834547390273,-0.0341796875,0.03466796875,1.00390625,0.0,-0.48828125,-0.1220703125,0.0,0.0,0.0,-0.021610045805573463,-0.010981360450387001,0.3114311099052429,-0.9499595165252686
1.9400765895843506,-1.9768334769464642,1.9112741196415084,36.270558455193814,-0.033203125,0.0341796875,1.0009765625,-0.06103515625,-0.9765625,-0.18310546875,0.0,0.0,0.0,-0.02158159203827381,-0.010478776879608631,0.311445415019989,-0.949961245059967
1.9727599620819092,-1.9174281200836898,1.9187051520150706,36.276931021689435,-0.03369140625,0.03369140625,1.00244140625,-0.1220703125,-0.9765625,-0.18310546875,0.0,0.0,0.0,-0.02110987715423107,-0.01070067286491394,0.31149348616600037,-0.9499536156654358
1.9795708656311035,-1.9664961990810614,1.8939621514164648,36.27676368205477,-0.033203125,0.0341796875,1.0009765625,0.0,-0.30517578125,0.0,0.0,0.0,0.0,-0.021449487656354904,-0.010362168774008751,0.31149423122406006,-0.9499495029449463
2.004702091217041,-2.06424389006676,1.9206818514495547,36.277019814148645,-0.03369140625,0.0361328125,1.001953125,-0.06103515625,-0.6103515625,-0.1220703125,0.0,0.0,0.0,-0.02233232371509075,-0.010317948646843433,0.3115078806877136,-0.9499250650405884
2.024933099746704,-2.02281836586381,1.976598689193745,36.281917059783545,-0.03466796875,0.03564453125,1.00341796875,-0.06103515625,-0.91552734375,-0.18310546875,0.0,0.0,0.0,-0.02214110642671585,-0.01089323591440916,0.3115503489971161,-0.9499092698097229
2.0445849895477295,-1.9525807558642183,2.0524189116227642,36.28771589038888,-0.03564453125,0.0341796875,1.001953125,-0.18310546875,-0.91552734375,-0.244140625,0.0,0.0,0.0,-0.021765222772955894,-0.01171173620969057,0.3115987777709961,-0.9498922824859619
2.0646564960479736,-1.9616580772711654,1.9629856952910865,36.28929707918174,-0.03369140625,0.03466796875,1.00244140625,-0.244140625,-0.48828125,-0.06103515625,0.0,0.0,0.0,-0.021597877144813538,-0.010945258662104607,0.3116043508052826,-0.9499034285545349
2.0844292640686035,-1.9548419753663158,1.946183429932855,36.29178668313421,-0.03466796875,0.03466796875,1.00244140625,-0.1220703125,-0.30517578125,-0.06103515625,0.0,0.0,0.0,-0.0214960016310215,-0.010824018158018589,0.3116227090358734,-0.9499011039733887
2.1013343334198,-1.9404904672596495,1.9590709296796114,36.294566570126406,-0.0341796875,0.0341796875,1.001953125,0.0,-0.6103515625,-0.06103515625,0.0,0.0,0.0,-0.021412288770079613,-0.010969376191496849,0.31164565682411194,-0.9498937726020813
2.1196563243865967,-1.9438186903761498,1.9563802620334494,36.297804079792996,-0.03515625,0.033203125,1.00390625,-0.06103515625,-0.9765625,-0.30517578125,0.0,0.0,0.0,-0.02143288031220436,-0.010937410406768322,0.31167253851890564,-0.9498848915100098
2.144718885421753,-1.964572433612645,1.9687196390993122,36.300099023354115,-0.03466796875,0.0341796875,1.00244140625,-0.1220703125,-0.79345703125,-0.18310546875,0.0,0.0,0.0,-0.02163863740861416,-0.010982834734022617,0.3116947114467621,-0.9498723745346069
2.1595795154571533,-1.9642977319419637,1.9772005996143525,36.30353460850663,-0.03466796875,0.0341796875,1.0029296875,-0.1220703125,-0.42724609375,-0.18310546875,0.0,0.0,0.0,-0.021659716963768005,-0.011053245514631271,0.3117239773273468,-0.9498615264892578
2.17987060546875,-1.9351473383379953,1.928335505301377,36.30769419371117,-0.0341796875,0.03369140625,1.00341796875,-0.1220703125,-0.244140625,0.0,0.0,0.0,0.0,-0.021285781636834145,-0.010726643726229668,0.3117510676383972,-0.9498648643493652
2.2018682956695557,-1.9206295578137218,2.0221080261901285,36.31225676007674,-0.03466796875,0.03369140625,1.00390625,0.0,-0.732421875,-0.1220703125,0.0,0.0,0.0,-0.021420566365122795,-0.011542719788849354,0.3117961287498474,-0.9498375058174133
2.224846124649048,-1.9849675919177148,1.9220355095656867,36.31337349600604,-0.03369140625,0.03466796875,1.0029296875,-0.1220703125,-1.03759765625,-0.18310546875,0.0,0.0,0.0,-0.02168215811252594,-0.010537796653807163,0.3118021488189697,-0.9498412609100342
2.239922285079956,-1.9963157377802794,1.9690637098787516,36.31512885462273,-0.03466796875,0.03515625,1.00244140625,-0.244140625,-0.79345703125,-0.18310546875,0.0,0.0,0.0,-0.021904127672314644,-0.010896469466388226,0.31182238459587097,-0.9498253464698792
2.2648165225982666,-1.970388339690911,1.968836392645437,36.319151836043865,-0.0341796875,0.0341796875,1.0009765625,-0.244140625,-0.244140625,-0.1220703125,0.0,0.0,0.0,-0.02168898470699787,-0.010964375920593739,0.31185320019721985,-0.9498195052146912
2.2801425457000732,-1.9559386476149259,1.9654616388652162,36.325008723257156,-0.03466796875,0.0341796875,1.001953125,0.1220703125,-0.42724609375,-0.18310546875,0.0,0.0,0.0,-0.021560607478022575,-0.010974619537591934,0.3119000494480133,-0.9498069286346436
2.304631233215332,-2.0421723472072757,1.9464122412700506,36.32673676111717,-0.03466796875,0.03515625,1.00390625,0.0,-0.91552734375,-0.244140625,0.0,0.0,0.0,-0.022223766893148422,-0.01058164518326521,0.3119206428527832,-0.94978928565979
2.3221774101257324,-1.9198445129459933,1.971313189993213,36.334577818284345,-0.03466796875,0.03369140625,1.00390625,0.0,-0.8544921875,-0.18310546875,0.0,0.0,0.0,-0.02127826400101185,-0.011119596660137177,0.3119764029979706,-0.9497865438461304
2.345008373260498,-1.8745488328045845,1.9476585373501663,36.33748747887077,-0.0341796875,0.033203125,1.0029296875,-0.30517578125,-0.54931640625,-0.06103515625,0.0,0.0,0.0,-0.020838819444179535,-0.01104628574103117,0.3119940161705017,-0.9497913718223572
2.364659547805786,-1.960917428633042,1.9272458766853484,36.33770262982962,-0.03369140625,0.0341796875,1.001953125,-0.1220703125,-0.30517578125,0.0,0.0,0.0,0.0,-0.02149922400712967,-0.010641868226230145,0.31200212240219116,-0.9497784972190857
2.384474515914917,-1.9015886979550187,1.982731985625005,36.3419202716421,-0.03466796875,0.03369140625,1.00244140625,-0.06103515625,-0.18310546875,0.06103515625,0.0,0.0,0.0,-0.02115870639681816,-0.011262603104114532,0.31203654408454895,-0.9497677683830261
2.4052894115448,-1.8743767974148648,2.007399640699329,36.34726830976223,-0.03466796875,0.0322265625,1.0029296875,0.1220703125,-0.48828125,-0.06103515625,0.0,0.0,0.0,-0.021000759676098824,-0.011540212668478489,0.31208038330078125,-0.94975346326828
2.4244914054870605,-1.8188975186643785,1.9434090924693606,36.354084838553895,-0.0341796875,0.03173828125,1.00244140625,-0.1220703125,-0.9765625,-0.3662109375,0.0,0.0,0.0,-0.02036762237548828,-0.01115962490439415,0.3121258616447449,-0.9497568607330322
2.44858455657959,-1.9201288195701953,1.9282430843041705,36.35314910263761,-0.03369140625,0.0341796875,1.00146484375,-0.1220703125,-0.91552734375,-0.1220703125,0.0,0.0,0.0,-0.021165309473872185,-0.010758339427411556,0.31212639808654785,-0.949743926525116
2.4600775241851807,-1.9235272655690998,1.9214555838164702,36.35490104615972,-0.0341796875,0.03369140625,1.0009765625,-0.18310546875,-0.42724609375,-0.1220703125,0.0,0.0,0.0,-0.021175185218453407,-0.010692494921386242,0.3121406137943268,-0.9497396945953369
2.4904959201812744,-1.9316182649712146,1.96886819571376,36.358678140770735,-0.03466796875,0.03369140625,1.001953125,-0.18310546875,-0.48828125,-0.06103515625,0.0,0.0,0.0,-0.02137153036892414,-0.011062778532505035,0.31217706203460693,-0.9497191905975342
2.4995486736297607,-1.9863931804635433,1.9425824261363775,36.359316763458125,-0.0341796875,0.03466796875,1.00390625,0.06103515625,-0.67138671875,-0.1220703125,0.0,0.0,0.0,-0.021754076704382896,-0.010695540346205235,0.3121851086616516,-0.9497119188308716
2.524827241897583,-1.9428637445528174,1.9282304911428882,36.363319254311754,-0.03369140625,0.0341796875,1.00341796875,-0.06103515625,-0.91552734375,-0.30517578125,0.0,0.0,0.0,-0.02135465480387211,-0.010694414377212524,0.31221282482147217,-0.9497119188308716
2.544429063796997,-1.939596566252024,2.0193612229267255,36.36609914130395,-0.03515625,0.0341796875,1.0048828125,-0.18310546875,-0.732421875,-0.244140625,0.0,0.0,0.0,-0.02157571166753769,-0.011458202265202999,0.31224408745765686,-0.9496877193450928
2.564720869064331,-1.953856934021953,1.9234777466976172,36.37023823594098,-0.0341796875,0.0341796875,1.00244140625,-0.244140625,-0.42724609375,-0.1220703125,0.0,0.0,0.0,-0.021433476358652115,-0.010623770765960217,0.31227073073387146,-0.9496919512748718
2.5865824222564697,-1.987141939951306,1.870782196920734,36.373878726768595,-0.03271484375,0.03466796875,1.00146484375,-0.06103515625,-0.30517578125,-0.1220703125,0.0,0.0,0.0,-0.021566301584243774,-0.010095578618347645,0.3122987449169159,-0.9496855735778809
2.599769115447998,-1.9098101112815984,1.8387332417877418,36.37921993469954,-0.03271484375,0.033203125,1.001953125,0.0,-0.8544921875,-0.18310546875,0.0,0.0,0.0,-0.020838672295212746,-0.010039699263870716,0.3123331069946289,-0.949691116809845
2.6245501041412354,-1.8536896485227772,1.9559177301605928,36.38570861441106,-0.0341796875,0.0322265625,1.0029296875,0.0,-0.9765625,-0.3662109375,0.0,0.0,0.0,-0.02069307677447796,-0.011162840761244297,0.31239235401153564,-0.9496622681617737
2.640029191970825,-1.877652300008709,2.0000243170561847,36.38790452022921,-0.03515625,0.03271484375,1.0029296875,-0.06103515625,-0.67138671875,-0.18310546875,0.0,0.0,0.0,-0.021011922508478165,-0.011462702415883541,0.31241685152053833,-0.9496435523033142
2.6645281314849854,-1.887390228774443,1.9993214479019081,36.39061610532971,-0.03564453125,0.033203125,1.00341796875,-0.1220703125,-0.30517578125,-0.06103515625,0.0,0.0,0.0,-0.021090978756546974,-0.011429828591644764,0.3124402165412903,-0.9496345520019531
2.6858160495758057,-1.8645103757153698,1.9155067024928008,36.39605293590904,-0.03369140625,0.03271484375,1.00244140625,-0.1220703125,-0.42724609375,-0.1220703125,0.0,0.0,0.0,-0.02067374810576439,-0.010796512477099895,0.3124755918979645,-0.9496394395828247
2.7051029205322266,-1.900155425446374,1.909535409610917,36.39891820026586,-0.03369140625,0.033203125,1.00146484375,0.06103515625,-0.79345703125,-0.18310546875,0.0,0.0,0.0,-0.02095315232872963,-0.010649296455085278,0.3125021159648895,-0.9496263265609741
2.724726915359497,-1.8783844109103698,1.9216429871318224,36.402473313728855,-0.0341796875,0.03369140625,1.0029296875,-0.1220703125,-1.0986328125,-0.1220703125,0.0,0.0,0.0,-0.020806031301617622,-0.010808374732732773,0.31253063678741455,-0.949618399143219
2.746337890625,-1.9034435212015004,1.9934839840390743,36.40666363478466,-0.03466796875,0.03271484375,1.001953125,-0.06103515625,-1.03759765625,-0.244140625,0.0,0.0,0.0,-0.021209716796875,-0.011334702372550964,0.3125742971897125,-0.9495888352394104
2.7645535469055176,-1.9420398529841845,2.021496297372589,36.407732559389764,-0.03515625,0.03369140625,1.00390625,-0.06103515625,-0.3662109375,-0.18310546875,0.0,0.0,0.0,-0.021605931222438812,-0.011461394838988781,0.312589555978775,-0.9495733380317688
2.786954164505005,-2.035061693394469,1.880252040761545,36.410321201085196,-0.03271484375,0.0361328125,1.00390625,0.0,-0.30517578125,-0.244140625,0.0,0.0,0.0,-0.0219923947006464,-0.010036483407020569,0.31260594725608826,-0.9495752453804016
2.810126304626465,-1.9297459393649847,1.9736478340288879,36.41699088080971,-0.0341796875,0.03369140625,1.00341796875,0.0,-0.54931640625,-0.1220703125,0.0,0.0,0.0,-0.021374663338065147,-0.011096623726189137,0.3126606345176697,-0.9495595097541809
2.8248612880706787,-1.9203561368035098,2.022966068704611,36.41901603189862,-0.03515625,0.03369140625,1.0029296875,-0.1220703125,-0.9765625,-0.30517578125,0.0,0.0,0.0,-0.02143138274550438,-0.011530615389347076,0.31268101930618286,-0.9495463967323303
2.8455519676208496,-2.022709723167324,1.9150599654323994,36.419425843248824,-0.033203125,0.03466796875,1.001953125,-0.1220703125,-1.03759765625,-0.18310546875,0.0,0.0,0.0,-0.021985650062561035,-0.010356927290558815,0.3126838207244873,-0.9495463371276855
2.8645713329315186,-1.9230833032730488,1.8637056940537777,36.42663852301236,-0.03271484375,0.03369140625,1.0009765625,-0.30517578125,-0.3662109375,-0.1220703125,0.0,0.0,0.0,-0.021020855754613876,-0.010201819241046906,0.3127296566963196,-0.9495547413825989
2.8840930461883545,-1.9370770802219357,2.007972949702787,36.43078103274397,-0.03466796875,0.033203125,1.00048828125,-0.18310546875,-0.42724609375,-0.1220703125,0.0,0.0,0.0,-0.0215302687138319,-0.011358517222106457,0.3127787709236145,-0.9495140314102173
2.9054489135742188,-1.8324656894506088,2.012743836838041,36.43690771242947,-0.03466796875,0.03271484375,1.00390625,0.0,-0.67138671875,-0.18310546875,0.0,0.0,0.0,-0.02067706547677517,-0.011682485230267048,0.3128194510936737,-0.9495156407356262
2.9205760955810547,-1.838858106183506,1.8907442785437425,36.43945537298989,-0.033203125,0.0322265625,1.00439453125,-0.1220703125,-1.03759765625,-0.1220703125,0.0,0.0,0.0,-0.020397784188389778,-0.010653489269316196,0.3128306269645691,-0.9495301842689514
2.944504737854004,-1.9198835730903094,1.8861607947238408,36.44074286364843,-0.03271484375,0.033203125,1.00244140625,0.06103515625,-0.8544921875,-0.30517578125,0.0,0.0,0.0,-0.021056801080703735,-0.01039406843483448,0.31284835934638977,-0.9495127201080322
2.959618091583252,-1.9246200958363018,1.984742836005339,36.4440315997338,-0.03466796875,0.0341796875,1.001953125,-0.18310546875,-0.42724609375,-0.1220703125,0.0,0.0,0.0,-0.021365048363804817,-0.011197523213922977,0.31288519501686096,-0.949484646320343
2.9849789142608643,-1.8854449055214588,1.947625453621374,36.4488366378149,-0.0341796875,0.033203125,1.00146484375,0.0,-0.3662109375,0.0,0.0,0.0,0.0,-0.020939741283655167,-0.010996001772582531,0.3129178583621979,-0.9494856595993042
3.0053229331970215,-1.8268482857450965,1.962237362690147,36.45428371367799,-0.03466796875,0.0322265625,1.0009765625,0.0,-0.79345703125,-0.1220703125,0.0,0.0,0.0,-0.02049458585679531,-0.011276132427155972,0.3129585385322571,-0.9494787454605103
3.0250062942504883,-1.931000773181563,1.9736153906303304,36.454358845758854,-0.03466796875,0.03369140625,1.0029296875,-0.18310546875,-0.91552734375,-0.244140625,0.0,0.0,0.0,-0.021388590335845947,-0.011085957288742065,0.312970370054245,-0.9494572877883911
3.044287919998169,-1.9335544101575015,1.8491206788548618,36.45652743082034,-0.03271484375,0.03369140625,1.001953125,-0.06103515625,-0.732421875,-0.18310546875,0.0,0.0,0.0,-0.021070504561066628,-0.01004686951637268,0.3129768371582031,-0.9494739174842834
3.0644655227661133,-1.8727546274869868,2.037147889299085,36.461691053832865,-0.03515625,0.03271484375,1.0009765625,-0.06103515625,-0.244140625,-0.1220703125,0.0,0.0,0.0,-0.021079953759908676,-0.011770191602408886,0.31303101778030396,-0.9494360089302063
3.0850183963775635,-1.9302537212410928,1.9145124830817406,36.46472024272976,-0.03369140625,0.03369140625,1.0029296875,0.0,-0.3662109375,-0.18310546875,0.0,0.0,0.0,-0.021222218871116638,-0.010596281848847866,0.31305065751075745,-0.9494401216506958
3.1043097972869873,-1.9312097342814831,1.906776013186232,36.46914620531193,-0.03369140625,0.03369140625,1.00341796875,-0.06103515625,-0.9765625,-0.244140625,0.0,0.0,0.0,-0.021209444850683212,-0.010528737679123878,0.3130866587162018,-0.9494293928146362
3.1248109340667725,-1.8879056946133677,2.045448703574766,36.4725476395186,-0.03564453125,0.03369140625,1.001953125,-0.1220703125,-0.9765625,-0.244140625,0.0,0.0,0.0,-0.02122923545539379,-0.011795583181083202,0.3131232261657715,-0.9494019746780396
3.150908946990967,-1.901484964456999,1.9852442145791003,36.474398620783674,-0.0341796875,0.03369140625,1.00390625,0.06103515625,-1.15966796875,-0.18310546875,0.0,0.0,0.0,-0.021177707239985466,-0.011259236373007298,0.3131346106529236,-0.9494057893753052
3.164670705795288,-1.9248653423161874,1.9520337004003827,36.47540265859166,-0.0341796875,0.03369140625,1.00341796875,-0.06103515625,-0.244140625,0.0,0.0,0.0,0.0,-0.021280918270349503,-0.010919954627752304,0.31314215064048767,-0.9494050145149231
3.1846933364868164,-1.8841343629744627,1.8598933812798528,36.47939490416154,-0.033203125,0.03271484375,1.00244140625,0.0,-0.67138671875,0.0,0.0,0.0,0.0,-0.02069244533777237,-0.010266994126141071,0.3131629228591919,-0.9494185447692871
3.204318046569824,-1.8554221686944332,1.92846976120725,36.48469854605205,-0.03369140625,0.03271484375,1.00244140625,-0.06103515625,-0.9765625,-0.244140625,0.0,0.0,0.0,-0.020642170682549477,-0.010912774130702019,0.3132103979587555,-0.9493967890739441
3.224466323852539,-1.8680390221953276,1.9440171927489032,36.488496131230576,-0.0341796875,0.033203125,1.00341796875,-0.18310546875,-0.79345703125,-0.244140625,0.0,0.0,0.0,-0.020789489150047302,-0.011006438173353672,0.31324440240859985,-0.9493812322616577
3.2447662353515625,-1.98794960982066,1.891054198377332,36.487819942502746,-0.033203125,0.03515625,1.00537109375,-0.244140625,-0.54931640625,-0.06103515625,0.0,0.0,0.0,-0.02163833938539028,-0.010239904746413231,0.3132449686527252,-0.9493706822395325
3.2646377086639404,-2.0026782724355576,1.9569358552337477,36.491077942736844,-0.0341796875,0.03466796875,1.00390625,0.0,-0.244140625,0.0,0.0,0.0,0.0,-0.02194044552743435,-0.01074493769556284,0.31327980756759644,-0.9493466019630432
3.2844817638397217,-1.8884049387530133,1.7793967204251964,36.49960201882102,-0.03173828125,0.033203125,1.00537109375,0.06103515625,-0.732421875,-0.244140625,0.0,0.0,0.0,-0.020509885624051094,-0.009584653191268444,0.3133232295513153,-0.9493767023086548
3.305036783218384,-1.9666421943745704,1.9343134149290193,36.49986156600948,-0.03466796875,0.03466796875,1.001953125,0.0,-0.6103515625,-0.18310546875,0.0,0.0,0.0,-0.021580977365374565,-0.010654345154762268,0.3133470118045807,-0.9493337273597717
3.3284807205200195,-1.9710472395024057,1.9957439228807023,36.50309907567607,-0.03466796875,0.03466796875,1.001953125,-0.06103515625,-0.9765625,-0.244140625,0.0,0.0,0.0,-0.021785467863082886,-0.01115069817751646,0.3133801221847534,-0.9493124485015869
3.3398938179016113,-1.9230470178930832,2.0020881014025864,36.50750113259614,-0.03466796875,0.03369140625,1.0029296875,-0.244140625,-0.79345703125,-0.1220703125,0.0,0.0,0.0,-0.021405572071671486,-0.011333712376654148,0.31341245770454407,-0.9493082165718079
3.366110324859619,-1.904204446963722,1.8928443482701098,36.51275696316247,-0.03369140625,0.033203125,1.0009765625,-0.244140625,-0.42724609375,-0.18310546875,0.0,0.0,0.0,-0.020951688289642334,-0.010479098185896873,0.31344419717788696,-0.9493176341056824
3.384777069091797,-1.8694646107411563,1.8660907107345814,36.51801962391796,-0.03271484375,0.03271484375,1.00244140625,0.0,-0.3662109375,-0.06103515625,0.0,0.0,0.0,-0.02059130184352398,-0.010351499542593956,0.3134821653366089,-0.9493144154548645
3.400569438934326,-1.927752591344399,1.9316276564813233,36.51929345419816,-0.03369140625,0.03369140625,1.00244140625,-0.06103515625,-0.8544921875,-0.1220703125,0.0,0.0,0.0,-0.02125328779220581,-0.010734825395047665,0.313504159450531,-0.9492882490158081
3.4255852699279785,-1.983609878376763,1.9780891645366887,36.52077560524806,-0.03515625,0.0341796875,1.0009765625,0.06103515625,-0.8544921875,-0.18310546875,0.0,0.0,0.0,-0.021843040362000465,-0.01096668653190136,0.31352609395980835,-0.9492650032043457
3.444525718688965,-1.9860418526081107,1.9718246004073177,36.522814416715306,-0.03515625,0.0341796875,1.00146484375,-0.06103515625,-0.79345703125,-0.1220703125,0.0,0.0,0.0,-0.02184627205133438,-0.010907739400863647,0.31354260444641113,-0.9492601156234741
3.4646084308624268,-1.90298461786664,1.9616288355237812,36.52731209628376,-0.03466796875,0.03369140625,1.00048828125,-0.244140625,-0.3662109375,0.0,0.0,0.0,0.0,-0.021130817010998726,-0.01104968972504139,0.31357094645500183,-0.9492653608322144
3.4846110343933105,-1.9164219478415825,1.9062458197519097,36.53055643613952,-0.033203125,0.03369140625,1.00146484375,0.06103515625,-0.48828125,-0.06103515625,0.0,0.0,0.0,-0.02109113708138466,-0.010553445667028427,0.3135940134525299,-0.9492642283439636
3.50512957572937,-1.9436163460219882,1.9714779683069394,36.533431945780094,-0.0341796875,0.0341796875,1.0029296875,0.0,-0.8544921875,-0.244140625,0.0,0.0,0.0,-0.021494893357157707,-0.011018958874046803,0.3136264383792877,-0.9492392539978027
3.525102138519287,-1.8749697432121866,1.9932455677483587,36.54071292743533,-0.03515625,0.033203125,1.00341796875,-0.244140625,-1.03759765625,-0.244140625,0.0,0.0,0.0,-0.020986443385481834,-0.011385852470993996,0.31368204951286316,-0.9492278695106506
3.5446441173553467,-1.9184313041180354,1.844568998103283,36.540760738759516,-0.0322265625,0.03369140625,1.00341796875,-0.06103515625,-0.54931640625,0.0,0.0,0.0,0.0,-0.02094016969203949,-0.010035064071416855,0.3136729300022125,-0.9492471814155579
3.563525915145874,-1.9266554922089656,1.94947131224457,36.54326058799574,-0.03369140625,0.03369140625,1.0048828125,-0.06103515625,-0.244140625,0.06103515625,0.0,0.0,0.0,-0.021295206621289253,-0.010881219990551472,0.3137042224407196,-0.9492196440696716
3.584768295288086,-1.9931866573667671,2.0166050281532137,36.544783720180654,-0.03515625,0.03466796875,1.0029296875,0.0,-0.42724609375,-0.244140625,0.0,0.0,0.0,-0.022029917687177658,-0.011254992336034775,0.31372955441474915,-0.9491901397705078
3.605713129043579,-1.846907484120366,1.967186901960879,36.553867871776774,-0.03466796875,0.0322265625,1.0029296875,0.0,-1.03759765625,-0.244140625,0.0,0.0,0.0,-0.02068406715989113,-0.011244394816458225,0.31378600001335144,-0.9492018222808838
3.6247000694274902,-1.9222801157153377,2.032128767476183,36.55493679638188,-0.03515625,0.033203125,1.00439453125,0.0,-0.79345703125,-0.3662109375,0.0,0.0,0.0,-0.021486029028892517,-0.011575828306376934,0.3138080835342407,-0.9491727352142334
3.645597457885742,-1.9723071959608613,1.9720843610391898,36.556948287092446,-0.0341796875,0.0341796875,1.0029296875,-0.1220703125,-0.54931640625,-0.1220703125,0.0,0.0,0.0,-0.021736465394496918,-0.01094099786132574,0.3138240575790405,-0.9491693377494812
3.6647064685821533,-1.9680993725453104,1.919724130861872,36.56115568362117,-0.03369140625,0.0341796875,1.0,0.0,-0.30517578125,-0.06103515625,0.0,0.0,0.0,-0.02155885472893715,-0.010517941787838936,0.31385350227355957,-0.9491683840751648
3.6846773624420166,-1.9821746848774142,2.0127645408489627,36.565134268812706,-0.03515625,0.03466796875,1.001953125,0.0,-0.54931640625,-0.1220703125,0.0,0.0,0.0,-0.021930206567049026,-0.011249429546296597,0.31389671564102173,-0.9491372108459473
3.7049973011016846,-1.8596679850372424,1.9632281670066218,36.57188249571268,-0.0341796875,0.0322265625,1.00341796875,-0.18310546875,-0.9765625,-0.06103515625,0.0,0.0,0.0,-0.02078069932758808,-0.011173388920724392,0.3139360845088959,-0.9491509795188904
3.7206199169158936,-1.8672759619989903,1.9383067277159496,36.57500389216337,-0.03369140625,0.03271484375,1.00341796875,-0.18310546875,-0.79345703125,-0.244140625,0.0,0.0,0.0,-0.02077585458755493,-0.010945520363748074,0.3139604926109314,-0.9491456151008606
3.749063730239868,-1.9895726335221842,1.9797950042818995,36.574860458190805,-0.03466796875,0.03466796875,1.0009765625,-0.06103515625,-0.3662109375,-0.18310546875,0.0,0.0,0.0,-0.021902265027165413,-0.010954169556498528,0.3139748275279999,-0.9491154551506042
3.7613110542297363,-2.0109464298692696,1.9922899815947914,36.577787194250156,-0.03466796875,0.03515625,1.00048828125,-0.18310546875,-0.42724609375,-0.1220703125,0.0,0.0,0.0,-0.022113747894763947,-0.010998554527759552,0.3140023350715637,-0.9491009712219238
3.780243396759033,-1.9492292674158578,1.9195427039620434,36.58339136446415,-0.03369140625,0.0341796875,1.00390625,-0.1220703125,-0.30517578125,0.0,0.0,0.0,0.0,-0.02140410803258419,-0.010563966818153858,0.31403592228889465,-0.9491110444068909
3.80808162689209,-1.9661134950441292,1.9484700492009284,36.587813911951734,-0.0341796875,0.0341796875,1.00244140625,0.0,-0.79345703125,-0.18310546875,0.0,0.0,0.0,-0.021623501554131508,-0.010756500996649265,0.31407687067985535,-0.9490904211997986
3.819854497909546,-1.8711809092135336,2.001215117849294,36.59484900679685,-0.03515625,0.03271484375,1.00341796875,-0.06103515625,-0.9765625,-0.244140625,0.0,0.0,0.0,-0.020982250571250916,-0.011452344246208668,0.3141307830810547,-0.9490787386894226
3.83953595161438,-1.843651404876974,1.9155387190045352,36.59980772413428,-0.03369140625,0.03271484375,1.0029296875,-0.1220703125,-0.67138671875,-0.244140625,0.0,0.0,0.0,-0.02052023820579052,-0.010817186906933784,0.3141616880893707,-0.94908607006073
3.8598697185516357,-1.8755044189581516,1.8733025367244687,36.60127621480583,-0.03271484375,0.03271484375,1.00341796875,0.06103515625,-0.244140625,-0.1220703125,0.0,0.0,0.0,-0.02066858485341072,-0.010379716753959656,0.31417304277420044,-0.9490839838981628
3.8848414421081543,-1.8712874174759033,1.9428910653094975,36.606163215156975,-0.0341796875,0.033203125,1.00244140625,-0.06103515625,-0.3662109375,-0.06103515625,0.0,0.0,0.0,-0.020824603736400604,-0.010966847650706768,0.3142193555831909,-0.9490586519241333
3.9049699306488037,-1.9221543975459272,2.0338431449578565,36.608441083245175,-0.03564453125,0.03369140625,1.00146484375,0.0,-0.732421875,-0.244140625,0.0,0.0,0.0,-0.02149508334696293,-0.01158034149557352,0.3142513632774353,-0.9490258097648621
3.9195685386657715,-1.944579829581783,2.0058656229004264,36.61134049854784,-0.03515625,0.0341796875,1.00341796875,-0.06103515625,-0.91552734375,-0.244140625,0.0,0.0,0.0,-0.02160450629889965,-0.011286545544862747,0.3142750561237335,-0.9490190148353577
3.9447007179260254,-1.9710109541224399,2.0871139247289014,36.61292851752987,-0.0361328125,0.03466796875,1.00341796875,-0.18310546875,-0.732421875,-0.1220703125,0.0,0.0,0.0,-0.022045986726880074,-0.011886757798492908,0.3142984211444855,-0.9489937424659729
3.964778184890747,-1.952250772349942,2.002879976459485,36.615858668683806,-0.03515625,0.0341796875,1.0029296875,-0.18310546875,-0.30517578125,0.06103515625,0.0,0.0,0.0,-0.021660303696990013,-0.011239922605454922,0.3143129348754883,-0.9490057229995728
3.9855661392211914,-1.9517318914164328,1.9085595463332514,36.61997044256415,-0.03369140625,0.0341796875,1.005859375,0.0,-0.48828125,-0.18310546875,0.0,0.0,0.0,-0.02139812707901001,-0.010459293611347675,0.3143380582332611,-0.949012279510498
4.0069379806518555,-1.8791154545949726,1.9733481594790536,36.62676648078832,-0.0341796875,0.033203125,1.00439453125,-0.18310546875,-0.91552734375,-0.30517578125,0.0,0.0,0.0,-0.020974822342395782,-0.011193904094398022,0.31439343094825745,-0.9489951133728027
4.02742075920105,-2.019534325533503,1.9205580542708482,36.62709774496306,-0.03369140625,0.03515625,0.99951171875,0.0,-0.9765625,-0.244140625,0.0,0.0,0.0,-0.02199314534664154,-0.010371319018304348,0.3144044280052185,-0.9489776492118835
4.039475440979004,-1.9536528821204988,1.81160629172539,36.63002448102241,-0.03173828125,0.0341796875,1.00146484375,-0.18310546875,-0.48828125,0.0,0.0,0.0,0.0,-0.021149378269910812,-0.00964907743036747,0.31441211700439453,-0.9490019083023071
4.064638614654541,-1.945653663385356,1.866302873485675,36.63339176428323,-0.033203125,0.03466796875,1.0029296875,-0.244140625,-0.42724609375,-0.1220703125,0.0,0.0,0.0,-0.02123325690627098,-0.01012345775961876,0.3144446015357971,-0.9489843845367432
4.0852906703948975,-1.9255208270330972,2.0458079288364264,36.63882176467339,-0.03564453125,0.03369140625,1.0009765625,-0.06103515625,-0.6103515625,-0.1220703125,0.0,0.0,0.0,-0.02155880816280842,-0.011664503253996372,0.31450438499450684,-0.9489395022392273
4.105438709259033,-1.9244047314340347,2.0333054810041298,36.64104840634281,-0.03564453125,0.03369140625,1.00146484375,-0.06103515625,-0.91552734375,-0.244140625,0.0,0.0,0.0,-0.021515540778636932,-0.01156359538435936,0.31452158093452454,-0.9489359855651855
4.124792814254761,-1.8965328638653283,1.9891325132075415,36.644787934913396,-0.03515625,0.033203125,1.0029296875,-0.1220703125,-0.91552734375,-0.06103515625,0.0,0.0,0.0,-0.021164068952202797,-0.01127353310585022,0.31454578042030334,-0.9489395022392273
4.148218154907227,-1.9791104912610171,1.9692101320590838,36.64668331240807,-0.0341796875,0.03466796875,1.0029296875,-0.1220703125,-0.79345703125,-0.244140625,0.0,0.0,0.0,-0.021793488413095474,-0.010881491005420685,0.3145676553249359,-0.9489224553108215
4.164769411087036,-2.023295198445241,1.9881570768166992,36.64766344455397,-0.03466796875,0.03515625,1.001953125,0.06103515625,-0.18310546875,-0.1220703125,0.0,0.0,0.0,-0.022211387753486633,-0.010916936211287975,0.31458181142807007,-0.9489076137542725
4.189175367355347,-1.879387808388127,1.8457034498357396,36.656949086730606,-0.03271484375,0.03271484375,1.0009765625,0.0,-0.30517578125,-0.06103515625,0.0,0.0,0.0,-0.02063012681901455,-0.010130424983799458,0.31463193893432617,-0.9489355087280273
4.199740648269653,-1.8539570931174654,1.9182575611810233,36.66085595493585,-0.03369140625,0.03271484375,1.00146484375,0.0,-0.9765625,-0.1220703125,0.0,0.0,0.0,-0.02061879262328148,-0.01080047246068716,0.3146684467792511,-0.9489163160324097
4.230664491653442,-1.814562482975536,1.8756450781663716,36.665988842097114,-0.033203125,0.0322265625,1.00146484375,-0.1220703125,-0.6103515625,-0.18310546875,0.0,0.0,0.0,-0.02017621509730816,-0.010554812848567963,0.3147035539150238,-0.9489169716835022
4.241702079772949,-1.8650021493356108,1.9315787779400753,36.66632693646103,-0.03369140625,0.03271484375,1.00244140625,-0.18310546875,-0.732421875,-0.30517578125,0.0,0.0,0.0,-0.020747294649481773,-0.010879484936594963,0.3147159814834595,-0.9488967657089233
4.265401601791382,-1.9855552016297473,1.9900541618586702,36.66466378539813,-0.03466796875,0.0341796875,1.0009765625,-0.18310546875,-0.42724609375,0.06103515625,0.0,0.0,0.0,-0.021905705332756042,-0.01103300228714943,0.31471914052963257,-0.9488678574562073
4.284970283508301,-1.8497605822027272,1.936206231102759,36.67281220107796,-0.0341796875,0.03271484375,1.0029296875,0.06103515625,-0.30517578125,0.06103515625,0.0,0.0,0.0,-0.020634394139051437,-0.010958501137793064,0.31476864218711853,-0.9488807916641235
4.305131435394287,-1.8498773357488523,1.9454011598294771,36.67595067300158,-0.03466796875,0.03271484375,1.00439453125,-0.1220703125,-0.91552734375,-0.18310546875,0.0,0.0,0.0,-0.020660879090428352,-0.011033766902983189,0.31479546427726746,-0.9488704800605774
4.324709892272949,-1.9182063347622482,2.0185672134357113,36.67595750319075,-0.03515625,0.033203125,1.00341796875,-0.06103515625,-0.9765625,-0.244140625,0.0,0.0,0.0,-0.021427318453788757,-0.01145200990140438,0.3148086667060852,-0.9488442540168762
4.34452486038208,-1.9586444697433087,1.9894238634643249,36.67671565418862,-0.03515625,0.0341796875,1.0029296875,-0.1220703125,-0.6103515625,-0.18310546875,0.0,0.0,0.0,-0.02168230712413788,-0.011099412105977535,0.3148162364959717,-0.9488401412963867
4.364725589752197,-1.828306531132894,1.9459185466591056,36.68373367356081,-0.0341796875,0.03271484375,1.00244140625,-0.1220703125,-0.30517578125,-0.1220703125,0.0,0.0,0.0,-0.020484432578086853,-0.011095917783677578,0.3148578405380249,-0.9488529562950134
4.38447904586792,-1.9200995778228112,1.9082801489075156,36.68535925858327,-0.03369140625,0.033203125,1.00244140625,0.0,-0.48828125,-0.1220703125,0.0,0.0,0.0,-0.021141406148672104,-0.010531686246395111,0.31487664580345154,-0.9488386511802673
4.404388666152954,-1.868745946774424,2.016278886620346,36.69084390048679,-0.03466796875,0.0322265625,1.00244140625,-0.1220703125,-0.8544921875,-0.244140625,0.0,0.0,0.0,-0.02101300284266472,-0.011566204018890858,0.31492680311203003,-0.9488127827644348
4.4244866371154785,-1.918404196804767,1.943008459185857,36.691390315620396,-0.03369140625,0.03369140625,1.001953125,-0.1220703125,-1.0986328125,-0.1220703125,0.0,0.0,0.0,-0.021223202347755432,-0.010822838172316551,0.3149296045303345,-0.9488160610198975
4.444585561752319,-1.9691422570542068,2.0141689984970466,36.69294418365657,-0.03515625,0.0341796875,1.00244140625,-0.18310546875,-0.54931640625,-0.1220703125,0.0,0.0,0.0,-0.021838689222931862,-0.011272414587438107,0.3149539828300476,-0.9487887024879456
4.464925765991211,-1.9329567686051254,1.9368173195900635,36.694310221490575,-0.03466796875,0.03369140625,1.001953125,-0.06103515625,-0.3662109375,0.06103515625,0.0,0.0,0.0,-0.021326985210180283,-0.010731028392910957,0.31495457887649536,-0.9488064646720886
4.484720945358276,-1.9342269703473363,1.923669632324612,36.69779361796728,-0.03369140625,0.03369140625,1.001953125,0.06103515625,-0.48828125,-0.1220703125,0.0,0.0,0.0,-0.0213017538189888,-0.010618007741868496,0.3149823248386383,-0.9487990140914917
4.504673957824707,-1.8387469021660818,1.9661329183945815,36.70417984484124,-0.0341796875,0.03271484375,1.0029296875,0.06103515625,-0.9765625,-0.1220703125,0.0,0.0,0.0,-0.02062833681702614,-0.011230960488319397,0.31502988934516907,-0.9487911462783813
4.524696588516235,-1.8867703891072645,1.907298522657738,36.70598301478213,-0.033203125,0.033203125,1.001953125,0.06103515625,-0.91552734375,-0.244140625,0.0,0.0,0.0,-0.02086465060710907,-0.010611385107040405,0.31504419445991516,-0.9487883448600769
4.539586782455444,-1.8837407733235407,1.902954949232433,36.71007429809496,-0.03369140625,0.03369140625,1.001953125,-0.1220703125,-0.42724609375,-0.1220703125,0.0,0.0,0.0,-0.020828023552894592,-0.01058300118893385,0.31507739424705505,-0.9487783908843994
4.559512376785278,-2.050718194519431,2.02204676793101,36.70786814699305,-0.03564453125,0.0361328125,1.0009765625,-0.06103515625,-0.30517578125,-0.06103515625,0.0,0.0,0.0,-0.022537171840667725,-0.011110502295196056,0.3150862753391266,-0.9487303495407104
4.582118511199951,-1.9423222386176824,1.99156320677842,36.71648443063102,-0.03466796875,0.03369140625,1.00146484375,0.0,-0.732421875,-0.18310546875,0.0,0.0,0.0,-0.021556898951530457,-0.01115448959171772,0.3151441514492035,-0.948733389377594
4.599652290344238,-1.8471821857910475,1.8358325458246019,36.72390543116424,-0.0322265625,0.0322265625,1.001953125,-0.06103515625,-0.9765625,-0.30517578125,0.0,0.0,0.0,-0.02034229040145874,-0.010125210508704185,0.31518256664276123,-0.9487590193748474
4.624523878097534,-1.9698694587574015,1.9316225338394457,36.72231741218221,-0.03369140625,0.0341796875,1.0009765625,-0.244140625,-0.8544921875,-0.18310546875,0.0,0.0,0.0,-0.02162095159292221,-0.01058126986026764,0.315189391374588,-0.948723554611206
4.63952112197876,-1.9075546547516133,1.9356075223333251,36.727819129558654,-0.03369140625,0.033203125,1.001953125,-0.1220703125,-0.3662109375,-0.18310546875,0.0,0.0,0.0,-0.02111649326980114,-0.010784651152789593,0.31522953510284424,-0.9487192630767822
4.659707069396973,-1.9502224196098599,1.9563347985867865,36.7307697712801,-0.03369140625,0.03369140625,1.001953125,-0.06103515625,-0.244140625,-0.06103515625,0.0,0.0,0.0,-0.021526942029595375,-0.010838357731699944,0.3152598738670349,-0.9486993551254272
4.685222387313843,-1.909078427266761,1.9237804094552133,36.73521622442978,-0.033203125,0.03369140625,1.00439453125,-0.06103515625,-0.30517578125,-0.1220703125,0.0,0.0,0.0,-0.021097317337989807,-0.010681163519620895,0.31528982520103455,-0.9487007856369019
4.69975209236145,-1.9469571622997706,2.029785585704046,36.73775705480102,-0.03515625,0.0341796875,1.001953125,0.0,-0.8544921875,-0.1220703125,0.0,0.0,0.0,-0.021702326834201813,-0.01145422924309969,0.31532424688339233,-0.9486667513847351
4.7248101234436035,-1.9178144526586187,1.9439106844865335,36.74215228153193,-0.0341796875,0.03369140625,1.00048828125,-0.1220703125,-0.9765625,-0.244140625,0.0,0.0,0.0,-0.021225590258836746,-0.010822529904544353,0.31534990668296814,-0.9486764073371887
4.7396039962768555,-1.9881999789424232,1.9966954536094497,36.742131790964415,-0.03466796875,0.03466796875,1.0029296875,-0.18310546875,-0.67138671875,-0.1220703125,0.0,0.0,0.0,-0.021953297778964043,-0.01106590498238802,0.3153614103794098,-0.9486531615257263
4.759600400924683,-1.9754627433574072,1.994985771882831,36.74594645161587,-0.03515625,0.0341796875,1.00341796875,-0.244140625,-0.30517578125,-0.244140625,0.0,0.0,0.0,-0.021843520924448967,-0.011086076498031616,0.31539157032966614,-0.9486454725265503
4.7798402309417725,-1.9439888047751654,2.042337552407825,36.75116471614176,-0.03515625,0.03369140625,1.001953125,-0.1220703125,-0.3662109375,0.0,0.0,0.0,0.0,-0.021713582798838615,-0.011563792824745178,0.31543609499931335,-0.9486279487609863
4.799848556518555,-1.9139778073357756,1.9358764610318944,36.75594584856077,-0.0341796875,0.03369140625,1.0029296875,-0.06103515625,-0.91552734375,-0.18310546875,0.0,0.0,0.0,-0.021173052489757538,-0.010764013044536114,0.31546300649642944,-0.9486405849456787
4.826396703720093,-1.8205391119427088,1.9943484298559042,36.76270090564991,-0.03466796875,0.03173828125,1.00244140625,0.1220703125,-0.8544921875,-0.1220703125,0.0,0.0,0.0,-0.02056090161204338,-0.011504177004098892,0.31551501154899597,-0.9486280083656311
4.844538688659668,-1.9723272596415482,1.951085157879397,36.760078113008625,-0.0341796875,0.03564453125,1.0029296875,-0.244140625,-0.6103515625,-0.18310546875,0.0,0.0,0.0,-0.021698273718357086,-0.010728523135185242,0.3155041038990021,-0.948615550994873
4.864712238311768,-1.9982659702317296,2.046502687141064,36.76207252824627,-0.03564453125,0.03466796875,1.005859375,-0.06103515625,-0.244140625,0.0,0.0,0.0,0.0,-0.022175436839461327,-0.011446758173406124,0.31553220748901367,-0.9485867619514465
4.879580020904541,-1.9971411234527932,1.8292975488927807,36.76659069838223,-0.03271484375,0.03466796875,1.0009765625,0.06103515625,-0.48828125,-0.1220703125,0.0,0.0,0.0,-0.02156950533390045,-0.00965059269219637,0.315548300743103,-0.948615312576294
4.9091103076934814,-1.883918358241961,1.912270473486684,36.774332717806445,-0.033203125,0.033203125,1.00048828125,0.0,-0.8544921875,-0.244140625,0.0,0.0,0.0,-0.02086103893816471,-0.010647958144545555,0.31561028957366943,-0.9485998153686523
4.926239728927612,-1.9093433105405104,2.1115230998318233,36.77655935947587,-0.0361328125,0.033203125,1.00146484375,0.0,-1.03759765625,-0.30517578125,0.0,0.0,0.0,-0.021619586274027824,-0.012227226048707962,0.3156489133834839,-0.9485509395599365
4.946871995925903,-1.8973554747734918,1.9934555960653364,36.78077700128835,-0.03466796875,0.03369140625,1.00341796875,-0.244140625,-0.91552734375,-0.244140625,0.0,0.0,0.0,-0.021196134388446808,-0.0112819354981184,0.3156721889972687,-0.9485644102096558
4.964773654937744,-1.9446816420890987,1.9112643012445765,36.78154539756998,-0.03369140625,0.0341796875,1.00244140625,-0.06103515625,-0.30517578125,-0.1220703125,0.0,0.0,0.0,-0.021361930295825005,-0.010470925830304623,0.3156754672527313,-0.9485689997673035
4.984979152679443,-1.9265455688520106,1.9200148407884206,36.784769246858225,-0.03369140625,0.033203125,1.00439453125,0.0,-0.67138671875,0.06103515625,0.0,0.0,0.0,-0.02123616822063923,-0.010592740029096603,0.31570130586624146,-0.9485618472099304
4.999570846557617,-1.9179980139925628,1.9159961282355145,36.788273133902436,-0.03369140625,0.033203125,1.00146484375,0.0,-1.0986328125,-0.244140625,0.0,0.0,0.0,-0.021154683083295822,-0.010582368820905685,0.31572914123535156,-0.948554515838623
5.028609991073608,-1.9218732925728987,1.9222141617011648,36.79059881331483,-0.03369140625,0.033203125,1.001953125,-0.06103515625,-0.79345703125,-0.18310546875,0.0,0.0,0.0,-0.021204078570008278,-0.010622741654515266,0.3157493472099304,-0.948546290397644
5.042489290237427,-1.9062599070170727,1.8624907741551617,36.79369971919802,-0.03271484375,0.03369140625,1.001953125,-0.244140625,-0.48828125,-0.1220703125,0.0,0.0,0.0,-0.020910825580358505,-0.010170734487473965,0.3157680630683899,-0.9485514163970947
5.06338095664978,-1.9794765467118476,1.9567674483820245,36.7954106815851,-0.0341796875,0.03466796875,1.00244140625,-0.244140625,-0.3662109375,-0.18310546875,0.0,0.0,0.0,-0.021776394918560982,-0.01074917521327734,0.3157978057861328,-0.9485156536102295
5.089645624160767,-1.8617046620703754,1.9406424389686823,36.80204621036377,-0.03466796875,0.0322265625,1.00341796875,0.06103515625,-0.30517578125,0.06103515625,0.0,0.0,0.0,-0.02075781300663948,-0.010939029045403004,0.31584012508392334,-0.9485222697257996
5.104983568191528,-1.8146995136457593,1.9669384538298198,36.806065776690325,-0.03466796875,0.0322265625,1.0029296875,-0.244140625,-1.03759765625,-0.18310546875,0.0,0.0,0.0,-0.020441481843590736,-0.0112855713814497,0.31587105989456177,-0.9485148787498474
5.122581720352173,-1.9865278632562395,1.9974286317281682,36.80293755005046,-0.03466796875,0.03466796875,1.00341796875,-0.06103515625,-0.8544921875,-0.30517578125,0.0,0.0,0.0,-0.021947339177131653,-0.01106493454426527,0.3158646821975708,-0.9484859108924866
5.144728899002075,-1.8962807871962726,1.8743975014257863,36.808927625952556,-0.033203125,0.03271484375,1.0029296875,-0.1220703125,-0.79345703125,-0.06103515625,0.0,0.0,0.0,-0.020862344652414322,-0.010294039733707905,0.31589430570602417,-0.948509156703949
5.165324449539185,-1.9153143899789824,1.938189760726413,36.81109962610862,-0.0341796875,0.03369140625,1.0029296875,-0.18310546875,-0.3662109375,0.0,0.0,0.0,0.0,-0.021195661276578903,-0.010769288055598736,0.3159198760986328,-0.9484879970550537
5.18668270111084,-1.8984634595229148,1.9529664481089124,36.815119192435176,-0.0341796875,0.03271484375,1.0009765625,-0.1220703125,-0.42724609375,-0.06103515625,0.0,0.0,0.0,-0.02109723724424839,-0.010937334969639778,0.31595292687416077,-0.9484771490097046
5.204722881317139,-1.8932274791938652,1.93940617472891,36.81937781538268,-0.03466796875,0.033203125,1.00341796875,-0.06103515625,-0.79345703125,-0.18310546875,0.0,0.0,0.0,-0.021016975864768028,-0.010838731192052364,0.31598642468452454,-0.9484690427780151
5.22591233253479,-1.8659556010550622,1.9182033465544863,36.824616570476074,-0.03369140625,0.03271484375,1.00341796875,-0.06103515625,-1.0986328125,-0.30517578125,0.0,0.0,0.0,-0.020733369514346123,-0.010737456381320953,0.31602537631988525,-0.9484633803367615
5.2446794509887695,-1.9226794683383719,1.909939671432417,36.82521421202845,-0.0341796875,0.03369140625,1.00146484375,-0.18310546875,-0.732421875,-0.1220703125,0.0,0.0,0.0,-0.0211801640689373,-0.010512501001358032,0.3160347640514374,-0.9484530091285706
5.264612197875977,-1.8465234994229645,2.010351989968067,36.83187023137463,-0.03466796875,0.0322265625,1.0029296875,-0.18310546875,-0.3662109375,-0.06103515625,0.0,0.0,0.0,-0.020826973021030426,-0.011552572250366211,0.31609150767326355,-0.9484297037124634
5.284936189651489,-1.928499216398046,1.9772659132982906,36.8333797031812,-0.03466796875,0.03369140625,1.00341796875,-0.06103515625,-0.48828125,-0.18310546875,0.0,0.0,0.0,-0.021414490416646004,-0.011052271351218224,0.31610915064811707,-0.9484167098999023
5.304578065872192,-1.964909887646326,1.905292368032458,36.83520677878418,-0.033203125,0.03466796875,1.00390625,-0.06103515625,-0.8544921875,-0.1220703125,0.0,0.0,0.0,-0.021517805755138397,-0.010355683043599129,0.3161209225654602,-0.948418378829956
5.325504302978516,-1.8953431302892767,1.9655521388717188,36.84175351510364,-0.03466796875,0.033203125,1.00390625,0.0,-0.91552734375,-0.48828125,0.0,0.0,0.0,-0.02110862173140049,-0.011045224964618683,0.3161742389202118,-0.948401927947998
5.346845865249634,-1.9853654504368679,1.9795815608703364,36.84242628873688,-0.03466796875,0.03466796875,1.0048828125,-0.1220703125,-0.9765625,-0.30517578125,0.0,0.0,0.0,-0.021892376244068146,-0.01091284304857254,0.3161896765232086,-0.9483806490898132
5.366268634796143,-1.9544827501046553,2.004597555592331,36.84590285502442,-0.03515625,0.0341796875,1.0029296875,-0.30517578125,-0.48828125,-0.06103515625,0.0,0.0,0.0,-0.021706026047468185,-0.011204474605619907,0.316217839717865,-0.9483721256256104
5.388313055038452,-1.9067352454946234,1.9006153959982919,36.852907214018266,-0.0341796875,0.033203125,1.00146484375,-0.1220703125,-0.48828125,-0.18310546875,0.0,0.0,0.0,-0.021025056019425392,-0.01047420222312212,0.3162616789340973,-0.948381245136261
5.402770757675171,-1.9156973074593264,1.912957547828505,36.85620961048197,-0.03369140625,0.03271484375,1.0009765625,-0.1220703125,-0.9765625,-0.3662109375,0.0,0.0,0.0,-0.02113354206085205,-0.010551024228334427,0.3162909746170044,-0.9483680725097656
5.424501657485962,-2.028284438190524,1.9331774690926815,36.854908459445085,-0.03369140625,0.03466796875,1.00341796875,0.06103515625,-0.8544921875,-0.30517578125,0.0,0.0,0.0,-0.02212090604007244,-0.010407881811261177,0.3162924349308014,-0.948346734046936
5.439525365829468,-2.0211014270611978,1.9453490796370558,36.8573639124517,-0.03369140625,0.03466796875,1.00244140625,-0.1220703125,-0.48828125,0.0,0.0,0.0,0.0,-0.022095218300819397,-0.010527986101806164,0.3163132965564728,-0.94833904504776
5.459856986999512,-1.9425384567935955,1.9934590111599215,36.864262403513415,-0.03466796875,0.0341796875,1.0029296875,0.18310546875,-0.30517578125,-0.1220703125,0.0,0.0,0.0,-0.02157828025519848,-0.011141777038574219,0.31636759638786316,-0.9483257532119751
5.487196922302246,-1.8141631303525019,1.9137524110931652,36.87379051740558,-0.0341796875,0.03173828125,1.00390625,0.06103515625,-0.18310546875,-0.1220703125,0.0,0.0,0.0,-0.020297084003686905,-0.010834735818207264,0.3164270520210266,-0.9483377933502197
5.504683971405029,-1.866072354601187,1.916016832246436,36.875060932591204,-0.03369140625,0.03271484375,1.0029296875,-0.06103515625,-0.9765625,-0.244140625,0.0,0.0,0.0,-0.020733032375574112,-0.010709907859563828,0.3164426386356354,-0.9483246207237244
5.52752947807312,-1.9581336996594387,1.8917767043254723,36.87441547971464,-0.033203125,0.0341796875,1.0009765625,-0.18310546875,-0.79345703125,-0.18310546875,0.0,0.0,0.0,-0.02142801135778427,-0.010255162604153156,0.316443532705307,-0.94831383228302
5.544794321060181,-1.9928882634774023,1.9656385834534018,36.87724659312561,-0.0341796875,0.03466796875,1.00146484375,-0.18310546875,-0.244140625,-0.1220703125,0.0,0.0,0.0,-0.021919503808021545,-0.010770007036626339,0.3164772093296051,-0.9482857584953308
5.567423105239868,-1.9329845162486285,1.9645775562545227,36.88220189536845,-0.03466796875,0.0341796875,1.0029296875,0.1220703125,-0.30517578125,0.0,0.0,0.0,0.0,-0.021421324461698532,-0.01092573907226324,0.31651246547698975,-0.9482835531234741
5.579542875289917,-1.9018147345278638,1.9709087147283013,36.88675080135568,-0.0341796875,0.033203125,1.00341796875,0.0,-0.732421875,-0.244140625,0.0,0.0,0.0,-0.02118127979338169,-0.011063393205404282,0.3165476620197296,-0.948275625705719
5.6021888256073,-1.9125584086488823,1.9585714720965541,36.88920283926772,-0.03369140625,0.03369140625,1.0029296875,0.06103515625,-0.732421875,-0.1220703125,0.0,0.0,0.0,-0.021236401051282883,-0.010931146331131458,0.31656789779663086,-0.9482691287994385
5.624879360198975,-1.9519282593550706,1.9452792836414747,36.889749254401316,-0.0341796875,0.0341796875,1.0029296875,0.0,-1.0986328125,-0.18310546875,0.0,0.0,0.0,-0.021525586023926735,-0.010712264105677605,0.31657490134239197,-0.9482627511024475
5.645526647567749,-1.8450673884692823,1.8906670120287568,36.89727953796125,-0.033203125,0.03271484375,1.00244140625,-0.18310546875,-0.6103515625,-0.18310546875,0.0,0.0,0.0,-0.020491357892751694,-0.010554115287959576,0.3166223466396332,-0.9482715725898743
5.665142774581909,-1.9227332560780857,1.9419826501498858,36.897754236108575,-0.0341796875,0.0341796875,1.00244140625,-0.18310546875,-0.244140625,-0.06103515625,0.0,0.0,0.0,-0.021275654435157776,-0.010764147154986858,0.31663811206817627,-0.9482467174530029
5.686625957489014,-1.896618454673365,1.9186684397482818,36.90362136860561,-0.0341796875,0.033203125,1.00341796875,0.0,-0.42724609375,-0.1220703125,0.0,0.0,0.0,-0.02099578268826008,-0.010642270557582378,0.3166820704936981,-0.9482396841049194
5.7043750286102295,-1.9161372143305575,1.9642095798129882,36.9067222744888,-0.0341796875,0.033203125,1.00341796875,0.18310546875,-0.91552734375,-0.1220703125,0.0,0.0,0.0,-0.021283242851495743,-0.010964673012495041,0.31671372056007385,-0.9482189416885376
5.726232528686523,-1.9018140941976291,1.9581804437665709,36.90941678411637,-0.03369140625,0.033203125,1.001953125,0.06103515625,-1.03759765625,-0.18310546875,0.0,0.0,0.0,-0.02114834077656269,-0.010953862220048904,0.31673407554626465,-0.9482154250144958
5.743511438369751,-1.8990640892830528,1.9504495233997627,36.91262355793169,-0.0341796875,0.033203125,1.00146484375,-0.1220703125,-0.6103515625,-0.244140625,0.0,0.0,0.0,-0.021104559302330017,-0.010896889492869377,0.3167596757411957,-0.9482084512710571
5.765200853347778,-1.8950355583332146,1.9330408653092812,36.91585765250369,-0.03369140625,0.03369140625,1.001953125,-0.1220703125,-0.244140625,0.0,0.0,0.0,0.0,-0.02102348767220974,-0.010763353668153286,0.31678447127342224,-0.9482035040855408
5.7862465381622314,-1.9608205253241924,1.853575883184414,36.91708367145971,-0.03271484375,0.0341796875,1.00341796875,-0.1220703125,-0.48828125,-0.1220703125,0.0,0.0,0.0,-0.021348629146814346,-0.009923596866428852,0.31679314374923706,-0.9482024908065796
5.8051252365112305,-1.9252666159299259,1.952701991721986,36.92134912459638,-0.0341796875,0.03369140625,1.001953125,-0.06103515625,-0.9765625,-0.244140625,0.0,0.0,0.0,-0.021328413859009743,-0.01084147673100233,0.31683453917503357,-0.9481791257858276
5.824913501739502,-1.9483419831539908,1.9323224147859606,36.925484804138826,-0.0341796875,0.0341796875,1.00048828125,-0.06103515625,-0.79345703125,-0.18310546875,0.0,0.0,0.0,-0.021463481709361076,-0.010608239099383354,0.3168690502643585,-0.9481672048568726
5.847081422805786,-1.9519073419007373,1.9528857664993418,36.92808027602343,-0.0341796875,0.03369140625,1.00146484375,-0.1220703125,-0.3662109375,-0.1220703125,0.0,0.0,0.0,-0.021549995988607407,-0.010768071748316288,0.3168928325176239,-0.9481553435325623
5.865145921707153,-1.9417811595693704,1.9293070997108115,36.93285799334785,-0.03369140625,0.0341796875,1.001953125,-0.06103515625,-0.3662109375,-0.1220703125,0.0,0.0,0.0,-0.021401559934020042,-0.01060004997998476,0.3169291913509369,-0.9481484293937683
5.884657382965088,-1.8831149572408383,2.014824910100779,36.93870463527738,-0.03515625,0.033203125,1.00146484375,0.0,-0.6103515625,-0.1220703125,0.0,0.0,0.0,-0.021152842789888382,-0.011468946933746338,0.31697964668273926,-0.9481271505355835
5.905757904052734,-1.8783931620902439,1.902712264073486,36.94432929605889,-0.03369140625,0.033203125,1.00439453125,0.0,-1.03759765625,-0.42724609375,0.0,0.0,0.0,-0.020804693922400475,-0.010553186759352684,0.31701576709747314,-0.9481334686279297
5.924754619598389,-1.9309578710558388,1.9210400094941573,36.946569598106656,-0.033203125,0.0341796875,1.0029296875,-0.06103515625,-0.8544921875,-0.18310546875,0.0,0.0,0.0,-0.02129044383764267,-0.0105590196326375,0.3170408606529236,-0.9481140375137329
5.94477653503418,-1.9338385033382917,1.9388877206822237,36.950565258771114,-0.03369140625,0.03369140625,1.001953125,-0.06103515625,-0.42724609375,-0.18310546875,0.0,0.0,0.0,-0.021363945677876472,-0.010698001831769943,0.31707584857940674,-0.9480991959571838
5.969686269760132,-1.8978167259858791,1.901837146086078,36.95707784414472,-0.033203125,0.03271484375,1.00146484375,-0.18310546875,-0.30517578125,-0.1220703125,0.0,0.0,0.0,-0.020964158698916435,-0.010489878244698048,0.3171229660511017,-0.9480946660041809
5.979819297790527,-1.840966713646336,1.8916934613949627,36.96301669362804,-0.033203125,0.03271484375,1.0009765625,0.0,-0.8544921875,-0.244140625,0.0,0.0,0.0,-0.020466316491365433,-0.010562200099229813,0.3171660006046295,-0.9480903744697571
5.999628782272339,-1.8746958953151514,1.931816340457145,36.96445103335375,-0.03369140625,0.033203125,1.00341796875,0.06103515625,-1.0986328125,-0.18310546875,0.0,0.0,0.0,-0.02085638977587223,-0.010800602845847607,0.31718456745147705,-0.9480729103088379
6.02477240562439,-1.9220965543813935,1.9602965217488055,36.96536286360794,-0.03369140625,0.03369140625,1.00146484375,0.0,-0.67138671875,-0.1220703125,0.0,0.0,0.0,-0.021327340975403786,-0.010904902592301369,0.31719914078712463,-0.9480563998222351
6.044719934463501,-1.9261077964148952,2.0276229770580905,36.96856280723409,-0.03515625,0.033203125,1.0009765625,-0.1220703125,-0.244140625,-0.1220703125,0.0,0.0,0.0,-0.02154688537120819,-0.011450318619608879,0.31723207235336304,-0.9480340480804443
6.065281391143799,-1.9533850106389874,1.9188686496683278,36.9729341283029,-0.03369140625,0.0341796875,1.0029296875,-0.06103515625,-0.3662109375,-0.1220703125,0.0,0.0,0.0,-0.02147241309285164,-0.010474062524735928,0.31726083159446716,-0.9480373859405518
6.085756778717041,-1.8824951175736597,1.9836365588032085,36.980085336363906,-0.03564453125,0.03271484375,1.001953125,-0.06103515625,-0.3662109375,-0.06103515625,0.0,0.0,0.0,-0.021065637469291687,-0.011204954236745834,0.31731918454170227,-0.9480186700820923
6.104977130889893,-1.8770006572732076,1.9643314560009906,36.98493477067461,-0.03369140625,0.03271484375,1.0029296875,0.1220703125,-0.91552734375,-0.3662109375,0.0,0.0,0.0,-0.020967282354831696,-0.011059539392590523,0.31735706329345703,-0.9480098485946655
6.125298023223877,-1.8649084476779347,1.9516185529648928,36.9883088841246,-0.0341796875,0.03271484375,1.0029296875,-0.1220703125,-0.732421875,-0.244140625,0.0,0.0,0.0,-0.020832419395446777,-0.010987223125994205,0.31738272309303284,-0.9480050206184387
6.139712810516357,-1.9533404009659707,1.9800998014736113,36.988083487881994,-0.03466796875,0.03369140625,1.0009765625,-0.1220703125,-0.67138671875,-0.1220703125,0.0,0.0,0.0,-0.02164273150265217,-0.010977995581924915,0.31739190220832825,-0.9479838609695435
6.164936065673828,-1.9753047952328506,2.007725782232197,36.99077799750956,-0.03515625,0.0341796875,1.0009765625,-0.1220703125,-0.244140625,-0.06103515625,0.0,0.0,0.0,-0.021901076659560204,-0.011145230382680893,0.3174189031124115,-0.947966992855072
6.185550212860107,-1.9706169375846947,1.9397143870152067,36.995958695995014,-0.0341796875,0.0341796875,1.00048828125,0.0,-0.48828125,-0.06103515625,0.0,0.0,0.0,-0.02167471870779991,-0.01059449091553688,0.31745487451553345,-0.947966456413269
6.20486307144165,-1.7802085524410758,1.9095450145644373,37.006422545803474,-0.03369140625,0.03173828125,1.00244140625,-0.06103515625,-0.9765625,-0.30517578125,0.0,0.0,0.0,-0.020017072558403015,-0.010870508849620819,0.3175209164619446,-0.9479777216911316
6.220111131668091,-1.8769332091551536,1.9476922614091932,37.00594443256158,-0.0341796875,0.03271484375,1.0029296875,-0.06103515625,-0.8544921875,-0.244140625,0.0,0.0,0.0,-0.020922722294926643,-0.01091821026057005,0.3175294101238251,-0.9479547739028931
6.2446863651275635,-1.8798379605431133,1.9215371191996873,37.00950979130832,-0.03369140625,0.03271484375,1.00439453125,-0.244140625,-0.48828125,-0.1220703125,0.0,0.0,0.0,-0.020874731242656708,-0.010693102143704891,0.31755685806274414,-0.9479491710662842
6.260889291763306,-1.9690538914818196,1.9685766320135651,37.009683961132154,-0.03466796875,0.03466796875,1.00146484375,0.06103515625,-0.30517578125,0.06103515625,0.0,0.0,0.0,-0.02174290642142296,-0.010835029184818268,0.3175710141658783,-0.9479232430458069
6.285709619522095,-1.906520948309414,1.9856010919632334,37.01683858428775,-0.03515625,0.03369140625,1.001953125,0.0,-0.54931640625,-0.06103515625,0.0,0.0,0.0,-0.021273411810398102,-0.011147855781018734,0.3176257610321045,-0.9479120373725891
6.305278778076172,-1.8885983184838893,1.9474581139867086,37.020185376981054,-0.0341796875,0.033203125,1.00244140625,0.0,-0.8544921875,-0.244140625,0.0,0.0,0.0,-0.02101992443203926,-0.01088133454322815,0.317648321390152,-0.9479132294654846
6.324705123901367,-1.820127806488627,2.0196495849757468,37.02433130180725,-0.0361328125,0.03173828125,1.0009765625,0.0,-0.79345703125,-0.1220703125,0.0,0.0,0.0,-0.02065373584628105,-0.011667677201330662,0.31768208742141724,-0.9479005336761475
6.344708442687988,-1.9332882462232825,1.9798961764589802,37.02438594332061,-0.03466796875,0.03369140625,1.00048828125,-0.06103515625,-0.3662109375,-0.1220703125,0.0,0.0,0.0,-0.02147977240383625,-0.01102504599839449,0.31769025325775146,-0.9478871822357178
6.359680414199829,-1.9161047709319998,1.928452258847502,37.0285113775793,-0.03369140625,0.03369140625,1.00146484375,0.1220703125,-0.3662109375,0.06103515625,0.0,0.0,0.0,-0.02119564078748226,-0.01064630039036274,0.3177180588245392,-0.9478884935379028
6.385418891906738,-2.0058564448337295,1.979221908721853,37.02957688708982,-0.03466796875,0.03515625,1.001953125,-0.06103515625,-0.6103515625,-0.1220703125,0.0,0.0,0.0,-0.02207866869866848,-0.01081728097051382,0.3177400231361389,-0.9478591084480286
6.404811859130859,-1.929482123308293,1.9383378904540376,37.03705935932557,-0.0341796875,0.03369140625,1.0029296875,-0.18310546875,-1.0986328125,-0.30517578125,0.0,0.0,0.0,-0.0213344544172287,-0.010689406655728817,0.3177908957004547,-0.947860598564148
6.424555778503418,-1.8238814223243722,1.9251835864428277,37.04214102006806,-0.03369140625,0.0322265625,1.00146484375,-0.18310546875,-0.732421875,-0.18310546875,0.0,0.0,0.0,-0.020425016060471535,-0.010872523300349712,0.3178218603134155,-0.9478681683540344
6.444639205932617,-1.954600570867838,1.9265500511636535,37.04146141624564,-0.03369140625,0.0341796875,1.0,-0.18310546875,-0.3662109375,0.0,0.0,0.0,0.0,-0.02150999754667282,-0.01052139513194561,0.31782856583595276,-0.9478458166122437
6.464678764343262,-2.0449244865559675,1.9550464541545929,37.04245520876988,-0.03466796875,0.03564453125,1.001953125,-0.06103515625,-0.30517578125,-0.06103515625,0.0,0.0,0.0,-0.022336091846227646,-0.010506432503461838,0.3178478181362152,-0.9478204250335693
6.48461651802063,-1.9520226013429813,1.9720847879260128,37.04881411488716,-0.03466796875,0.0341796875,1.00390625,0.06103515625,-0.8544921875,-0.18310546875,0.0,0.0,0.0,-0.021615445613861084,-0.010903874412178993,0.317893385887146,-0.9478174448013306
6.499951362609863,-1.8695034574420608,1.9813561293940705,37.05590726634022,-0.03466796875,0.03271484375,1.0009765625,0.0,-0.9765625,-0.18310546875,0.0,0.0,0.0,-0.02095927856862545,-0.011208194307982922,0.3179449439048767,-0.9478111863136292
6.525148153305054,-1.8678189620380063,1.9717279105418797,37.05884766277791,-0.03466796875,0.033203125,1.00146484375,0.0,-1.03759765625,-0.18310546875,0.0,0.0,0.0,-0.020918959751725197,-0.0111326789483428,0.3179682493209839,-0.9478051662445068
6.544973134994507,-1.9842875612084754,1.8422881418073218,37.05823636084719,-0.03271484375,0.03466796875,1.00048828125,-0.30517578125,-0.54931640625,-0.18310546875,0.0,0.0,0.0,-0.021523669362068176,-0.009738798253238201,0.31796178221702576,-0.9478092193603516
6.564589023590088,-1.9137722613304406,1.9080594484199596,37.06440060657313,-0.0341796875,0.033203125,1.00048828125,0.0,-0.3662109375,-0.06103515625,0.0,0.0,0.0,-0.021123183891177177,-0.010477432049810886,0.3180128335952759,-0.9477931261062622
6.584701061248779,-1.9248121949067083,1.893070384842955,37.06749809736173,-0.033203125,0.03369140625,1.00244140625,-0.1220703125,-0.3662109375,-0.18310546875,0.0,0.0,0.0,-0.021173246204853058,-0.010322223417460918,0.31803807616233826,-0.9477852582931519
6.60475754737854,-1.8787389404169759,1.9142870868391302,37.07405507896494,-0.0341796875,0.033203125,1.0029296875,-0.1220703125,-0.9765625,-0.244140625,0.0,0.0,0.0,-0.02085156925022602,-0.010624418966472149,0.31809002161026,-0.9477716088294983
6.62467360496521,-1.865084111605651,1.916727385363529,37.07689985275425,-0.03369140625,0.033203125,1.00341796875,-0.18310546875,-0.79345703125,-0.30517578125,0.0,0.0,0.0,-0.0207456573843956,-0.010681995190680027,0.31811246275901794,-0.9477658867835999
6.645746946334839,-1.8925077480100752,1.8993695268049993,37.079365551044624,-0.03369140625,0.033203125,1.00244140625,-0.06103515625,-0.42724609375,-0.06103515625,0.0,0.0,0.0,-0.020924588665366173,-0.01046182494610548,0.3181338310241699,-0.9477572441101074
6.66569709777832,-1.9336794879966774,1.9066923433688991,37.083552457005844,-0.03369140625,0.0341796875,1.001953125,-0.1220703125,-0.244140625,-0.1220703125,0.0,0.0,0.0,-0.021285785362124443,-0.010407318361103535,0.3181729018688202,-0.9477366209030151
6.685664653778076,-1.8391772040837926,1.9201800459889704,37.09141741983512,-0.03369140625,0.03271484375,1.00146484375,-0.06103515625,-0.67138671875,-0.18310546875,0.0,0.0,0.0,-0.02054232358932495,-0.010779871605336666,0.31823045015335083,-0.9477295279502869
6.7079973220825195,-1.87966272350222,2.03684949540972,37.0943373257053,-0.0361328125,0.03271484375,1.00390625,0.1220703125,-0.91552734375,-0.244140625,0.0,0.0,0.0,-0.021200915798544884,-0.011631978675723076,0.3182685971260071,-0.9476921558380127
6.72467303276062,-1.8764580841210146,2.0254876891688154,37.097188929683774,-0.03515625,0.033203125,1.00390625,-0.1220703125,-0.8544921875,-0.18310546875,0.0,0.0,0.0,-0.021143201738595963,-0.011546370573341846,0.31829091906547546,-0.9476869106292725
6.745817184448242,-1.9355366591206862,1.882576012626642,37.097315288183424,-0.033203125,0.0341796875,1.0029296875,-0.18310546875,-0.42724609375,-0.06103515625,0.0,0.0,0.0,-0.021235520020127296,-0.010200119577348232,0.3182846009731293,-0.9477025866508484
6.765509366989136,-1.9791395195649897,1.9114181939443133,37.10120849601033,-0.03369140625,0.0341796875,1.00244140625,-0.1220703125,-0.3662109375,-0.1220703125,0.0,0.0,0.0,-0.021676454693078995,-0.010316848754882812,0.3183234930038452,-0.9476782083511353
6.784806489944458,-1.8518158288126665,1.8853057404171198,37.109500345662724,-0.03369140625,0.0322265625,1.00146484375,-0.1220703125,-0.6103515625,-0.244140625,0.0,0.0,0.0,-0.020551802590489388,-0.010453050024807453,0.3183780908584595,-0.9476834535598755
6.8046815395355225,-1.8856105376088317,1.9253189095657586,37.11145719485993,-0.03369140625,0.033203125,1.001953125,0.0,-1.0986328125,-0.18310546875,0.0,0.0,0.0,-0.020942464470863342,-0.010689768940210342,0.31840094923973083,-0.9476645588874817
6.825110912322998,-1.922440625160833,1.9357991945169086,37.11325011951706,-0.0341796875,0.03369140625,1.00244140625,-0.06103515625,-0.732421875,-0.18310546875,0.0,0.0,0.0,-0.021276284009218216,-0.01067378744482994,0.3184201717376709,-0.9476508498191833
6.839659929275513,-1.947692901739428,1.936588081366045,37.11552457251067,-0.03369140625,0.0341796875,1.0029296875,-0.244140625,-0.42724609375,-0.1220703125,0.0,0.0,0.0,-0.021487515419721603,-0.010609717108309269,0.31844139099121094,-0.9476396441459656
6.865412473678589,-1.9366021686312083,1.927081098371622,37.11908651616284,-0.03369140625,0.0341796875,1.00341796875,-0.1220703125,-0.42724609375,0.0,0.0,0.0,0.0,-0.021369751542806625,-0.010561238043010235,0.31846892833709717,-0.9476335644721985
6.886138200759888,-1.9364198879577335,1.9196784539717975,37.121903969195465,-0.03369140625,0.03369140625,1.0029296875,-0.18310546875,-0.8544921875,-0.06103515625,0.0,0.0,0.0,-0.02134796604514122,-0.010499987751245499,0.31849154829978943,-0.9476271271705627
6.90624213218689,-1.918254786416673,1.9816995598432752,37.12564349776605,-0.0341796875,0.033203125,1.0029296875,-0.06103515625,-1.0986328125,-0.244140625,0.0,0.0,0.0,-0.021370191127061844,-0.01106276549398899,0.3185264468193054,-0.9476085901260376
6.919857025146484,-1.9273816266951025,1.974355825825042,37.1277950073546,-0.0341796875,0.03369140625,1.00244140625,-0.06103515625,-0.732421875,-0.18310546875,0.0,0.0,0.0,-0.02142549864947796,-0.010976252146065235,0.31854447722435,-0.9476021528244019
6.944710731506348,-1.9285611149873991,1.9748582716158611,37.13307474358302,-0.03466796875,0.03369140625,1.00244140625,-0.06103515625,-0.3662109375,0.0,0.0,0.0,0.0,-0.021437151357531548,-0.01097614225000143,0.3185882866382599,-0.9475871920585632
6.960000991821289,-1.9303572412957009,1.9624599841684072,37.13804029110962,-0.03466796875,0.03369140625,1.00341796875,-0.06103515625,-0.6103515625,-0.18310546875,0.0,0.0,0.0,-0.02141805924475193,-0.010867676697671413,0.31862834095954895,-0.9475755095481873
6.985447406768799,-1.9517052109899873,1.9762631561507682,37.13911946099849,-0.03515625,0.03369140625,1.0048828125,-0.06103515625,-0.54931640625,-0.06103515625,0.0,0.0,0.0,-0.021633008494973183,-0.010922274552285671,0.3186406195163727,-0.9475657939910889
6.999539375305176,-1.9382905060166706,1.949936191994954,37.1427838574882,-0.0341796875,0.03369140625,1.00390625,0.06103515625,-0.91552734375,-0.18310546875,0.0,0.0,0.0,-0.021449347957968712,-0.010741148144006729,0.3186672031879425,-0.9475630521774292
7.0216028690338135,-1.860613112463643,1.86678290771828,37.14965844288781,-0.033203125,0.03271484375,1.00341796875,-0.1220703125,-0.8544921875,-0.244140625,0.0,0.0,0.0,-0.020576778799295425,-0.010268185287714005,0.3187093436717987,-0.9475735425949097
7.044740438461304,-1.9642055243881684,1.8758504107282952,37.14900274472749,-0.03271484375,0.03369140625,1.00341796875,-0.18310546875,-0.48828125,-0.18310546875,0.0,0.0,0.0,-0.02145851030945778,-0.010055177845060825,0.3187139928340912,-0.9475546479225159
7.065464735031128,-1.9214128951341576,1.9558562584580625,37.15441566964473,-0.0341796875,0.03369140625,1.0009765625,-0.1220703125,-0.18310546875,-0.1220703125,0.0,0.0,0.0,-0.021327318623661995,-0.01083488017320633,0.31876233220100403,-0.9475328326225281
7.084686517715454,-1.9507570953558249,1.8903859070557285,37.15687795284052,-0.033203125,0.0341796875,1.00341796875,0.0,-0.67138671875,-0.1220703125,0.0,0.0,0.0,-0.02138836495578289,-0.010211328975856304,0.3187792897224426,-0.9475327134132385
7.104708194732666,-1.7516340291615045,1.9161956978253256,37.166931991298775,-0.03369140625,0.03125,1.00341796875,-0.06103515625,-1.15966796875,-0.18310546875,0.0,0.0,0.0,-0.01981448009610176,-0.010976970195770264,0.31884628534317017,-0.9475357532501221
7.124622344970703,-1.8772132469111242,1.94630701366815,37.164538009994686,-0.03369140625,0.0322265625,1.0029296875,-0.06103515625,-0.91552734375,-0.18310546875,0.0,0.0,0.0,-0.020936280488967896,-0.010877005755901337,0.31884098052978516,-0.947514533996582
7.1446003913879395,-1.9257056690275107,1.9414906630862332,37.16534738741133,-0.0341796875,0.03369140625,1.0029296875,-0.1220703125,-0.3662109375,0.0,0.0,0.0,0.0,-0.02132394164800644,-0.010702095925807953,0.3188518285751343,-0.9475042819976807
7.164736032485962,-1.924795332877195,1.9272151408340834,37.16878297256385,-0.03369140625,0.03369140625,1.00244140625,-0.06103515625,-0.18310546875,0.0,0.0,0.0,0.0,-0.021277079358696938,-0.010585932992398739,0.31887882947921753,-0.9474974870681763
7.18459415435791,-1.979992012550772,2.0273499829347017,37.17131697274592,-0.03564453125,0.03466796875,1.0029296875,-0.06103515625,-0.79345703125,-0.244140625,0.0,0.0,0.0,-0.022011879831552505,-0.01125995721668005,0.3189143240451813,-0.9474610686302185
7.204626798629761,-1.9241635403789688,2.057576344776358,37.175821482503544,-0.0361328125,0.03369140625,1.00146484375,-0.1220703125,-1.03759765625,-0.18310546875,0.0,0.0,0.0,-0.02163470908999443,-0.011664447374641895,0.31894874572753906,-0.9474532604217529
7.223065614700317,-1.922473282002802,1.9933604003037795,37.17993667147848,-0.03466796875,0.033203125,1.00146484375,-0.06103515625,-0.9765625,-0.30517578125,0.0,0.0,0.0,-0.0214427150785923,-0.01113732811063528,0.31897684931755066,-0.9474545121192932
7.246050119400024,-1.8756491335911913,1.964797616411844,37.182723388659845,-0.0341796875,0.033203125,1.001953125,-0.06103515625,-0.30517578125,-0.06103515625,0.0,0.0,0.0,-0.020976461470127106,-0.011030949652194977,0.31899282336235046,-0.9474608302116394
7.265027284622192,-1.8692789149730966,1.9499325634569575,37.18548278508453,-0.0341796875,0.033203125,1.00244140625,-0.06103515625,-0.244140625,-0.06103515625,0.0,0.0,0.0,-0.0208827443420887,-0.010925250127911568,0.3190137445926666,-0.9474570155143738
7.284854173660278,-1.8990043251278153,2.000960266415888,37.18821486075254,-0.03466796875,0.033203125,1.00146484375,-0.1220703125,-0.91552734375,-0.1220703125,0.0,0.0,0.0,-0.02127060294151306,-0.011263969354331493,0.31904366612434387,-0.9474343657493591
7.3047051429748535,-1.86426320824478,2.0117229370005356,37.193132596954946,-0.03564453125,0.03271484375,1.00244140625,0.06103515625,-0.9765625,-0.244140625,0.0,0.0,0.0,-0.0210137739777565,-0.011448794975876808,0.3190818428993225,-0.9474249482154846
7.320018291473389,-1.8408789884041836,1.9627844181539826,37.19699506893058,-0.0341796875,0.0322265625,1.00146484375,-0.18310546875,-0.54931640625,-0.1220703125,0.0,0.0,0.0,-0.02068476378917694,-0.011108514852821827,0.3191072642803192,-0.9474278092384338
7.345614671707153,-1.892135289256898,1.9892573776033058,37.196783333066314,-0.03466796875,0.033203125,1.001953125,-0.18310546875,-0.30517578125,0.1220703125,0.0,0.0,0.0,-0.021182119846343994,-0.011184734292328358,0.3191128075122833,-0.947413980960846
7.365001201629639,-1.9110348495771463,1.9169474455208502,37.2007960692037,-0.03369140625,0.033203125,1.00244140625,0.0,-0.42724609375,-0.1220703125,0.0,0.0,0.0,-0.021137719973921776,-0.010533404536545277,0.31914129853248596,-0.9474128484725952
7.385005474090576,-1.888873873928217,1.94447289443259,37.20409163547823,-0.0341796875,0.033203125,1.00390625,-0.06103515625,-0.8544921875,-0.06103515625,0.0,0.0,0.0,-0.021031338721513748,-0.010822134092450142,0.31916895508766174,-0.9474027156829834
7.4049973487854,-1.9445360736824127,1.9979528487469669,37.20483612609776,-0.03466796875,0.03369140625,1.00048828125,-0.06103515625,-0.9765625,-0.18310546875,0.0,0.0,0.0,-0.02164030820131302,-0.011109190993010998,0.3191852867603302,-0.9473800659179688
7.424919605255127,-1.891351525049639,1.973434390617325,37.20809754142644,-0.0341796875,0.033203125,1.00146484375,-0.244140625,-0.54931640625,-0.1220703125,0.0,0.0,0.0,-0.02113274298608303,-0.011053984053432941,0.3192048668861389,-0.9473856091499329
7.4447386264801025,-1.8819785845176775,1.9875536722922107,37.21226054172556,-0.03466796875,0.03369140625,1.00439453125,-0.1220703125,-0.54931640625,-0.06103515625,0.0,0.0,0.0,-0.021094921976327896,-0.011196080595254898,0.31923964619636536,-0.9473730325698853
7.4597251415252686,-1.9107102021481592,1.9683175117119276,37.21449742867875,-0.03466796875,0.033203125,1.00390625,-0.1220703125,-0.244140625,-0.06103515625,0.0,0.0,0.0,-0.021279172971844673,-0.010956555604934692,0.3192591965198517,-0.9473651647567749
7.4847471714019775,-1.8740000697934562,1.9234615249983382,37.21925124034107,-0.0341796875,0.03271484375,1.0029296875,-0.06103515625,-0.54931640625,-0.1220703125,0.0,0.0,0.0,-0.02085135690867901,-0.010687055066227913,0.31929105520248413,-0.9473670125007629
7.509368658065796,-1.9263594461971278,1.94973897028267,37.22026210833823,-0.0341796875,0.03369140625,1.00341796875,-0.06103515625,-1.03759765625,-0.18310546875,0.0,0.0,0.0,-0.021357417106628418,-0.010758258402347565,0.3193066418170929,-0.9473497271537781
7.524829387664795,-1.9666957686708728,2.040865860085099,37.221597410320975,-0.03564453125,0.0341796875,1.0029296875,-0.1220703125,-0.79345703125,-0.18310546875,0.0,0.0,0.0,-0.021944493055343628,-0.011399108916521072,0.31932997703552246,-0.9473209381103516
7.5396387577056885,-1.9810178215867433,1.9505844196358706,37.22419971239475,-0.0341796875,0.03466796875,1.001953125,-0.1220703125,-0.3662109375,-0.18310546875,0.0,0.0,0.0,-0.02181200310587883,-0.010612194426357746,0.3193444013595581,-0.9473282694816589
7.5645811557769775,-1.9080071547841266,1.9662917202927843,37.23084207136259,-0.03466796875,0.03369140625,1.00244140625,-0.1220703125,-0.3662109375,-0.1220703125,0.0,0.0,0.0,-0.021252751350402832,-0.01094430685043335,0.3193938732147217,-0.9473205208778381
7.579665660858154,-1.8674016801684008,2.024521003957847,37.235664184916615,-0.03466796875,0.03271484375,1.0029296875,-0.06103515625,-0.67138671875,-0.1220703125,0.0,0.0,0.0,-0.02107957750558853,-0.011538065038621426,0.31943485140800476,-0.9473035335540771
7.602617025375366,-1.8178657332128834,1.9081497349830507,37.241360562684406,-0.03369140625,0.03173828125,1.00146484375,-0.06103515625,-1.15966796875,-0.244140625,0.0,0.0,0.0,-0.0203467458486557,-0.010712927207350731,0.3194672465324402,-0.9473182559013367
7.624917030334473,-1.92747276703184,2.001231766435396,37.24127860041436,-0.03466796875,0.03369140625,1.001953125,-0.06103515625,-0.67138671875,-0.18310546875,0.0,0.0,0.0,-0.02151191048324108,-0.011176993139088154,0.3194851875305176,-0.9472811222076416
7.6446309089660645,-1.8700304492252096,2.033162260474971,37.245598695064395,-0.03564453125,0.03271484375,1.001953125,-0.06103515625,-0.54931640625,0.06103515625,0.0,0.0,0.0,-0.021126361563801765,-0.011600354686379433,0.31951799988746643,-0.9472737312316895
7.664780616760254,-1.837157389080173,2.060008745894529,37.25053350673973,-0.03564453125,0.0322265625,1.00244140625,-0.06103515625,-0.3662109375,-0.18310546875,0.0,0.0,0.0,-0.020929858088493347,-0.011913085356354713,0.31955766677856445,-0.9472607374191284
7.684797525405884,-1.8455691939298666,1.8446321773531056,37.252985544651764,-0.0322265625,0.0322265625,1.00244140625,0.06103515625,-0.79345703125,-0.18310546875,0.0,0.0,0.0,-0.02039998769760132,-0.010108434595167637,0.31956034898757935,-0.9472924470901489
7.704836845397949,-1.9527167193173838,1.9059534022780684,37.25224105403223,-0.03369140625,0.0341796875,1.0009765625,-0.06103515625,-1.03759765625,-0.244140625,0.0,0.0,0.0,-0.02145639806985855,-0.010316773317754269,0.3195693790912628,-0.947263777256012
7.724632978439331,-2.0992667522530586,1.9147743781477284,37.24979926140396,-0.03369140625,0.0361328125,1.00341796875,0.0,-0.67138671875,-0.1220703125,0.0,0.0,0.0,-0.02269216999411583,-0.009981485083699226,0.31956303119659424,-0.9472407102584839
7.744723796844482,-1.9234918339627802,2.024714810575546,37.25864094128454,-0.03564453125,0.03369140625,1.005859375,-0.06103515625,-0.18310546875,-0.06103515625,0.0,0.0,0.0,-0.021546080708503723,-0.011378990486264229,0.3196304142475128,-0.9472290277481079
7.765905380249023,-1.8236310532026088,2.062774118734738,37.26683716828855,-0.0361328125,0.03125,1.0029296875,0.0,-0.42724609375,-0.06103515625,0.0,0.0,0.0,-0.02082744427025318,-0.011970706284046173,0.3196912705898285,-0.9472172260284424
7.780895471572876,-1.8671410657628826,1.975086869509645,37.26931994205185,-0.03466796875,0.03271484375,1.0009765625,-0.06103515625,-0.79345703125,-0.06103515625,0.0,0.0,0.0,-0.02094312198460102,-0.0111238993704319,0.31970879435539246,-0.9472191333770752
7.805360794067383,-1.885045339455013,1.956911736128241,37.27121531954653,-0.03369140625,0.03271484375,1.0,-0.06103515625,-1.03759765625,-0.244140625,0.0,0.0,0.0,-0.021040678024291992,-0.010923335328698158,0.31972458958625793,-0.947213888168335
7.824944019317627,-1.8749229991050542,1.916483632987524,37.27374590463402,-0.033203125,0.033203125,1.0009765625,-0.244140625,-0.6103515625,-0.06103515625,0.0,0.0,0.0,-0.020844629034399986,-0.01061687245965004,0.31974101066589355,-0.9472161531448364
7.8463969230651855,-1.8825988510716791,1.9333157804233743,37.27640626331574,-0.03369140625,0.033203125,1.0029296875,-0.1220703125,-0.3662109375,0.0,0.0,0.0,0.0,-0.020955214276909828,-0.010734129697084427,0.31976518034935,-0.9472042918205261
7.865283727645874,-1.8960741739738798,1.9899860734103816,37.27963352769857,-0.03466796875,0.03271484375,1.00341796875,0.0,-0.54931640625,-0.06103515625,0.0,0.0,0.0,-0.021224787458777428,-0.011164447292685509,0.31979817152023315,-0.9471822381019592
7.880095720291138,-1.8973998710030968,1.9673721708421157,37.283311584566626,-0.03466796875,0.033203125,1.005859375,0.06103515625,-1.03759765625,-0.244140625,0.0,0.0,0.0,-0.02117309533059597,-0.010973110795021057,0.3198266923427582,-0.947175920009613
7.899714946746826,-1.9024902829254604,2.0014116992313435,37.28619050930178,-0.03515625,0.033203125,1.00537109375,-0.30517578125,-0.9765625,-0.30517578125,0.0,0.0,0.0,-0.021310295909643173,-0.01123978104442358,0.3198539912700653,-0.947160542011261
7.924992322921753,-1.8384536309185944,1.990696413084063,37.29175028328617,-0.03466796875,0.0322265625,0.99951171875,-0.18310546875,-0.8544921875,-0.244140625,0.0,0.0,0.0,-0.02075168676674366,-0.011328930035233498,0.3198927342891693,-0.9471587538719177
7.945847749710083,-1.8095883977124743,1.9999146071426415,37.29585522697735,-0.03515625,0.0322265625,1.0029296875,-0.244140625,-0.42724609375,-0.1220703125,0.0,0.0,0.0,-0.02053920365869999,-0.011484980583190918,0.319924533367157,-0.9471507668495178
7.965096950531006,-1.8873953514163206,1.931650708369772,37.29602256661202,-0.03369140625,0.033203125,1.00341796875,-0.06103515625,-0.3662109375,0.0,0.0,0.0,0.0,-0.020992057397961617,-0.010703385807573795,0.3199276328086853,-0.9471489191055298
7.979767560958862,-1.8726468385641475,1.9329783263896934,37.300940302814425,-0.0341796875,0.03271484375,1.00341796875,0.0,-0.732421875,-0.18310546875,0.0,0.0,0.0,-0.02087431214749813,-0.010754641145467758,0.31996700167655945,-0.947137713432312
8.004751682281494,-1.8541291285071853,1.992537789395616,37.304263189845635,-0.03466796875,0.0322265625,1.00048828125,0.0,-1.03759765625,-0.18310546875,0.0,0.0,0.0,-0.020887620747089386,-0.011298109777271748,0.3199978470802307,-0.9471206068992615
8.024848461151123,-1.9034889846481633,1.905923306757038,37.30535602011284,-0.033203125,0.033203125,1.00146484375,-0.18310546875,-0.732421875,-0.244140625,0.0,0.0,0.0,-0.021054217591881752,-0.01044404972344637,0.3200039565563202,-0.9471246600151062
8.046083211898804,-1.8946650205707414,2.0287388592137416,37.3091228694401,-0.03515625,0.033203125,1.0029296875,-0.1220703125,-0.42724609375,-0.06103515625,0.0,0.0,0.0,-0.02132406271994114,-0.011483272537589073,0.3200451731681824,-0.9470926523208618
8.061520099639893,-1.8394489175467121,1.97109291639248,37.31365811504899,-0.03515625,0.0322265625,1.0029296875,-0.06103515625,-0.3662109375,-0.06103515625,0.0,0.0,0.0,-0.02070741169154644,-0.011160129681229591,0.3200722336769104,-0.9471011161804199
8.0857412815094,-1.7538270534936073,1.9429109155467728,37.31998970040959,-0.0341796875,0.03076171875,1.001953125,-0.1220703125,-0.8544921875,-0.244140625,0.0,0.0,0.0,-0.019921766594052315,-0.011165210977196693,0.3201139271259308,-0.9471037983894348
8.104599952697754,-1.8920055156626678,1.9425920310898979,37.31873294560231,-0.03369140625,0.033203125,1.0029296875,-0.1220703125,-1.03759765625,-0.1220703125,0.0,0.0,0.0,-0.021062791347503662,-0.010776792652904987,0.32011672854423523,-0.9470826983451843
8.124667167663574,-1.877519538206717,1.9302853108660043,37.32259883267253,-0.03369140625,0.03271484375,1.001953125,-0.1220703125,-0.6103515625,-0.18310546875,0.0,0.0,0.0,-0.020909108221530914,-0.010714821517467499,0.32014623284339905,-0.9470767378807068
8.140067338943481,-1.9102043412627552,2.0168650022284975,37.32416977618164,-0.03515625,0.033203125,0.9990234375,-0.1220703125,-0.3662109375,-0.06103515625,0.0,0.0,0.0,-0.021420879289507866,-0.011338905431330204,0.3201700448989868,-0.9470499753952026
8.166780948638916,-2.0069580262808056,2.047448881784522,37.32424490826251,-0.03564453125,0.03466796875,1.00146484375,-0.1220703125,-0.42724609375,0.0,0.0,0.0,0.0,-0.022305803373456,-0.011321366764605045,0.32018300890922546,-0.9470254182815552
8.184883832931519,-1.8130613354620142,1.9908981171079898,37.33451068258504,-0.03466796875,0.0322265625,1.001953125,-0.1220703125,-0.91552734375,-0.1220703125,0.0,0.0,0.0,-0.020546622574329376,-0.011393814347684383,0.3202436566352844,-0.9470438361167908
8.204792261123657,-1.8496568487047078,1.8769857162343981,37.33569572040604,-0.03271484375,0.03271484375,1.00439453125,-0.1220703125,-1.03759765625,-0.18310546875,0.0,0.0,0.0,-0.020531341433525085,-0.01034972257912159,0.32024723291397095,-0.947054922580719
8.224468469619751,-1.8291265807201187,1.9079104649186887,37.33819898473684,-0.033203125,0.0322265625,1.00244140625,-0.244140625,-0.6103515625,-0.1220703125,0.0,0.0,0.0,-0.020448187366127968,-0.010662278160452843,0.3202687203884125,-0.9470460414886475
8.244702577590942,-1.928560688100576,1.9692306226265939,37.33731447523933,-0.03466796875,0.033203125,1.00244140625,-0.30517578125,-0.3662109375,-0.1220703125,0.0,0.0,0.0,-0.02144097164273262,-0.010891401208937168,0.320276141166687,-0.9470190405845642
8.264889478683472,-1.897544372192725,2.059543439257322,37.342706909589054,-0.0361328125,0.033203125,1.00244140625,-0.06103515625,-0.54931640625,-0.06103515625,0.0,0.0,0.0,-0.021437181159853935,-0.011723596602678299,0.32032570242881775,-0.9469922780990601
8.284716367721558,-1.8705553065742426,1.9435851832839,37.34887798550416,-0.0341796875,0.033203125,1.00390625,-0.06103515625,-0.91552734375,-0.18310546875,0.0,0.0,0.0,-0.020891131833195686,-0.010839429683983326,0.32036393880844116,-0.9470021724700928
8.299866199493408,-1.8683335741032845,1.9355866048789918,37.35262434426391,-0.03369140625,0.033203125,1.00146484375,-0.18310546875,-0.91552734375,-0.30517578125,0.0,0.0,0.0,-0.02085079997777939,-0.01077884342521429,0.32039397954940796,-0.9469935894012451
8.324700832366943,-1.8685179892108748,1.923667711333908,37.35509004255429,-0.0341796875,0.03271484375,1.00244140625,-0.1220703125,-0.42724609375,-0.18310546875,0.0,0.0,0.0,-0.020819280296564102,-0.010679364204406738,0.3204132914543152,-0.9469889402389526
8.344711065292358,-1.9667098559360359,1.9418547975463596,37.35487830669002,-0.0341796875,0.03515625,1.00341796875,0.06103515625,-0.30517578125,-0.06103515625,0.0,0.0,0.0,-0.021681485697627068,-0.010555165819823742,0.32042235136032104,-0.9469678401947021
8.36488127708435,-1.8768324638648959,1.9759974191033725,37.361213307145206,-0.03466796875,0.03271484375,1.00244140625,0.0,-0.67138671875,-0.06103515625,0.0,0.0,0.0,-0.021034667268395424,-0.011087525635957718,0.32046929001808167,-0.9469605088233948
8.384583711624146,-1.8082878870058214,2.031118112922433,37.36765076043794,-0.03564453125,0.03173828125,1.001953125,-0.1220703125,-0.732421875,-0.18310546875,0.0,0.0,0.0,-0.02062278427183628,-0.011733652092516422,0.3205203413963318,-0.9469444155693054
8.404666662216187,-1.8906147183929238,2.006689727912471,37.3675244019383,-0.03515625,0.033203125,1.00244140625,-0.06103515625,-1.0986328125,-0.1220703125,0.0,0.0,0.0,-0.021234869956970215,-0.0113014942035079,0.32052546739578247,-0.9469345211982727
8.424866914749146,-1.8298934828978644,1.9209659446303449,37.37140736448145,-0.03369140625,0.0322265625,1.00390625,-0.18310546875,-0.79345703125,-0.1220703125,0.0,0.0,0.0,-0.02049407735466957,-0.010762112215161324,0.3205443024635315,-0.9469507336616516
8.439652919769287,-1.9582425557993357,1.9071937219426605,37.36945734547341,-0.03369140625,0.0341796875,1.0029296875,-0.244140625,-0.18310546875,0.0,0.0,0.0,0.0,-0.021516066044569016,-0.010289615020155907,0.3205387592315674,-0.9469351768493652
8.464914321899414,-1.792522316297551,1.8390664269531913,37.37919378013526,-0.0322265625,0.03173828125,1.0029296875,-0.1220703125,-0.30517578125,-0.06103515625,0.0,0.0,0.0,-0.019957203418016434,-0.010188373737037182,0.3205983340740204,-0.9469501376152039
8.484624862670898,-1.8543651969203736,1.828862764663427,37.380006572646494,-0.0322265625,0.0322265625,1.001953125,0.0,-0.79345703125,-0.18310546875,0.0,0.0,0.0,-0.020439816638827324,-0.009930872358381748,0.32060956954956055,-0.9469388127326965
8.50485634803772,-1.8535585942680775,1.9644100031764458,37.38383830877087,-0.0341796875,0.03271484375,1.00341796875,-0.1220703125,-1.0986328125,-0.30517578125,0.0,0.0,0.0,-0.02081216685473919,-0.011052730493247509,0.3206529915332794,-0.9469035863876343
8.525568723678589,-1.959588743396063,1.9744990463542007,37.3832850634481,-0.03466796875,0.03369140625,1.00146484375,-0.1220703125,-0.6103515625,-0.244140625,0.0,0.0,0.0,-0.021716447547078133,-0.01083951722830534,0.32065948843955994,-0.946883499622345
8.543165683746338,-1.8419265686681343,1.8970231433816884,37.39200038482903,-0.033203125,0.03271484375,1.001953125,-0.18310546875,-0.6103515625,-0.244140625,0.0,0.0,0.0,-0.020528536289930344,-0.010526871308684349,0.32071352005004883,-0.9468953609466553
8.564635753631592,-1.966397801668331,1.9661105068363673,37.390043535631825,-0.0341796875,0.0341796875,1.0029296875,0.0,-0.48828125,-0.1220703125,0.0,0.0,0.0,-0.021749911829829216,-0.010749849490821362,0.32071518898010254,-0.9468649625778198
8.58466100692749,-1.9019238041111726,1.9721456192983082,37.3951730076985,-0.0341796875,0.03369140625,1.00341796875,0.06103515625,-0.8544921875,-0.18310546875,0.0,0.0,0.0,-0.02123451605439186,-0.010979225859045982,0.32075199484825134,-0.9468615651130676
8.60466742515564,-2.0258748755173905,1.9613594699383887,37.39368744155403,-0.0341796875,0.03466796875,1.0029296875,-0.1220703125,-0.8544921875,-0.244140625,0.0,0.0,0.0,-0.02222842536866665,-0.010543414391577244,0.32075032591819763,-0.9468442797660828
8.62474775314331,-1.951375227475711,2.009634606661804,37.398379781513825,-0.03515625,0.0341796875,1.0029296875,-0.06103515625,-0.48828125,-0.1220703125,0.0,0.0,0.0,-0.021748194471001625,-0.011150022968649864,0.32078665494918823,-0.9468361139297485
8.645301580429077,-1.9801949972351682,2.0099534911186794,37.399612630659014,-0.03466796875,0.03515625,1.00341796875,-0.1220703125,-0.244140625,0.0,0.0,0.0,0.0,-0.02198733203113079,-0.011071743443608284,0.32079964876174927,-0.9468271732330322
8.664875745773315,-1.8212641792117878,1.9514266673378977,37.410079895562056,-0.0341796875,0.03173828125,1.0029296875,-0.06103515625,-0.54931640625,-0.1220703125,0.0,0.0,0.0,-0.020511562004685402,-0.011031094938516617,0.3208656311035156,-0.94683837890625
8.68111252784729,-1.9161303841413875,1.8586024755267203,37.40982376346818,-0.0322265625,0.03271484375,1.00146484375,-0.06103515625,-0.9765625,-0.18310546875,0.0,0.0,0.0,-0.021035894751548767,-0.009998385794460773,0.3208640515804291,-0.9468388557434082
8.699883460998535,-1.8550808726793442,2.0210277890842088,37.41283587689216,-0.03564453125,0.0322265625,1.00244140625,-0.244140625,-0.91552734375,-0.06103515625,0.0,0.0,0.0,-0.02098582684993744,-0.011511094868183136,0.3208976089954376,-0.9468114376068115
8.724894046783447,-1.8263710262768418,1.926572249278456,37.41670176396239,-0.03369140625,0.0322265625,1.00341796875,-0.18310546875,-0.42724609375,-0.18310546875,0.0,0.0,0.0,-0.02048490010201931,-0.010810205712914467,0.3209187388420105,-0.9468235373497009
8.748238563537598,-1.9528191721549342,1.921906376301691,37.41787997159421,-0.03369140625,0.0341796875,1.00244140625,0.0,-0.42724609375,-0.06103515625,0.0,0.0,0.0,-0.021516738459467888,-0.010417298413813114,0.3209397494792938,-0.9467979669570923
8.764658451080322,-1.8615669910699175,1.9387952996850168,37.423405594632754,-0.03369140625,0.0322265625,0.99951171875,-0.06103515625,-0.732421875,-0.1220703125,0.0,0.0,0.0,-0.02081051655113697,-0.010811434127390385,0.3209785223007202,-0.9467961192131042
8.786064386367798,-1.8477633922007333,1.9730275674748863,37.428152576105916,-0.0341796875,0.03173828125,1.00146484375,-0.1220703125,-1.0986328125,-0.244140625,0.0,0.0,0.0,-0.020792659372091293,-0.011132128536701202,0.32101935148239136,-0.9467789530754089
8.805866003036499,-1.8511507391422364,1.9931051219835503,37.432021878270724,-0.03466796875,0.033203125,1.00244140625,0.0,-0.91552734375,-0.18310546875,0.0,0.0,0.0,-0.020877180621027946,-0.011287850327789783,0.3210533559322357,-0.9467637538909912
8.824732303619385,-1.872772556733558,1.8894580685456646,37.433992387846274,-0.03369140625,0.03271484375,1.00341796875,-0.18310546875,-0.30517578125,-0.244140625,0.0,0.0,0.0,-0.020766086876392365,-0.010370409116148949,0.32106268405914307,-0.9467735290527344
8.84468936920166,-1.8074151168959407,1.9092523836471846,37.43899891650789,-0.033203125,0.0322265625,1.00439453125,-0.06103515625,-0.3662109375,-0.1220703125,0.0,0.0,0.0,-0.02028193138539791,-0.010716214776039124,0.32109972834587097,-0.9467676281929016
8.86469316482544,-1.806647787831372,2.033777404387095,37.44281016206476,-0.03515625,0.0322265625,1.00341796875,-0.18310546875,-0.244140625,-0.1220703125,0.0,0.0,0.0,-0.02062436379492283,-0.011746693402528763,0.32114139199256897,-0.9467337727546692
8.887002229690552,-1.8341168876824594,1.9551762277488232,37.446491634027396,-0.03466796875,0.0322265625,1.0009765625,-0.1220703125,-0.79345703125,-0.18310546875,0.0,0.0,0.0,-0.02063174359500408,-0.01101953536272049,0.32116803526878357,-0.9467334151268005
8.906455039978027,-1.8269351572136026,1.9967586328592724,37.45044631355683,-0.03515625,0.03173828125,1.00244140625,0.0,-1.03759765625,-0.244140625,0.0,0.0,0.0,-0.020689157769083977,-0.011382559314370155,0.32120347023010254,-0.9467158317565918
8.925048351287842,-1.865211110435531,1.9328784348730819,37.452430483510724,-0.0341796875,0.033203125,1.0029296875,-0.18310546875,-0.6103515625,-0.30517578125,0.0,0.0,0.0,-0.020826801657676697,-0.01074705459177494,0.3212181031703949,-0.9467152953147888
8.944794654846191,-1.8582492266805837,1.9493748358225436,37.45673008759324,-0.0341796875,0.0322265625,1.00244140625,-0.1220703125,-0.30517578125,-0.1220703125,0.0,0.0,0.0,-0.020815864205360413,-0.01090210024267435,0.3212544322013855,-0.9467014074325562
8.964598655700684,-1.9016751425367018,2.047149634121511,37.458608389615,-0.0361328125,0.03271484375,1.00341796875,-0.1220703125,-0.48828125,0.06103515625,0.0,0.0,0.0,-0.021448465064167976,-0.011587919667363167,0.32128268480300903,-0.9466694593429565
8.985878944396973,-1.8982865149347292,1.8839565646126308,37.4614326728368,-0.033203125,0.03369140625,1.00390625,0.06103515625,-0.8544921875,-0.1220703125,0.0,0.0,0.0,-0.02096395380795002,-0.010248440317809582,0.3212912082672119,-0.946692943572998
9.004934310913086,-1.8051955188590982,1.9436144250312841,37.4679247676429,-0.0341796875,0.03125,1.00146484375,0.0,-0.9765625,-0.244140625,0.0,0.0,0.0,-0.020362505689263344,-0.01100124791264534,0.321341335773468,-0.9466806650161743
9.023361206054688,-1.812925158565437,1.9497929714657953,37.47048608858165,-0.0341796875,0.03173828125,1.001953125,-0.1220703125,-0.6103515625,-0.18310546875,0.0,0.0,0.0,-0.020443908870220184,-0.0110301673412323,0.32136374711990356,-0.9466709494590759
9.045346975326538,-1.8483375549778374,2.0417646702911902,37.47267174911605,-0.03564453125,0.0322265625,1.00341796875,-0.06103515625,-0.244140625,-0.1220703125,0.0,0.0,0.0,-0.020994188264012337,-0.011690390296280384,0.3213929831981659,-0.9466410279273987
9.06513524055481,-1.807651825639364,1.9836713500792933,37.4769201267798,-0.03466796875,0.03125,1.0048828125,-0.06103515625,-0.48828125,-0.1220703125,0.0,0.0,0.0,-0.020495839416980743,-0.011323732323944569,0.32141920924186707,-0.9466474652290344
9.084749698638916,-1.8544463054167677,1.942233019271649,37.47906822127377,-0.0341796875,0.03271484375,1.00244140625,-0.18310546875,-0.9765625,-0.30517578125,0.0,0.0,0.0,-0.020766571164131165,-0.010849700309336185,0.3214379847049713,-0.9466407895088196
9.100015640258789,-1.8556977241387609,1.9652663381436362,37.482712127195974,-0.0341796875,0.033203125,1.0009765625,-0.06103515625,-0.8544921875,-0.30517578125,0.0,0.0,0.0,-0.02084176428616047,-0.011035842821002007,0.32147017121315,-0.9466260671615601
9.124589204788208,-1.763286865494075,1.9058133834000832,37.48980527864903,-0.033203125,0.03076171875,1.0009765625,0.0,-0.6103515625,-0.244140625,0.0,0.0,0.0,-0.019912509247660637,-0.010802620090544224,0.3215150535106659,-0.9466333985328674
9.144602060317993,-1.8690050670760614,2.005658369347799,37.48835727854499,-0.03515625,0.03271484375,1.0029296875,-0.244140625,-0.244140625,-0.06103515625,0.0,0.0,0.0,-0.021065382286906242,-0.011331206187605858,0.3215216100215912,-0.946600079536438
9.164693355560303,-1.8788597493879204,1.958725364796291,37.49301205246435,-0.03466796875,0.033203125,1.0029296875,0.1220703125,-0.54931640625,-0.1220703125,0.0,0.0,0.0,-0.021015765145421028,-0.010914930142462254,0.3215569257736206,-0.9465941786766052
9.185245037078857,-1.8962515454488884,1.8897387466318698,37.496444222522285,-0.033203125,0.03271484375,1.0029296875,0.0,-0.8544921875,-0.1220703125,0.0,0.0,0.0,-0.02096647024154663,-0.010295520536601543,0.3215807378292084,-0.9465941190719604
9.205872774124146,-1.8609010476258412,2.0176393749256474,37.50032718506544,-0.03515625,0.03271484375,1.0009765625,-0.1220703125,-0.79345703125,-0.18310546875,0.0,0.0,0.0,-0.021033192053437233,-0.011450736783444881,0.3216207027435303,-0.9465656876564026
9.224608421325684,-1.8667190881382227,2.080059193089925,37.50158393987272,-0.03564453125,0.03271484375,1.00146484375,-0.18310546875,-0.3662109375,0.06103515625,0.0,0.0,0.0,-0.021256275475025177,-0.011949881911277771,0.3216369152069092,-0.9465490579605103
9.244677305221558,-1.8562198067234437,2.0516447523690253,37.50609186472493,-0.03564453125,0.03271484375,1.0048828125,-0.1220703125,-0.30517578125,-0.06103515625,0.0,0.0,0.0,-0.021090395748615265,-0.011743766255676746,0.3216707110404968,-0.94654381275177
9.264923334121704,-1.8171084359886582,1.9510894267476284,37.511521865115085,-0.0341796875,0.03173828125,1.001953125,0.1220703125,-0.732421875,-0.06103515625,0.0,0.0,0.0,-0.020486047491431236,-0.0110218096524477,0.3217032849788666,-0.9465547204017639
9.284900903701782,-1.8441619615174325,1.91465442295043,37.51488573328132,-0.033203125,0.0322265625,1.00146484375,0.06103515625,-0.9765625,-0.18310546875,0.0,0.0,0.0,-0.020607702434062958,-0.01064424030482769,0.32173052430152893,-0.9465472102165222
9.300024271011353,-1.8874213915125313,1.9789952318187733,37.51803786558328,-0.0341796875,0.03369140625,1.0029296875,-0.1220703125,-0.9765625,-0.244140625,0.0,0.0,0.0,-0.021145688369870186,-0.011053760536015034,0.3217662274837494,-0.9465185403823853
9.324615001678467,-1.8960432246792032,2.003982625123619,37.52080750729172,-0.03515625,0.033203125,1.00146484375,-0.244140625,-0.79345703125,-0.30517578125,0.0,0.0,0.0,-0.0212872214615345,-0.01123547088354826,0.3217921555042267,-0.9465043544769287
9.345354080200195,-1.9272580429598076,1.962987402838379,37.52188667718058,-0.0341796875,0.03369140625,1.00341796875,-0.18310546875,-0.30517578125,0.06103515625,0.0,0.0,0.0,-0.021430224180221558,-0.010808932594954967,0.3218004107475281,-0.9465033411979675
9.364701509475708,-1.84939495363872,1.9670628913387609,37.529256451295026,-0.03466796875,0.0322265625,1.00439453125,0.0,-0.42724609375,-0.1220703125,0.0,0.0,0.0,-0.020799225196242332,-0.01105992030352354,0.32185423374176025,-0.9464961290359497
9.38461947441101,-1.8086620533062912,2.058614746973612,37.5347069422527,-0.0361328125,0.0322265625,1.001953125,-0.06103515625,-0.91552734375,-0.18310546875,0.0,0.0,0.0,-0.020720070227980614,-0.011929675936698914,0.32190269231796265,-0.9464708566665649
9.39987850189209,-1.948997681314312,1.8955751432776455,37.53263056474501,-0.033203125,0.0341796875,1.00341796875,0.06103515625,-1.03759765625,-0.244140625,0.0,0.0,0.0,-0.021421754732728004,-0.010188951157033443,0.3218849003314972,-0.9464817047119141
9.42482042312622,-1.842214290386921,1.8939233047155604,37.53742194244778,-0.03369140625,0.0322265625,1.00244140625,-0.1220703125,-0.48828125,-0.18310546875,0.0,0.0,0.0,-0.020535560324788094,-0.01047439593821764,0.3219147026538849,-0.946488082408905
9.44494104385376,-1.8105542291497962,1.9700835424991991,37.5428143767975,-0.03466796875,0.03173828125,1.0009765625,-0.18310546875,-0.30517578125,0.0,0.0,0.0,0.0,-0.020488202571868896,-0.011191541329026222,0.3219626545906067,-0.9464645385742188
9.46479845046997,-1.8661374548417138,1.8689243854664905,37.54442288634704,-0.03271484375,0.03271484375,1.00244140625,-0.06103515625,-0.54931640625,0.0,0.0,0.0,0.0,-0.020663663744926453,-0.010199406184256077,0.32197248935699463,-0.9464685916900635
9.48454999923706,-1.8533440836394568,1.9488713228146668,37.54707641483959,-0.0341796875,0.03271484375,1.0048828125,-0.06103515625,-0.8544921875,-0.18310546875,0.0,0.0,0.0,-0.020782526582479477,-0.01089530996978283,0.3220002353191376,-0.9464487433433533
9.504682302474976,-1.8426578257961488,1.979021271914984,37.54962066030542,-0.03466796875,0.03271484375,1.00341796875,-0.06103515625,-0.91552734375,-0.18310546875,0.0,0.0,0.0,-0.020779097452759743,-0.011173940263688564,0.32202276587486267,-0.9464379549026489
9.524446487426758,-1.8101474060073575,1.9205414056847463,37.55217856614959,-0.03369140625,0.0322265625,1.0029296875,-0.18310546875,-0.48828125,-0.06103515625,0.0,0.0,0.0,-0.020346749573946,-0.010781754739582539,0.32203590869903564,-0.9464473724365234
9.544631481170654,-1.9394044671816175,2.0317878983479174,37.551413584962546,-0.03564453125,0.0341796875,1.00244140625,-0.1220703125,-0.3662109375,-0.06103515625,0.0,0.0,0.0,-0.021726349368691444,-0.011337609961628914,0.32205167412757874,-0.9464049339294434
9.564767837524414,-1.917913917288407,1.9167354962131682,37.55644743438085,-0.03369140625,0.03369140625,1.0029296875,-0.06103515625,-0.48828125,-0.06103515625,0.0,0.0,0.0,-0.02122652903199196,-0.010446663945913315,0.3220807909965515,-0.9464165568351746
9.584576845169067,-1.8519780458054542,1.851541554028808,37.562099415919036,-0.03271484375,0.0322265625,1.00048828125,-0.06103515625,-1.0986328125,-0.30517578125,0.0,0.0,0.0,-0.02049950510263443,-0.010092428885400295,0.3221157193183899,-0.9464246034622192
9.604896068572998,-1.858573874109571,1.870620620258181,37.56497834065419,-0.033203125,0.0322265625,1.00244140625,-0.18310546875,-0.9765625,-0.18310546875,0.0,0.0,0.0,-0.020607788115739822,-0.010230974294245243,0.32214176654815674,-0.9464117884635925
9.620167255401611,-1.86973141500561,1.9726884058939127,37.56826707673955,-0.03369140625,0.03271484375,1.001953125,-0.1220703125,-0.42724609375,-0.244140625,0.0,0.0,0.0,-0.020986733958125114,-0.011042129248380661,0.3221788704395294,-0.9463817477226257
9.639806747436523,-1.928787791890479,1.9639154547918545,37.57036735990933,-0.03369140625,0.03369140625,1.00341796875,-0.06103515625,-0.18310546875,-0.1220703125,0.0,0.0,0.0,-0.021450035274028778,-0.010803230106830597,0.32220104336738586,-0.946366548538208
9.65968918800354,-1.899236765003007,1.9581497079153058,37.57544219046265,-0.03466796875,0.03271484375,1.00146484375,0.0,-0.67138671875,-0.1220703125,0.0,0.0,0.0,-0.021190278232097626,-0.010837753303349018,0.3222396671772003,-0.9463589191436768
9.686239004135132,-1.854454416266407,1.9580137444621404,37.580650209704785,-0.03466796875,0.033203125,1.00146484375,-0.1220703125,-0.91552734375,-0.3662109375,0.0,0.0,0.0,-0.020820558071136475,-0.010961616411805153,0.32227838039398193,-0.946352481842041
9.70474624633789,-1.9593735924372075,1.9518183359981156,37.577699567983345,-0.0341796875,0.0341796875,1.0009765625,-0.30517578125,-0.8544921875,-0.06103515625,0.0,0.0,0.0,-0.021669352427124977,-0.010615917854011059,0.32226336002349854,-0.9463425278663635
