time,orientation.x,orientation.y,orientation.z,orientation.w,orientation_covariance,angular_velocity.x,angular_velocity.y,angular_velocity.z,angular_velocity_covariance,linear_acceleration.x,linear_acceleration.y,linear_acceleration.z,linear_acceleration_covariance
0.1446218490600586,-0.021184606477618217,-0.01125897653400898,0.3089774250984192,-0.9507666826248169,[0. 0. 0. 0. 0. 0. 0. 0. 0.],-0.1220703125,-0.91552734375,-0.18310546875,[0. 0. 0. 0. 0. 0. 0. 0. 0.],-0.0341796875,0.033203125,1.0009765625,[0. 0. 0. 0. 0. 0. 0. 0. 0.]
0.16449284553527832,-0.022111503407359123,-0.010352554731070995,0.3089594542980194,-0.9507618546485901,[0. 0. 0. 0. 0. 0. 0. 0. 0.],-0.1220703125,-0.79345703125,-0.244140625,[0. 0. 0. 0. 0. 0. 0. 0. 0.],-0.03369140625,0.03564453125,1.001953125,[0. 0. 0. 0. 0. 0. 0. 0. 0.]
0.18554210662841797,-0.021515170112252235,-0.010764969512820244,0.3090115189552307,-0.9507540464401245,[0. 0. 0. 0. 0. 0. 0. 0. 0.],-0.1220703125,-0.6103515625,-0.18310546875,[0. 0. 0. 0. 0. 0. 0. 0. 0.],-0.0341796875,0.0341796875,1.00341796875,[0. 0. 0. 0. 0. 0. 0. 0. 0.]
0.20858478546142578,-0.021077049896121025,-0.01077244058251381,0.3090501129627228,-0.9507511258125305,[0. 0. 0. 0. 0. 0. 0. 0. 0.],-0.30517578125,-0.3662109375,-0.06103515625,[0. 0. 0. 0. 0. 0. 0. 0. 0.],-0.03369140625,0.03369140625,1.0029296875,[0. 0. 0. 0. 0. 0. 0. 0. 0.]
0.21970796585083008,-0.02147994376718998,-0.010579317808151245,0.30907824635505676,-0.9507352709770203,[0. 0. 0. 0. 0. 0. 0. 0. 0.],-0.06103515625,-0.8544921875,-0.18310546875,[0. 0. 0. 0. 0. 0. 0. 0. 0.],-0.0341796875,0.03466796875,1.001953125,[0. 0. 0. 0. 0. 0. 0. 0. 0.]
0.24443316459655762,-0.021334609016776085,-0.010916918516159058,0.3091095983982086,-0.9507244229316711,[0. 0. 0. 0. 0. 0. 0. 0. 0.],0.0,-1.0986328125,-0.30517578125,[0. 0. 0. 0. 0. 0. 0. 0. 0.],-0.0341796875,0.03369140625,1.00244140625,[0. 0. 0. 0. 0. 0. 0. 0. 0.]
0.2644312381744385,-0.020863767713308334,-0.011196905747056007,0.30913299322128296,-0.9507240056991577,[0. 0. 0. 0. 0. 0. 0. 0. 0.],-0.1220703125,-0.48828125,-0.1220703125,[0. 0. 0. 0. 0. 0. 0. 0. 0.],-0.0341796875,0.03271484375,1.00244140625,[0. 0. 0. 0. 0. 0. 0. 0. 0.]
0.28475451469421387,-0.021606994792819023,-0.010553018189966679,0.3091331124305725,-0.9507147669792175,[0. 0. 0. 0. 0. 0. 0. 0. 0.],-0.06103515625,-0.244140625,-0.244140625,[0. 0. 0. 0. 0. 0. 0. 0. 0.],-0.0341796875,0.0341796875,1.00341796875,[0. 0. 0. 0. 0. 0. 0. 0. 0.]
0.3154001235961914,-0.022001853212714195,-0.011172238737344742,0.3091667890548706,-0.9506876468658447,[0. 0. 0. 0. 0. 0. 0. 0. 0.],0.0,-0.48828125,0.0,[0. 0. 0. 0. 0. 0. 0. 0. 0.],-0.03466796875,0.03515625,1.00244140625,[0. 0. 0. 0. 0. 0. 0. 0. 0.]
0.3207850456237793,-0.0209413543343544,-0.010820860043168068,0.30922722816467285,-0.9506959915161133,[0. 0. 0. 0. 0. 0. 0. 0. 0.],-0.06103515625,-0.8544921875,-0.244140625,[0. 0. 0. 0. 0. 0. 0. 0. 0.],-0.03369140625,0.03369140625,1.0009765625,[0. 0. 0. 0. 0. 0. 0. 0. 0.]
0.34522461891174316,-0.020884472876787186,-0.010662421584129333,0.30924081802368164,-0.9506946206092834,[0. 0. 0. 0. 0. 0. 0. 0. 0.],-0.06103515625,-0.8544921875,-0.1220703125,[0. 0. 0. 0. 0. 0. 0. 0. 0.],-0.033203125,0.03271484375,1.0029296875,[0. 0. 0. 0. 0. 0. 0. 0. 0.]
0.3650052547454834,-0.020984210073947906,-0.010707604698836803,0.30927056074142456,-0.9506822228431702,[0. 0. 0. 0. 0. 0. 0. 0. 0.],-0.1220703125,-0.54931640625,-0.244140625,[0. 0. 0. 0. 0. 0. 0. 0. 0.],-0.033203125,0.03369140625,1.00146484375,[0. 0. 0. 0. 0. 0. 0. 0. 0.]
0.3845863342285156,-0.021110590547323227,-0.010733288712799549,0.3092981278896332,-0.9506701827049255,[0. 0. 0. 0. 0. 0. 0. 0. 0.],-0.06103515625,-0.3662109375,0.0,[0. 0. 0. 0. 0. 0. 0. 0. 0.],-0.03369140625,0.033203125,1.0009765625,[0. 0. 0. 0. 0. 0. 0. 0. 0.]
0.4044067859649658,-0.020803162828087807,-0.011339139193296432,0.3093418776988983,-0.9506557583808899,[0. 0. 0. 0. 0. 0. 0. 0. 0.],-0.1220703125,-0.732421875,-0.06103515625,[0. 0. 0. 0. 0. 0. 0. 0. 0.],-0.03466796875,0.03271484375,1.00390625,[0. 0. 0. 0. 0. 0. 0. 0. 0.]
0.42516112327575684,-0.02194276452064514,-0.011081497184932232,0.30936163663864136,-0.9506266713142395,[0. 0. 0. 0. 0. 0. 0. 0. 0.],0.06103515625,-1.03759765625,-0.3662109375,[0. 0. 0. 0. 0. 0. 0. 0. 0.],-0.03466796875,0.0341796875,1.00341796875,[0. 0. 0. 0. 0. 0. 0. 0. 0.]
0.4456813335418701,-0.021755805239081383,-0.011141115799546242,0.30939584970474243,-0.9506192207336426,[0. 0. 0. 0. 0. 0. 0. 0. 0.],-0.06103515625,-0.79345703125,-0.3662109375,[0. 0. 0. 0. 0. 0. 0. 0. 0.],-0.03515625,0.03466796875,1.00341796875,[0. 0. 0. 0. 0. 0. 0. 0. 0.]
0.4597454071044922,-0.02176409400999546,-0.011089233681559563,0.3094231188297272,-0.9506107568740845,[0. 0. 0. 0. 0. 0. 0. 0. 0.],-0.1220703125,-0.3662109375,0.06103515625,[0. 0. 0. 0. 0. 0. 0. 0. 0.],-0.0341796875,0.03515625,1.00244140625,[0. 0. 0. 0. 0. 0. 0. 0. 0.]
0.48439550399780273,-0.021475322544574738,-0.011411355808377266,0.30946218967437744,-0.950600802898407,[0. 0. 0. 0. 0. 0. 0. 0. 0.],-0.1220703125,-0.3662109375,0.0,[0. 0. 0. 0. 0. 0. 0. 0. 0.],-0.03466796875,0.0341796875,1.0029296875,[0. 0. 0. 0. 0. 0. 0. 0. 0.]
0.504601240158081,-0.02140885777771473,-0.011197789572179317,0.30949893593788147,-0.9505928754806519,[0. 0. 0. 0. 0. 0. 0. 0. 0.],-0.06103515625,-0.732421875,-0.18310546875,[0. 0. 0. 0. 0. 0. 0. 0. 0.],-0.03466796875,0.03369140625,1.0029296875,[0. 0. 0. 0. 0. 0. 0. 0. 0.]
0.5249943733215332,-0.02065138705074787,-0.010829578153789043,0.3095260262489319,-0.9506050944328308,[0. 0. 0. 0. 0. 0. 0. 0. 0.],-0.06103515625,-1.03759765625,-0.18310546875,[0. 0. 0. 0. 0. 0. 0. 0. 0.],-0.033203125,0.033203125,1.0029296875,[0. 0. 0. 0. 0. 0. 0. 0. 0.]
0.5445075035095215,-0.020917102694511414,-0.010763763450086117,0.3095396161079407,-0.9505955576896667,[0. 0. 0. 0. 0. 0. 0. 0. 0.],-0.1220703125,-1.03759765625,-0.18310546875,[0. 0. 0. 0. 0. 0. 0. 0. 0.],-0.0341796875,0.033203125,1.001953125,[0. 0. 0. 0. 0. 0. 0. 0. 0.]
0.5637619495391846,-0.020331861451268196,-0.010773551650345325,0.3095765709877014,-0.9505962133407593,[0. 0. 0. 0. 0. 0. 0. 0. 0.],0.06103515625,-1.03759765625,-0.18310546875,[0. 0. 0. 0. 0. 0. 0. 0. 0.],-0.033203125,0.03271484375,1.0009765625,[0. 0. 0. 0. 0. 0. 0. 0. 0.]
0.5889010429382324,-0.021016810089349747,-0.01072374265640974,0.3096071481704712,-0.9505718350410461,[0. 0. 0. 0. 0. 0. 0. 0. 0.],-0.1220703125,-0.67138671875,-0.3662109375,[0. 0. 0. 0. 0. 0. 0. 0. 0.],-0.033203125,0.033203125,1.0029296875,[0. 0. 0. 0. 0. 0. 0. 0. 0.]
0.6084814071655273,-0.021609464660286903,-0.010240702889859676,0.3096124827861786,-0.9505621194839478,[0. 0. 0. 0. 0. 0. 0. 0. 0.],-0.1220703125,-0.30517578125,0.0,[0. 0. 0. 0. 0. 0. 0. 0. 0.],-0.03271484375,0.0341796875,1.00439453125,[0. 0. 0. 0. 0. 0. 0. 0. 0.]
0.6267144680023193,-0.021499089896678925,-0.011018216609954834,0.3096558451652527,-0.9505418539047241,[0. 0. 0. 0. 0. 0. 0. 0. 0.],-0.06103515625,-0.79345703125,-0.1220703125,[0. 0. 0. 0. 0. 0. 0. 0. 0.],-0.0341796875,0.0341796875,1.0029296875,[0. 0. 0. 0. 0. 0. 0. 0. 0.]
0.6444070339202881,-0.021585574373602867,-0.011364060454070568,0.3096805512905121,-0.9505277276039124,[0. 0. 0. 0. 0. 0. 0. 0. 0.],-0.06103515625,-0.9765625,-0.244140625,[0. 0. 0. 0. 0. 0. 0. 0. 0.],-0.03515625,0.0341796875,1.00244140625,[0. 0. 0. 0. 0. 0. 0. 0. 0.]
0.6659116744995117,-0.021431950852274895,-0.01158113032579422,0.30971670150756836,-0.9505168795585632,[0. 0. 0. 0. 0. 0. 0. 0. 0.],0.0,-1.03759765625,-0.18310546875,[0. 0. 0. 0. 0. 0. 0. 0. 0.],-0.03564453125,0.03369140625,1.001953125,[0. 0. 0. 0. 0. 0. 0. 0. 0.]
0.6794209480285645,-0.020842622965574265,-0.011061123572289944,0.30973297357559204,-0.9505307674407959,[0. 0. 0. 0. 0. 0. 0. 0. 0.],-0.1220703125,-0.30517578125,-0.06103515625,[0. 0. 0. 0. 0. 0. 0. 0. 0.],-0.03466796875,0.033203125,1.00244140625,[0. 0. 0. 0. 0. 0. 0. 0. 0.]
0.7134637832641602,-0.020938105881214142,-0.010577413253486156,0.3097521662712097,-0.9505279660224915,[0. 0. 0. 0. 0. 0. 0. 0. 0.],-0.06103515625,-0.48828125,-0.06103515625,[0. 0. 0. 0. 0. 0. 0. 0. 0.],-0.033203125,0.033203125,1.00244140625,[0. 0. 0. 0. 0. 0. 0. 0. 0.]
0.7200620174407959,-0.021096570417284966,-0.011086518876254559,0.3097965717315674,-0.9505041837692261,[0. 0. 0. 0. 0. 0. 0. 0. 0.],-0.06103515625,-1.03759765625,-0.18310546875,[0. 0. 0. 0. 0. 0. 0. 0. 0.],-0.0341796875,0.03369140625,1.00341796875,[0. 0. 0. 0. 0. 0. 0. 0. 0.]
0.7826361656188965,-0.020975572988390923,-0.010785886086523533,0.309821218252182,-0.950502336025238,[0. 0. 0. 0. 0. 0. 0. 0. 0.],-0.06103515625,-0.9765625,-0.3662109375,[0. 0. 0. 0. 0. 0. 0. 0. 0.],-0.03369140625,0.033203125,1.0029296875,[0. 0. 0. 0. 0. 0. 0. 0. 0.]
0.7828741073608398,-0.021040860563516617,-0.011568183079361916,0.309861421585083,-0.9504784941673279,[0. 0. 0. 0. 0. 0. 0. 0. 0.],-0.18310546875,-0.54931640625,-0.244140625,[0. 0. 0. 0. 0. 0. 0. 0. 0.],-0.03466796875,0.03369140625,1.00390625,[0. 0. 0. 0. 0. 0. 0. 0. 0.]
0.7834970951080322,-0.021384287625551224,-0.010469526052474976,0.30987662076950073,-0.9504786133766174,[0. 0. 0. 0. 0. 0. 0. 0. 0.],-0.06103515625,-0.244140625,-0.18310546875,[0. 0. 0. 0. 0. 0. 0. 0. 0.],-0.033203125,0.03466796875,1.00341796875,[0. 0. 0. 0. 0. 0. 0. 0. 0.]
0.8037312030792236,-0.021229306235909462,-0.011383677832782269,0.3099243640899658,-0.9504560232162476,[0. 0. 0. 0. 0. 0. 0. 0. 0.],0.0,-0.6103515625,-0.06103515625,[0. 0. 0. 0. 0. 0. 0. 0. 0.],-0.03466796875,0.03369140625,1.00390625,[0. 0. 0. 0. 0. 0. 0. 0. 0.]
0.824554443359375,-0.021989235654473305,-0.011002099141478539,0.30993837118148804,-0.9504386782646179,[0. 0. 0. 0. 0. 0. 0. 0. 0.],0.0,-0.9765625,-0.244140625,[0. 0. 0. 0. 0. 0. 0. 0. 0.],-0.03466796875,0.03466796875,1.0029296875,[0. 0. 0. 0. 0. 0. 0. 0. 0.]
0.8446183204650879,-0.021399792283773422,-0.010628818534314632,0.30996236205101013,-0.9504485130310059,[0. 0. 0. 0. 0. 0. 0. 0. 0.],-0.244140625,-0.732421875,-0.30517578125,[0. 0. 0. 0. 0. 0. 0. 0. 0.],-0.0341796875,0.03369140625,1.00244140625,[0. 0. 0. 0. 0. 0. 0. 0. 0.]
0.8655142784118652,-0.021129822358489037,-0.01026285719126463,0.3099888861179352,-0.95045006275177,[0. 0. 0. 0. 0. 0. 0. 0. 0.],-0.1220703125,-0.48828125,-0.1220703125,[0. 0. 0. 0. 0. 0. 0. 0. 0.],-0.033203125,0.03369140625,1.0009765625,[0. 0. 0. 0. 0. 0. 0. 0. 0.]
0.886972188949585,-0.02110765501856804,-0.01024781446903944,0.3100002408027649,-0.9504469633102417,[0. 0. 0. 0. 0. 0. 0. 0. 0.],-0.1220703125,-0.3662109375,-0.1220703125,[0. 0. 0. 0. 0. 0. 0. 0. 0.],-0.03271484375,0.03466796875,1.00244140625,[0. 0. 0. 0. 0. 0. 0. 0. 0.]
0.9051902294158936,-0.02135239727795124,-0.010430378839373589,0.310031533241272,-0.9504292011260986,[0. 0. 0. 0. 0. 0. 0. 0. 0.],-0.06103515625,-0.79345703125,-0.18310546875,[0. 0. 0. 0. 0. 0. 0. 0. 0.],-0.033203125,0.0341796875,1.001953125,[0. 0. 0. 0. 0. 0. 0. 0. 0.]
0.9275321960449219,-0.020890995860099792,-0.010500387288630009,0.31007465720176697,-0.9504246711730957,[0. 0. 0. 0. 0. 0. 0. 0. 0.],0.06103515625,-0.6103515625,-0.18310546875,[0. 0. 0. 0. 0. 0. 0. 0. 0.],-0.033203125,0.033203125,1.00244140625,[0. 0. 0. 0. 0. 0. 0. 0. 0.]
0.945547342300415,-0.021566543728113174,-0.01066716481000185,0.3100809156894684,-0.9504056572914124,[0. 0. 0. 0. 0. 0. 0. 0. 0.],-0.1220703125,-0.91552734375,-0.18310546875,[0. 0. 0. 0. 0. 0. 0. 0. 0.],-0.03369140625,0.03466796875,1.00244140625,[0. 0. 0. 0. 0. 0. 0. 0. 0.]
0.964890718460083,-0.021625040099024773,-0.010647112503647804,0.31011542677879333,-0.9503933787345886,[0. 0. 0. 0. 0. 0. 0. 0. 0.],-0.244140625,-0.3662109375,-0.1220703125,[0. 0. 0. 0. 0. 0. 0. 0. 0.],-0.03369140625,0.0341796875,1.00146484375,[0. 0. 0. 0. 0. 0. 0. 0. 0.]
0.9847981929779053,-0.021747590973973274,-0.011243129149079323,0.3101519048213959,-0.9503718018531799,[0. 0. 0. 0. 0. 0. 0. 0. 0.],-0.06103515625,-0.42724609375,-0.1220703125,[0. 0. 0. 0. 0. 0. 0. 0. 0.],-0.03515625,0.0341796875,1.0029296875,[0. 0. 0. 0. 0. 0. 0. 0. 0.]
1.0090272426605225,-0.021303484216332436,-0.011411030776798725,0.31019657850265503,-0.9503652453422546,[0. 0. 0. 0. 0. 0. 0. 0. 0.],-0.1220703125,-0.67138671875,-0.18310546875,[0. 0. 0. 0. 0. 0. 0. 0. 0.],-0.03515625,0.0341796875,1.001953125,[0. 0. 0. 0. 0. 0. 0. 0. 0.]
1.0195097923278809,-0.02138231322169304,-0.010961171239614487,0.3102128207683563,-0.9503634572029114,[0. 0. 0. 0. 0. 0. 0. 0. 0.],-0.06103515625,-0.91552734375,-0.244140625,[0. 0. 0. 0. 0. 0. 0. 0. 0.],-0.03466796875,0.0341796875,1.001953125,[0. 0. 0. 0. 0. 0. 0. 0. 0.]
1.0401437282562256,-0.02087579481303692,-0.011586848646402359,0.3102602958679199,-0.9503518342971802,[0. 0. 0. 0. 0. 0. 0. 0. 0.],-0.06103515625,-0.91552734375,-0.244140625,[0. 0. 0. 0. 0. 0. 0. 0. 0.],-0.03515625,0.033203125,1.00244140625,[0. 0. 0. 0. 0. 0. 0. 0. 0.]
1.0663411617279053,-0.021850809454917908,-0.011060155928134918,0.3102593719959259,-0.9503363966941833,[0. 0. 0. 0. 0. 0. 0. 0. 0.],-0.1220703125,-0.6103515625,-0.18310546875,[0. 0. 0. 0. 0. 0. 0. 0. 0.],-0.03466796875,0.03466796875,1.00146484375,[0. 0. 0. 0. 0. 0. 0. 0. 0.]
1.0893306732177734,-0.021236862987279892,-0.010946930386126041,0.31030717492103577,-0.9503360986709595,[0. 0. 0. 0. 0. 0. 0. 0. 0.],-0.1220703125,-0.6103515625,-0.1220703125,[0. 0. 0. 0. 0. 0. 0. 0. 0.],-0.0341796875,0.03369140625,1.0048828125,[0. 0. 0. 0. 0. 0. 0. 0. 0.]
1.103503942489624,-0.02063106931746006,-0.010276290588080883,0.31032463908195496,-0.9503512382507324,[0. 0. 0. 0. 0. 0. 0. 0. 0.],-0.18310546875,-0.244140625,0.06103515625,[0. 0. 0. 0. 0. 0. 0. 0. 0.],-0.03271484375,0.033203125,1.001953125,[0. 0. 0. 0. 0. 0. 0. 0. 0.]
1.1196744441986084,-0.021306229755282402,-0.011371662840247154,0.3103466033935547,-0.9503166079521179,[0. 0. 0. 0. 0. 0. 0. 0. 0.],-0.06103515625,-0.79345703125,-0.1220703125,[0. 0. 0. 0. 0. 0. 0. 0. 0.],-0.0341796875,0.033203125,1.00048828125,[0. 0. 0. 0. 0. 0. 0. 0. 0.]
1.1490306854248047,-0.021708162501454353,-0.010452494025230408,0.3103637993335724,-0.9503125548362732,[0. 0. 0. 0. 0. 0. 0. 0. 0.],0.06103515625,-0.91552734375,-0.18310546875,[0. 0. 0. 0. 0. 0. 0. 0. 0.],-0.0341796875,0.03466796875,1.00244140625,[0. 0. 0. 0. 0. 0. 0. 0. 0.]
1.1646685600280762,-0.021751541644334793,-0.010870079509913921,0.31038179993629456,-0.950300931930542,[0. 0. 0. 0. 0. 0. 0. 0. 0.],-0.1220703125,-0.48828125,-0.1220703125,[0. 0. 0. 0. 0. 0. 0. 0. 0.],-0.03515625,0.03466796875,1.00341796875,[0. 0. 0. 0. 0. 0. 0. 0. 0.]
1.179281234741211,-0.021877024322748184,-0.010489133186638355,0.3104217052459717,-0.950289249420166,[0. 0. 0. 0. 0. 0. 0. 0. 0.],-0.1220703125,-0.30517578125,-0.06103515625,[0. 0. 0. 0. 0. 0. 0. 0. 0.],-0.03369140625,0.03564453125,1.00146484375,[0. 0. 0. 0. 0. 0. 0. 0. 0.]
1.199747085571289,-0.02275468036532402,-0.010462800040841103,0.3104431927204132,-0.9502619504928589,[0. 0. 0. 0. 0. 0. 0. 0. 0.],-0.1220703125,-0.54931640625,-0.18310546875,[0. 0. 0. 0. 0. 0. 0. 0. 0.],-0.03369140625,0.0361328125,1.00146484375,[0. 0. 0. 0. 0. 0. 0. 0. 0.]
1.2198026180267334,-0.02102520875632763,-0.010972179472446442,0.31050989031791687,-0.9502743482589722,[0. 0. 0. 0. 0. 0. 0. 0. 0.],-0.06103515625,-1.15966796875,-0.244140625,[0. 0. 0. 0. 0. 0. 0. 0. 0.],-0.0341796875,0.033203125,1.00341796875,[0. 0. 0. 0. 0. 0. 0. 0. 0.]
1.2525954246520996,-0.021472861990332603,-0.01162655744701624,0.3105575144290924,-0.9502409100532532,[0. 0. 0. 0. 0. 0. 0. 0. 0.],-0.1220703125,-0.6103515625,-0.1220703125,[0. 0. 0. 0. 0. 0. 0. 0. 0.],-0.03564453125,0.03369140625,1.00390625,[0. 0. 0. 0. 0. 0. 0. 0. 0.]
1.2643640041351318,-0.02237081527709961,-0.011769605800509453,0.3105470538139343,-0.950221836566925,[0. 0. 0. 0. 0. 0. 0. 0. 0.],-0.1220703125,-0.48828125,-0.06103515625,[0. 0. 0. 0. 0. 0. 0. 0. 0.],-0.03662109375,0.03564453125,1.00390625,[0. 0. 0. 0. 0. 0. 0. 0. 0.]
1.2915494441986084,-0.021477870643138885,-0.011323186568915844,0.3105769157409668,-0.9502381086349487,[0. 0. 0. 0. 0. 0. 0. 0. 0.],0.06103515625,-0.1220703125,-0.06103515625,[0. 0. 0. 0. 0. 0. 0. 0. 0.],-0.0341796875,0.033203125,1.00341796875,[0. 0. 0. 0. 0. 0. 0. 0. 0.]
1.299682378768921,-0.02050682157278061,-0.01096816174685955,0.31061846017837524,-0.9502501487731934,[0. 0. 0. 0. 0. 0. 0. 0. 0.],-0.06103515625,-0.54931640625,-0.1220703125,[0. 0. 0. 0. 0. 0. 0. 0. 0.],-0.03369140625,0.03173828125,1.001953125,[0. 0. 0. 0. 0. 0. 0. 0. 0.]
1.325275182723999,-0.02150600217282772,-0.010769004002213478,0.31062227487564087,-0.9502291083335876,[0. 0. 0. 0. 0. 0. 0. 0. 0.],0.0,-1.0986328125,-0.1220703125,[0. 0. 0. 0. 0. 0. 0. 0. 0.],-0.0341796875,0.0341796875,1.0009765625,[0. 0. 0. 0. 0. 0. 0. 0. 0.]
1.3444817066192627,-0.021484600380063057,-0.011288778856396675,0.3106415569782257,-0.9502172470092773,[0. 0. 0. 0. 0. 0. 0. 0. 0.],-0.244140625,-0.8544921875,-0.1220703125,[0. 0. 0. 0. 0. 0. 0. 0. 0.],-0.03466796875,0.0341796875,1.0029296875,[0. 0. 0. 0. 0. 0. 0. 0. 0.]
1.364654302597046,-0.021644657477736473,-0.011276849545538425,0.31065672636032104,-0.9502087831497192,[0. 0. 0. 0. 0. 0. 0. 0. 0.],-0.06103515625,-0.3662109375,-0.06103515625,[0. 0. 0. 0. 0. 0. 0. 0. 0.],-0.03515625,0.0341796875,1.0029296875,[0. 0. 0. 0. 0. 0. 0. 0. 0.]
1.38472318649292,-0.021305128931999207,-0.010369344614446163,0.31068548560142517,-0.9502174854278564,[0. 0. 0. 0. 0. 0. 0. 0. 0.],-0.1220703125,-0.30517578125,-0.06103515625,[0. 0. 0. 0. 0. 0. 0. 0. 0.],-0.033203125,0.0341796875,1.001953125,[0. 0. 0. 0. 0. 0. 0. 0. 0.]
1.4025461673736572,-0.02112613432109356,-0.010266995057463646,0.3107178211212158,-0.9502119421958923,[0. 0. 0. 0. 0. 0. 0. 0. 0.],0.06103515625,-0.8544921875,-0.18310546875,[0. 0. 0. 0. 0. 0. 0. 0. 0.],-0.03271484375,0.03369140625,1.001953125,[0. 0. 0. 0. 0. 0. 0. 0. 0.]
1.4244401454925537,-0.020948313176631927,-0.01095550786703825,0.3107548654079437,-0.9501960873603821,[0. 0. 0. 0. 0. 0. 0. 0. 0.],-0.1220703125,-0.9765625,-0.244140625,[0. 0. 0. 0. 0. 0. 0. 0. 0.],-0.0341796875,0.033203125,1.00244140625,[0. 0. 0. 0. 0. 0. 0. 0. 0.]
1.4465322494506836,-0.021285608410835266,-0.010923532769083977,0.3107764422893524,-0.9501819014549255,[0. 0. 0. 0. 0. 0. 0. 0. 0.],-0.1220703125,-0.79345703125,-0.18310546875,[0. 0. 0. 0. 0. 0. 0. 0. 0.],-0.0341796875,0.03369140625,1.00341796875,[0. 0. 0. 0. 0. 0. 0. 0. 0.]
1.4645025730133057,-0.021412428468465805,-0.010076668113470078,0.3107893466949463,-0.950184166431427,[0. 0. 0. 0. 0. 0. 0. 0. 0.],0.0,-0.67138671875,-0.1220703125,[0. 0. 0. 0. 0. 0. 0. 0. 0.],-0.03271484375,0.03466796875,1.00390625,[0. 0. 0. 0. 0. 0. 0. 0. 0.]
1.4798774719238281,-0.021907048299908638,-0.010708396323025227,0.31081828474998474,-0.9501565098762512,[0. 0. 0. 0. 0. 0. 0. 0. 0.],-0.18310546875,-0.30517578125,-0.1220703125,[0. 0. 0. 0. 0. 0. 0. 0. 0.],-0.0341796875,0.03515625,1.00244140625,[0. 0. 0. 0. 0. 0. 0. 0. 0.]
1.5047392845153809,-0.02129804715514183,-0.011392218060791492,0.3108776807785034,-0.9501429796218872,[0. 0. 0. 0. 0. 0. 0. 0. 0.],0.0,-0.48828125,-0.1220703125,[0. 0. 0. 0. 0. 0. 0. 0. 0.],-0.03515625,0.0341796875,1.00048828125,[0. 0. 0. 0. 0. 0. 0. 0. 0.]
1.519845724105835,-0.02159837633371353,-0.011463677510619164,0.3109002411365509,-0.9501280188560486,[0. 0. 0. 0. 0. 0. 0. 0. 0.],0.0,-0.8544921875,-0.18310546875,[0. 0. 0. 0. 0. 0. 0. 0. 0.],-0.03564453125,0.0341796875,1.0029296875,[0. 0. 0. 0. 0. 0. 0. 0. 0.]
1.5394814014434814,-0.021206187084317207,-0.01087498664855957,0.31092286109924316,-0.9501363635063171,[0. 0. 0. 0. 0. 0. 0. 0. 0.],-0.06103515625,-0.9765625,-0.244140625,[0. 0. 0. 0. 0. 0. 0. 0. 0.],-0.03369140625,0.033203125,1.00146484375,[0. 0. 0. 0. 0. 0. 0. 0. 0.]
1.5598080158233643,-0.021937500685453415,-0.010756279341876507,0.3109259307384491,-0.9501201510429382,[0. 0. 0. 0. 0. 0. 0. 0. 0.],-0.18310546875,-0.48828125,-0.06103515625,[0. 0. 0. 0. 0. 0. 0. 0. 0.],-0.03466796875,0.03466796875,1.0029296875,[0. 0. 0. 0. 0. 0. 0. 0. 0.]
1.5845565795898438,-0.022316161543130875,-0.011095606721937656,0.31094640493392944,-0.9501006007194519,[0. 0. 0. 0. 0. 0. 0. 0. 0.],0.0,-0.3662109375,0.06103515625,[0. 0. 0. 0. 0. 0. 0. 0. 0.],-0.03515625,0.03564453125,1.00341796875,[0. 0. 0. 0. 0. 0. 0. 0. 0.]
1.6055676937103271,-0.022171564400196075,-0.011076655238866806,0.3109777569770813,-0.9500940442085266,[0. 0. 0. 0. 0. 0. 0. 0. 0.],-0.06103515625,-0.48828125,0.06103515625,[0. 0. 0. 0. 0. 0. 0. 0. 0.],-0.0341796875,0.03515625,1.00146484375,[0. 0. 0. 0. 0. 0. 0. 0. 0.]
1.6247358322143555,-0.020856862887740135,-0.01080632396042347,0.3110257089138031,-0.9501112103462219,[0. 0. 0. 0. 0. 0. 0. 0. 0.],0.0,-0.9765625,-0.30517578125,[0. 0. 0. 0. 0. 0. 0. 0. 0.],-0.03369140625,0.03271484375,1.001953125,[0. 0. 0. 0. 0. 0. 0. 0. 0.]
1.6448886394500732,-0.020910028368234634,-0.010792017914354801,0.3110489249229431,-0.9501026272773743,[0. 0. 0. 0. 0. 0. 0. 0. 0.],-0.06103515625,-0.8544921875,-0.244140625,[0. 0. 0. 0. 0. 0. 0. 0. 0.],-0.03369140625,0.033203125,1.00244140625,[0. 0. 0. 0. 0. 0. 0. 0. 0.]
1.6645355224609375,-0.02098076045513153,-0.010607636533677578,0.31107327342033386,-0.9500951170921326,[0. 0. 0. 0. 0. 0. 0. 0. 0.],-0.1220703125,-0.54931640625,-0.18310546875,[0. 0. 0. 0. 0. 0. 0. 0. 0.],-0.03369140625,0.0341796875,1.00341796875,[0. 0. 0. 0. 0. 0. 0. 0. 0.]
1.6856679916381836,-0.021309487521648407,-0.011272567324340343,0.3111104667186737,-0.9500679969787598,[0. 0. 0. 0. 0. 0. 0. 0. 0.],-0.18310546875,-0.30517578125,-0.06103515625,[0. 0. 0. 0. 0. 0. 0. 0. 0.],-0.03466796875,0.03369140625,1.00390625,[0. 0. 0. 0. 0. 0. 0. 0. 0.]
1.7044243812561035,-0.021294042468070984,-0.011081529781222343,0.3111419975757599,-0.950060248374939,[0. 0. 0. 0. 0. 0. 0. 0. 0.],0.06103515625,-0.79345703125,-0.1220703125,[0. 0. 0. 0. 0. 0. 0. 0. 0.],-0.03369140625,0.03369140625,1.00341796875,[0. 0. 0. 0. 0. 0. 0. 0. 0.]
1.7246510982513428,-0.022172944620251656,-0.011339950375258923,0.3111606240272522,-0.9500309824943542,[0. 0. 0. 0. 0. 0. 0. 0. 0.],0.1220703125,-1.03759765625,-0.244140625,[0. 0. 0. 0. 0. 0. 0. 0. 0.],-0.03515625,0.03564453125,1.00390625,[0. 0. 0. 0. 0. 0. 0. 0. 0.]
1.7447121143341064,-0.021598821505904198,-0.01075662113726139,0.31118515133857727,-0.9500430226325989,[0. 0. 0. 0. 0. 0. 0. 0. 0.],-0.1220703125,-0.8544921875,-0.18310546875,[0. 0. 0. 0. 0. 0. 0. 0. 0.],-0.0341796875,0.0341796875,1.001953125,[0. 0. 0. 0. 0. 0. 0. 0. 0.]
1.7649657726287842,-0.021901428699493408,-0.010935267433524132,0.31121668219566345,-0.9500237107276917,[0. 0. 0. 0. 0. 0. 0. 0. 0.],-0.06103515625,-0.42724609375,-0.244140625,[0. 0. 0. 0. 0. 0. 0. 0. 0.],-0.03466796875,0.03466796875,1.0029296875,[0. 0. 0. 0. 0. 0. 0. 0. 0.]
1.7848484516143799,-0.021273773163557053,-0.010763435624539852,0.31125858426094055,-0.9500260949134827,[0. 0. 0. 0. 0. 0. 0. 0. 0.],0.0,-0.30517578125,-0.06103515625,[0. 0. 0. 0. 0. 0. 0. 0. 0.],-0.03369140625,0.03369140625,1.00341796875,[0. 0. 0. 0. 0. 0. 0. 0. 0.]
1.799530029296875,-0.021923596039414406,-0.01061942894011736,0.3112718462944031,-0.950008749961853,[0. 0. 0. 0. 0. 0. 0. 0. 0.],0.0,-0.79345703125,-0.1220703125,[0. 0. 0. 0. 0. 0. 0. 0. 0.],-0.03466796875,0.03515625,1.0029296875,[0. 0. 0. 0. 0. 0. 0. 0. 0.]
1.8247220516204834,-0.021349573507905006,-0.01154953520745039,0.3113209903240204,-0.9499948620796204,[0. 0. 0. 0. 0. 0. 0. 0. 0.],-0.06103515625,-0.91552734375,-0.244140625,[0. 0. 0. 0. 0. 0. 0. 0. 0.],-0.03515625,0.0341796875,1.0029296875,[0. 0. 0. 0. 0. 0. 0. 0. 0.]
1.8451647758483887,-0.020708533003926277,-0.010393488220870495,0.31133517622947693,-0.9500176906585693,[0. 0. 0. 0. 0. 0. 0. 0. 0.],-0.1220703125,-0.67138671875,-0.18310546875,[0. 0. 0. 0. 0. 0. 0. 0. 0.],-0.03369140625,0.033203125,1.001953125,[0. 0. 0. 0. 0. 0. 0. 0. 0.]
1.8657920360565186,-0.02117093652486801,-0.011511534452438354,0.31136825680732727,-0.9499838352203369,[0. 0. 0. 0. 0. 0. 0. 0. 0.],-0.244140625,-0.244140625,-0.1220703125,[0. 0. 0. 0. 0. 0. 0. 0. 0.],-0.03515625,0.033203125,1.0009765625,[0. 0. 0. 0. 0. 0. 0. 0. 0.]
1.8804666996002197,-0.02119525894522667,-0.011447660624980927,0.31140339374542236,-0.9499724507331848,[0. 0. 0. 0. 0. 0. 0. 0. 0.],0.06103515625,-0.30517578125,-0.1220703125,[0. 0. 0. 0. 0. 0. 0. 0. 0.],-0.03466796875,0.033203125,1.00341796875,[0. 0. 0. 0. 0. 0. 0. 0. 0.]
1.9105510711669922,-0.021440232172608376,-0.011466597206890583,0.31142157316207886,-0.9499608278274536,[0. 0. 0. 0. 0. 0. 0. 0. 0.],-0.18310546875,-0.6103515625,-0.1220703125,[0. 0. 0. 0. 0. 0. 0. 0. 0.],-0.03515625,0.0341796875,1.00439453125,[0. 0. 0. 0. 0. 0. 0. 0. 0.]
1.9273619651794434,-0.021610045805573463,-0.010981360450387001,0.3114311099052429,-0.9499595165252686,[0. 0. 0. 0. 0. 0. 0. 0. 0.],0.0,-0.48828125,-0.1220703125,[0. 0. 0. 0. 0. 0. 0. 0. 0.],-0.0341796875,0.03466796875,1.00390625,[0. 0. 0. 0. 0. 0. 0. 0. 0.]
1.940077781677246,-0.02158159203827381,-0.010478776879608631,0.311445415019989,-0.949961245059967,[0. 0. 0. 0. 0. 0. 0. 0. 0.],-0.06103515625,-0.9765625,-0.18310546875,[0. 0. 0. 0. 0. 0. 0. 0. 0.],-0.033203125,0.0341796875,1.0009765625,[0. 0. 0. 0. 0. 0. 0. 0. 0.]
1.9727623462677002,-0.02110987715423107,-0.01070067286491394,0.31149348616600037,-0.9499536156654358,[0. 0. 0. 0. 0. 0. 0. 0. 0.],-0.1220703125,-0.9765625,-0.18310546875,[0. 0. 0. 0. 0. 0. 0. 0. 0.],-0.03369140625,0.03369140625,1.00244140625,[0. 0. 0. 0. 0. 0. 0. 0. 0.]
1.9795715808868408,-0.021449487656354904,-0.010362168774008751,0.31149423122406006,-0.9499495029449463,[0. 0. 0. 0. 0. 0. 0. 0. 0.],0.0,-0.30517578125,0.0,[0. 0. 0. 0. 0. 0. 0. 0. 0.],-0.033203125,0.0341796875,1.0009765625,[0. 0. 0. 0. 0. 0. 0. 0. 0.]
2.0047049522399902,-0.02233232371509075,-0.010317948646843433,0.3115078806877136,-0.9499250650405884,[0. 0. 0. 0. 0. 0. 0. 0. 0.],-0.06103515625,-0.6103515625,-0.1220703125,[0. 0. 0. 0. 0. 0. 0. 0. 0.],-0.03369140625,0.0361328125,1.001953125,[0. 0. 0. 0. 0. 0. 0. 0. 0.]
2.0249340534210205,-0.02214110642671585,-0.01089323591440916,0.3115503489971161,-0.9499092698097229,[0. 0. 0. 0. 0. 0. 0. 0. 0.],-0.06103515625,-0.91552734375,-0.18310546875,[0. 0. 0. 0. 0. 0. 0. 0. 0.],-0.03466796875,0.03564453125,1.00341796875,[0. 0. 0. 0. 0. 0. 0. 0. 0.]
2.044585943222046,-0.021765222772955894,-0.01171173620969057,0.3115987777709961,-0.9498922824859619,[0. 0. 0. 0. 0. 0. 0. 0. 0.],-0.18310546875,-0.91552734375,-0.244140625,[0. 0. 0. 0. 0. 0. 0. 0. 0.],-0.03564453125,0.0341796875,1.001953125,[0. 0. 0. 0. 0. 0. 0. 0. 0.]
2.064657211303711,-0.021597877144813538,-0.010945258662104607,0.3116043508052826,-0.9499034285545349,[0. 0. 0. 0. 0. 0. 0. 0. 0.],-0.244140625,-0.48828125,-0.06103515625,[0. 0. 0. 0. 0. 0. 0. 0. 0.],-0.03369140625,0.03466796875,1.00244140625,[0. 0. 0. 0. 0. 0. 0. 0. 0.]
2.084429979324341,-0.0214960016310215,-0.010824018158018589,0.3116227090358734,-0.9499011039733887,[0. 0. 0. 0. 0. 0. 0. 0. 0.],-0.1220703125,-0.30517578125,-0.06103515625,[0. 0. 0. 0. 0. 0. 0. 0. 0.],-0.03466796875,0.03466796875,1.00244140625,[0. 0. 0. 0. 0. 0. 0. 0. 0.]
2.101335048675537,-0.021412288770079613,-0.010969376191496849,0.31164565682411194,-0.9498937726020813,[0. 0. 0. 0. 0. 0. 0. 0. 0.],0.0,-0.6103515625,-0.06103515625,[0. 0. 0. 0. 0. 0. 0. 0. 0.],-0.0341796875,0.0341796875,1.001953125,[0. 0. 0. 0. 0. 0. 0. 0. 0.]
2.119657039642334,-0.02143288031220436,-0.010937410406768322,0.31167253851890564,-0.9498848915100098,[0. 0. 0. 0. 0. 0. 0. 0. 0.],-0.06103515625,-0.9765625,-0.30517578125,[0. 0. 0. 0. 0. 0. 0. 0. 0.],-0.03515625,0.033203125,1.00390625,[0. 0. 0. 0. 0. 0. 0. 0. 0.]
2.1447219848632812,-0.02163863740861416,-0.010982834734022617,0.3116947114467621,-0.9498723745346069,[0. 0. 0. 0. 0. 0. 0. 0. 0.],-0.1220703125,-0.79345703125,-0.18310546875,[0. 0. 0. 0. 0. 0. 0. 0. 0.],-0.03466796875,0.0341796875,1.00244140625,[0. 0. 0. 0. 0. 0. 0. 0. 0.]
2.1595802307128906,-0.021659716963768005,-0.011053245514631271,0.3117239773273468,-0.9498615264892578,[0. 0. 0. 0. 0. 0. 0. 0. 0.],-0.1220703125,-0.42724609375,-0.18310546875,[0. 0. 0. 0. 0. 0. 0. 0. 0.],-0.03466796875,0.0341796875,1.0029296875,[0. 0. 0. 0. 0. 0. 0. 0. 0.]
2.1798713207244873,-0.021285781636834145,-0.010726643726229668,0.3117510676383972,-0.9498648643493652,[0. 0. 0. 0. 0. 0. 0. 0. 0.],-0.1220703125,-0.244140625,0.0,[0. 0. 0. 0. 0. 0. 0. 0. 0.],-0.0341796875,0.03369140625,1.00341796875,[0. 0. 0. 0. 0. 0. 0. 0. 0.]
2.201869487762451,-0.021420566365122795,-0.011542719788849354,0.3117961287498474,-0.9498375058174133,[0. 0. 0. 0. 0. 0. 0. 0. 0.],0.0,-0.732421875,-0.1220703125,[0. 0. 0. 0. 0. 0. 0. 0. 0.],-0.03466796875,0.03369140625,1.00390625,[0. 0. 0. 0. 0. 0. 0. 0. 0.]
2.2248480319976807,-0.02168215811252594,-0.010537796653807163,0.3118021488189697,-0.9498412609100342,[0. 0. 0. 0. 0. 0. 0. 0. 0.],-0.1220703125,-1.03759765625,-0.18310546875,[0. 0. 0. 0. 0. 0. 0. 0. 0.],-0.03369140625,0.03466796875,1.0029296875,[0. 0. 0. 0. 0. 0. 0. 0. 0.]
2.2399234771728516,-0.021904127672314644,-0.010896469466388226,0.31182238459587097,-0.9498253464698792,[0. 0. 0. 0. 0. 0. 0. 0. 0.],-0.244140625,-0.79345703125,-0.18310546875,[0. 0. 0. 0. 0. 0. 0. 0. 0.],-0.03466796875,0.03515625,1.00244140625,[0. 0. 0. 0. 0. 0. 0. 0. 0.]
2.2648186683654785,-0.02168898470699787,-0.010964375920593739,0.31185320019721985,-0.9498195052146912,[0. 0. 0. 0. 0. 0. 0. 0. 0.],-0.244140625,-0.244140625,-0.1220703125,[0. 0. 0. 0. 0. 0. 0. 0. 0.],-0.0341796875,0.0341796875,1.0009765625,[0. 0. 0. 0. 0. 0. 0. 0. 0.]
2.2801437377929688,-0.021560607478022575,-0.010974619537591934,0.3119000494480133,-0.9498069286346436,[0. 0. 0. 0. 0. 0. 0. 0. 0.],0.1220703125,-0.42724609375,-0.18310546875,[0. 0. 0. 0. 0. 0. 0. 0. 0.],-0.03466796875,0.0341796875,1.001953125,[0. 0. 0. 0. 0. 0. 0. 0. 0.]
2.304633140563965,-0.022223766893148422,-0.01058164518326521,0.3119206428527832,-0.94978928565979,[0. 0. 0. 0. 0. 0. 0. 0. 0.],0.0,-0.91552734375,-0.244140625,[0. 0. 0. 0. 0. 0. 0. 0. 0.],-0.03466796875,0.03515625,1.00390625,[0. 0. 0. 0. 0. 0. 0. 0. 0.]
2.322178363800049,-0.02127826400101185,-0.011119596660137177,0.3119764029979706,-0.9497865438461304,[0. 0. 0. 0. 0. 0. 0. 0. 0.],0.0,-0.8544921875,-0.18310546875,[0. 0. 0. 0. 0. 0. 0. 0. 0.],-0.03466796875,0.03369140625,1.00390625,[0. 0. 0. 0. 0. 0. 0. 0. 0.]
2.34501051902771,-0.020838819444179535,-0.01104628574103117,0.3119940161705017,-0.9497913718223572,[0. 0. 0. 0. 0. 0. 0. 0. 0.],-0.30517578125,-0.54931640625,-0.06103515625,[0. 0. 0. 0. 0. 0. 0. 0. 0.],-0.0341796875,0.033203125,1.0029296875,[0. 0. 0. 0. 0. 0. 0. 0. 0.]
2.3646605014801025,-0.02149922400712967,-0.010641868226230145,0.31200212240219116,-0.9497784972190857,[0. 0. 0. 0. 0. 0. 0. 0. 0.],-0.1220703125,-0.30517578125,0.0,[0. 0. 0. 0. 0. 0. 0. 0. 0.],-0.03369140625,0.0341796875,1.001953125,[0. 0. 0. 0. 0. 0. 0. 0. 0.]
2.3844752311706543,-0.02115870639681816,-0.011262603104114532,0.31203654408454895,-0.9497677683830261,[0. 0. 0. 0. 0. 0. 0. 0. 0.],-0.06103515625,-0.18310546875,0.06103515625,[0. 0. 0. 0. 0. 0. 0. 0. 0.],-0.03466796875,0.03369140625,1.00244140625,[0. 0. 0. 0. 0. 0. 0. 0. 0.]
2.4052915573120117,-0.021000759676098824,-0.011540212668478489,0.31208038330078125,-0.94975346326828,[0. 0. 0. 0. 0. 0. 0. 0. 0.],0.1220703125,-0.48828125,-0.06103515625,[0. 0. 0. 0. 0. 0. 0. 0. 0.],-0.03466796875,0.0322265625,1.0029296875,[0. 0. 0. 0. 0. 0. 0. 0. 0.]
2.424492359161377,-0.02036762237548828,-0.01115962490439415,0.3121258616447449,-0.9497568607330322,[0. 0. 0. 0. 0. 0. 0. 0. 0.],-0.1220703125,-0.9765625,-0.3662109375,[0. 0. 0. 0. 0. 0. 0. 0. 0.],-0.0341796875,0.03173828125,1.00244140625,[0. 0. 0. 0. 0. 0. 0. 0. 0.]
2.4485867023468018,-0.021165309473872185,-0.010758339427411556,0.31212639808654785,-0.949743926525116,[0. 0. 0. 0. 0. 0. 0. 0. 0.],-0.1220703125,-0.91552734375,-0.1220703125,[0. 0. 0. 0. 0. 0. 0. 0. 0.],-0.03369140625,0.0341796875,1.00146484375,[0. 0. 0. 0. 0. 0. 0. 0. 0.]
2.460078239440918,-0.021175185218453407,-0.010692494921386242,0.3121406137943268,-0.9497396945953369,[0. 0. 0. 0. 0. 0. 0. 0. 0.],-0.18310546875,-0.42724609375,-0.1220703125,[0. 0. 0. 0. 0. 0. 0. 0. 0.],-0.0341796875,0.03369140625,1.0009765625,[0. 0. 0. 0. 0. 0. 0. 0. 0.]
2.49049711227417,-0.02137153036892414,-0.011062778532505035,0.31217706203460693,-0.9497191905975342,[0. 0. 0. 0. 0. 0. 0. 0. 0.],-0.18310546875,-0.48828125,-0.06103515625,[0. 0. 0. 0. 0. 0. 0. 0. 0.],-0.03466796875,0.03369140625,1.001953125,[0. 0. 0. 0. 0. 0. 0. 0. 0.]
2.499549388885498,-0.021754076704382896,-0.010695540346205235,0.3121851086616516,-0.9497119188308716,[0. 0. 0. 0. 0. 0. 0. 0. 0.],0.06103515625,-0.67138671875,-0.1220703125,[0. 0. 0. 0. 0. 0. 0. 0. 0.],-0.0341796875,0.03466796875,1.00390625,[0. 0. 0. 0. 0. 0. 0. 0. 0.]
2.5248281955718994,-0.02135465480387211,-0.010694414377212524,0.31221282482147217,-0.9497119188308716,[0. 0. 0. 0. 0. 0. 0. 0. 0.],-0.06103515625,-0.91552734375,-0.30517578125,[0. 0. 0. 0. 0. 0. 0. 0. 0.],-0.03369140625,0.0341796875,1.00341796875,[0. 0. 0. 0. 0. 0. 0. 0. 0.]
2.5444304943084717,-0.02157571166753769,-0.011458202265202999,0.31224408745765686,-0.9496877193450928,[0. 0. 0. 0. 0. 0. 0. 0. 0.],-0.18310546875,-0.732421875,-0.244140625,[0. 0. 0. 0. 0. 0. 0. 0. 0.],-0.03515625,0.0341796875,1.0048828125,[0. 0. 0. 0. 0. 0. 0. 0. 0.]
2.5647222995758057,-0.021433476358652115,-0.010623770765960217,0.31227073073387146,-0.9496919512748718,[0. 0. 0. 0. 0. 0. 0. 0. 0.],-0.244140625,-0.42724609375,-0.1220703125,[0. 0. 0. 0. 0. 0. 0. 0. 0.],-0.0341796875,0.0341796875,1.00244140625,[0. 0. 0. 0. 0. 0. 0. 0. 0.]
2.586583375930786,-0.021566301584243774,-0.010095578618347645,0.3122987449169159,-0.9496855735778809,[0. 0. 0. 0. 0. 0. 0. 0. 0.],-0.06103515625,-0.30517578125,-0.1220703125,[0. 0. 0. 0. 0. 0. 0. 0. 0.],-0.03271484375,0.03466796875,1.00146484375,[0. 0. 0. 0. 0. 0. 0. 0. 0.]
2.5997698307037354,-0.020838672295212746,-0.010039699263870716,0.3123331069946289,-0.949691116809845,[0. 0. 0. 0. 0. 0. 0. 0. 0.],0.0,-0.8544921875,-0.18310546875,[0. 0. 0. 0. 0. 0. 0. 0. 0.],-0.03271484375,0.033203125,1.001953125,[0. 0. 0. 0. 0. 0. 0. 0. 0.]
2.624551773071289,-0.02069307677447796,-0.011162840761244297,0.31239235401153564,-0.9496622681617737,[0. 0. 0. 0. 0. 0. 0. 0. 0.],0.0,-0.9765625,-0.3662109375,[0. 0. 0. 0. 0. 0. 0. 0. 0.],-0.0341796875,0.0322265625,1.0029296875,[0. 0. 0. 0. 0. 0. 0. 0. 0.]
2.6400306224823,-0.021011922508478165,-0.011462702415883541,0.31241685152053833,-0.9496435523033142,[0. 0. 0. 0. 0. 0. 0. 0. 0.],-0.06103515625,-0.67138671875,-0.18310546875,[0. 0. 0. 0. 0. 0. 0. 0. 0.],-0.03515625,0.03271484375,1.0029296875,[0. 0. 0. 0. 0. 0. 0. 0. 0.]
2.664529323577881,-0.021090978756546974,-0.011429828591644764,0.3124402165412903,-0.9496345520019531,[0. 0. 0. 0. 0. 0. 0. 0. 0.],-0.1220703125,-0.30517578125,-0.06103515625,[0. 0. 0. 0. 0. 0. 0. 0. 0.],-0.03564453125,0.033203125,1.00341796875,[0. 0. 0. 0. 0. 0. 0. 0. 0.]
2.685817241668701,-0.02067374810576439,-0.010796512477099895,0.3124755918979645,-0.9496394395828247,[0. 0. 0. 0. 0. 0. 0. 0. 0.],-0.1220703125,-0.42724609375,-0.1220703125,[0. 0. 0. 0. 0. 0. 0. 0. 0.],-0.03369140625,0.03271484375,1.00244140625,[0. 0. 0. 0. 0. 0. 0. 0. 0.]
2.7051053047180176,-0.02095315232872963,-0.010649296455085278,0.3125021159648895,-0.9496263265609741,[0. 0. 0. 0. 0. 0. 0. 0. 0.],0.06103515625,-0.79345703125,-0.18310546875,[0. 0. 0. 0. 0. 0. 0. 0. 0.],-0.03369140625,0.033203125,1.00146484375,[0. 0. 0. 0. 0. 0. 0. 0. 0.]
2.724729299545288,-0.020806031301617622,-0.010808374732732773,0.31253063678741455,-0.949618399143219,[0. 0. 0. 0. 0. 0. 0. 0. 0.],-0.1220703125,-1.0986328125,-0.1220703125,[0. 0. 0. 0. 0. 0. 0. 0. 0.],-0.0341796875,0.03369140625,1.0029296875,[0. 0. 0. 0. 0. 0. 0. 0. 0.]
2.746340036392212,-0.021209716796875,-0.011334702372550964,0.3125742971897125,-0.9495888352394104,[0. 0. 0. 0. 0. 0. 0. 0. 0.],-0.06103515625,-1.03759765625,-0.244140625,[0. 0. 0. 0. 0. 0. 0. 0. 0.],-0.03466796875,0.03271484375,1.001953125,[0. 0. 0. 0. 0. 0. 0. 0. 0.]
2.764554262161255,-0.021605931222438812,-0.011461394838988781,0.312589555978775,-0.9495733380317688,[0. 0. 0. 0. 0. 0. 0. 0. 0.],-0.06103515625,-0.3662109375,-0.18310546875,[0. 0. 0. 0. 0. 0. 0. 0. 0.],-0.03515625,0.03369140625,1.00390625,[0. 0. 0. 0. 0. 0. 0. 0. 0.]
2.786956548690796,-0.0219923947006464,-0.010036483407020569,0.31260594725608826,-0.9495752453804016,[0. 0. 0. 0. 0. 0. 0. 0. 0.],0.0,-0.30517578125,-0.244140625,[0. 0. 0. 0. 0. 0. 0. 0. 0.],-0.03271484375,0.0361328125,1.00390625,[0. 0. 0. 0. 0. 0. 0. 0. 0.]
2.8101277351379395,-0.021374663338065147,-0.011096623726189137,0.3126606345176697,-0.9495595097541809,[0. 0. 0. 0. 0. 0. 0. 0. 0.],0.0,-0.54931640625,-0.1220703125,[0. 0. 0. 0. 0. 0. 0. 0. 0.],-0.0341796875,0.03369140625,1.00341796875,[0. 0. 0. 0. 0. 0. 0. 0. 0.]
2.8248636722564697,-0.02143138274550438,-0.011530615389347076,0.31268101930618286,-0.9495463967323303,[0. 0. 0. 0. 0. 0. 0. 0. 0.],-0.1220703125,-0.9765625,-0.30517578125,[0. 0. 0. 0. 0. 0. 0. 0. 0.],-0.03515625,0.03369140625,1.0029296875,[0. 0. 0. 0. 0. 0. 0. 0. 0.]
2.8455538749694824,-0.021985650062561035,-0.010356927290558815,0.3126838207244873,-0.9495463371276855,[0. 0. 0. 0. 0. 0. 0. 0. 0.],-0.1220703125,-1.03759765625,-0.18310546875,[0. 0. 0. 0. 0. 0. 0. 0. 0.],-0.033203125,0.03466796875,1.001953125,[0. 0. 0. 0. 0. 0. 0. 0. 0.]
2.864572048187256,-0.021020855754613876,-0.010201819241046906,0.3127296566963196,-0.9495547413825989,[0. 0. 0. 0. 0. 0. 0. 0. 0.],-0.30517578125,-0.3662109375,-0.1220703125,[0. 0. 0. 0. 0. 0. 0. 0. 0.],-0.03271484375,0.03369140625,1.0009765625,[0. 0. 0. 0. 0. 0. 0. 0. 0.]
2.884093761444092,-0.0215302687138319,-0.011358517222106457,0.3127787709236145,-0.9495140314102173,[0. 0. 0. 0. 0. 0. 0. 0. 0.],-0.18310546875,-0.42724609375,-0.1220703125,[0. 0. 0. 0. 0. 0. 0. 0. 0.],-0.03466796875,0.033203125,1.00048828125,[0. 0. 0. 0. 0. 0. 0. 0. 0.]
2.905449867248535,-0.02067706547677517,-0.011682485230267048,0.3128194510936737,-0.9495156407356262,[0. 0. 0. 0. 0. 0. 0. 0. 0.],0.0,-0.67138671875,-0.18310546875,[0. 0. 0. 0. 0. 0. 0. 0. 0.],-0.03466796875,0.03271484375,1.00390625,[0. 0. 0. 0. 0. 0. 0. 0. 0.]
2.920577049255371,-0.020397784188389778,-0.010653489269316196,0.3128306269645691,-0.9495301842689514,[0. 0. 0. 0. 0. 0. 0. 0. 0.],-0.1220703125,-1.03759765625,-0.1220703125,[0. 0. 0. 0. 0. 0. 0. 0. 0.],-0.033203125,0.0322265625,1.00439453125,[0. 0. 0. 0. 0. 0. 0. 0. 0.]
2.9445056915283203,-0.021056801080703735,-0.01039406843483448,0.31284835934638977,-0.9495127201080322,[0. 0. 0. 0. 0. 0. 0. 0. 0.],0.06103515625,-0.8544921875,-0.30517578125,[0. 0. 0. 0. 0. 0. 0. 0. 0.],-0.03271484375,0.033203125,1.00244140625,[0. 0. 0. 0. 0. 0. 0. 0. 0.]
2.9596188068389893,-0.021365048363804817,-0.011197523213922977,0.31288519501686096,-0.949484646320343,[0. 0. 0. 0. 0. 0. 0. 0. 0.],-0.18310546875,-0.42724609375,-0.1220703125,[0. 0. 0. 0. 0. 0. 0. 0. 0.],-0.03466796875,0.0341796875,1.001953125,[0. 0. 0. 0. 0. 0. 0. 0. 0.]
2.9849812984466553,-0.020939741283655167,-0.010996001772582531,0.3129178583621979,-0.9494856595993042,[0. 0. 0. 0. 0. 0. 0. 0. 0.],0.0,-0.3662109375,0.0,[0. 0. 0. 0. 0. 0. 0. 0. 0.],-0.0341796875,0.033203125,1.00146484375,[0. 0. 0. 0. 0. 0. 0. 0. 0.]
3.005323886871338,-0.02049458585679531,-0.011276132427155972,0.3129585385322571,-0.9494787454605103,[0. 0. 0. 0. 0. 0. 0. 0. 0.],0.0,-0.79345703125,-0.1220703125,[0. 0. 0. 0. 0. 0. 0. 0. 0.],-0.03466796875,0.0322265625,1.0009765625,[0. 0. 0. 0. 0. 0. 0. 0. 0.]
3.0250070095062256,-0.021388590335845947,-0.011085957288742065,0.312970370054245,-0.9494572877883911,[0. 0. 0. 0. 0. 0. 0. 0. 0.],-0.18310546875,-0.91552734375,-0.244140625,[0. 0. 0. 0. 0. 0. 0. 0. 0.],-0.03466796875,0.03369140625,1.0029296875,[0. 0. 0. 0. 0. 0. 0. 0. 0.]
3.0442891120910645,-0.021070504561066628,-0.01004686951637268,0.3129768371582031,-0.9494739174842834,[0. 0. 0. 0. 0. 0. 0. 0. 0.],-0.06103515625,-0.732421875,-0.18310546875,[0. 0. 0. 0. 0. 0. 0. 0. 0.],-0.03271484375,0.03369140625,1.001953125,[0. 0. 0. 0. 0. 0. 0. 0. 0.]
3.0644662380218506,-0.021079953759908676,-0.011770191602408886,0.31303101778030396,-0.9494360089302063,[0. 0. 0. 0. 0. 0. 0. 0. 0.],-0.06103515625,-0.244140625,-0.1220703125,[0. 0. 0. 0. 0. 0. 0. 0. 0.],-0.03515625,0.03271484375,1.0009765625,[0. 0. 0. 0. 0. 0. 0. 0. 0.]
3.08501935005188,-0.021222218871116638,-0.010596281848847866,0.31305065751075745,-0.9494401216506958,[0. 0. 0. 0. 0. 0. 0. 0. 0.],0.0,-0.3662109375,-0.18310546875,[0. 0. 0. 0. 0. 0. 0. 0. 0.],-0.03369140625,0.03369140625,1.0029296875,[0. 0. 0. 0. 0. 0. 0. 0. 0.]
3.1043107509613037,-0.021209444850683212,-0.010528737679123878,0.3130866587162018,-0.9494293928146362,[0. 0. 0. 0. 0. 0. 0. 0. 0.],-0.06103515625,-0.9765625,-0.244140625,[0. 0. 0. 0. 0. 0. 0. 0. 0.],-0.03369140625,0.03369140625,1.00341796875,[0. 0. 0. 0. 0. 0. 0. 0. 0.]
3.1248135566711426,-0.02122923545539379,-0.011795583181083202,0.3131232261657715,-0.9494019746780396,[0. 0. 0. 0. 0. 0. 0. 0. 0.],-0.1220703125,-0.9765625,-0.244140625,[0. 0. 0. 0. 0. 0. 0. 0. 0.],-0.03564453125,0.03369140625,1.001953125,[0. 0. 0. 0. 0. 0. 0. 0. 0.]
3.1509110927581787,-0.021177707239985466,-0.011259236373007298,0.3131346106529236,-0.9494057893753052,[0. 0. 0. 0. 0. 0. 0. 0. 0.],0.06103515625,-1.15966796875,-0.18310546875,[0. 0. 0. 0. 0. 0. 0. 0. 0.],-0.0341796875,0.03369140625,1.00390625,[0. 0. 0. 0. 0. 0. 0. 0. 0.]
3.1646728515625,-0.021280918270349503,-0.010919954627752304,0.31314215064048767,-0.9494050145149231,[0. 0. 0. 0. 0. 0. 0. 0. 0.],-0.06103515625,-0.244140625,0.0,[0. 0. 0. 0. 0. 0. 0. 0. 0.],-0.0341796875,0.03369140625,1.00341796875,[0. 0. 0. 0. 0. 0. 0. 0. 0.]
3.184694290161133,-0.02069244533777237,-0.010266994126141071,0.3131629228591919,-0.9494185447692871,[0. 0. 0. 0. 0. 0. 0. 0. 0.],0.0,-0.67138671875,0.0,[0. 0. 0. 0. 0. 0. 0. 0. 0.],-0.033203125,0.03271484375,1.00244140625,[0. 0. 0. 0. 0. 0. 0. 0. 0.]
3.2043187618255615,-0.020642170682549477,-0.010912774130702019,0.3132103979587555,-0.9493967890739441,[0. 0. 0. 0. 0. 0. 0. 0. 0.],-0.06103515625,-0.9765625,-0.244140625,[0. 0. 0. 0. 0. 0. 0. 0. 0.],-0.03369140625,0.03271484375,1.00244140625,[0. 0. 0. 0. 0. 0. 0. 0. 0.]
3.2244672775268555,-0.020789489150047302,-0.011006438173353672,0.31324440240859985,-0.9493812322616577,[0. 0. 0. 0. 0. 0. 0. 0. 0.],-0.18310546875,-0.79345703125,-0.244140625,[0. 0. 0. 0. 0. 0. 0. 0. 0.],-0.0341796875,0.033203125,1.00341796875,[0. 0. 0. 0. 0. 0. 0. 0. 0.]
3.2447669506073,-0.02163833938539028,-0.010239904746413231,0.3132449686527252,-0.9493706822395325,[0. 0. 0. 0. 0. 0. 0. 0. 0.],-0.244140625,-0.54931640625,-0.06103515625,[0. 0. 0. 0. 0. 0. 0. 0. 0.],-0.033203125,0.03515625,1.00537109375,[0. 0. 0. 0. 0. 0. 0. 0. 0.]
3.264638662338257,-0.02194044552743435,-0.01074493769556284,0.31327980756759644,-0.9493466019630432,[0. 0. 0. 0. 0. 0. 0. 0. 0.],0.0,-0.244140625,0.0,[0. 0. 0. 0. 0. 0. 0. 0. 0.],-0.0341796875,0.03466796875,1.00390625,[0. 0. 0. 0. 0. 0. 0. 0. 0.]
3.284482717514038,-0.020509885624051094,-0.009584653191268444,0.3133232295513153,-0.9493767023086548,[0. 0. 0. 0. 0. 0. 0. 0. 0.],0.06103515625,-0.732421875,-0.244140625,[0. 0. 0. 0. 0. 0. 0. 0. 0.],-0.03173828125,0.033203125,1.00537109375,[0. 0. 0. 0. 0. 0. 0. 0. 0.]
3.305039644241333,-0.021580977365374565,-0.010654345154762268,0.3133470118045807,-0.9493337273597717,[0. 0. 0. 0. 0. 0. 0. 0. 0.],0.0,-0.6103515625,-0.18310546875,[0. 0. 0. 0. 0. 0. 0. 0. 0.],-0.03466796875,0.03466796875,1.001953125,[0. 0. 0. 0. 0. 0. 0. 0. 0.]
3.3284831047058105,-0.021785467863082886,-0.01115069817751646,0.3133801221847534,-0.9493124485015869,[0. 0. 0. 0. 0. 0. 0. 0. 0.],-0.06103515625,-0.9765625,-0.244140625,[0. 0. 0. 0. 0. 0. 0. 0. 0.],-0.03466796875,0.03466796875,1.001953125,[0. 0. 0. 0. 0. 0. 0. 0. 0.]
3.3398945331573486,-0.021405572071671486,-0.011333712376654148,0.31341245770454407,-0.9493082165718079,[0. 0. 0. 0. 0. 0. 0. 0. 0.],-0.244140625,-0.79345703125,-0.1220703125,[0. 0. 0. 0. 0. 0. 0. 0. 0.],-0.03466796875,0.03369140625,1.0029296875,[0. 0. 0. 0. 0. 0. 0. 0. 0.]
3.3661115169525146,-0.020951688289642334,-0.010479098185896873,0.31344419717788696,-0.9493176341056824,[0. 0. 0. 0. 0. 0. 0. 0. 0.],-0.244140625,-0.42724609375,-0.18310546875,[0. 0. 0. 0. 0. 0. 0. 0. 0.],-0.03369140625,0.033203125,1.0009765625,[0. 0. 0. 0. 0. 0. 0. 0. 0.]
3.3847782611846924,-0.02059130184352398,-0.010351499542593956,0.3134821653366089,-0.9493144154548645,[0. 0. 0. 0. 0. 0. 0. 0. 0.],0.0,-0.3662109375,-0.06103515625,[0. 0. 0. 0. 0. 0. 0. 0. 0.],-0.03271484375,0.03271484375,1.00244140625,[0. 0. 0. 0. 0. 0. 0. 0. 0.]
3.4005701541900635,-0.02125328779220581,-0.010734825395047665,0.313504159450531,-0.9492882490158081,[0. 0. 0. 0. 0. 0. 0. 0. 0.],-0.06103515625,-0.8544921875,-0.1220703125,[0. 0. 0. 0. 0. 0. 0. 0. 0.],-0.03369140625,0.03369140625,1.00244140625,[0. 0. 0. 0. 0. 0. 0. 0. 0.]
3.425586223602295,-0.021843040362000465,-0.01096668653190136,0.31352609395980835,-0.9492650032043457,[0. 0. 0. 0. 0. 0. 0. 0. 0.],0.06103515625,-0.8544921875,-0.18310546875,[0. 0. 0. 0. 0. 0. 0. 0. 0.],-0.03515625,0.0341796875,1.0009765625,[0. 0. 0. 0. 0. 0. 0. 0. 0.]
3.4445266723632812,-0.02184627205133438,-0.010907739400863647,0.31354260444641113,-0.9492601156234741,[0. 0. 0. 0. 0. 0. 0. 0. 0.],-0.06103515625,-0.79345703125,-0.1220703125,[0. 0. 0. 0. 0. 0. 0. 0. 0.],-0.03515625,0.0341796875,1.00146484375,[0. 0. 0. 0. 0. 0. 0. 0. 0.]
3.464609384536743,-0.021130817010998726,-0.01104968972504139,0.31357094645500183,-0.9492653608322144,[0. 0. 0. 0. 0. 0. 0. 0. 0.],-0.244140625,-0.3662109375,0.0,[0. 0. 0. 0. 0. 0. 0. 0. 0.],-0.03466796875,0.03369140625,1.00048828125,[0. 0. 0. 0. 0. 0. 0. 0. 0.]
3.484611988067627,-0.02109113708138466,-0.010553445667028427,0.3135940134525299,-0.9492642283439636,[0. 0. 0. 0. 0. 0. 0. 0. 0.],0.06103515625,-0.48828125,-0.06103515625,[0. 0. 0. 0. 0. 0. 0. 0. 0.],-0.033203125,0.03369140625,1.00146484375,[0. 0. 0. 0. 0. 0. 0. 0. 0.]
3.505131721496582,-0.021494893357157707,-0.011018958874046803,0.3136264383792877,-0.9492392539978027,[0. 0. 0. 0. 0. 0. 0. 0. 0.],0.0,-0.8544921875,-0.244140625,[0. 0. 0. 0. 0. 0. 0. 0. 0.],-0.0341796875,0.0341796875,1.0029296875,[0. 0. 0. 0. 0. 0. 0. 0. 0.]
3.5251035690307617,-0.020986443385481834,-0.011385852470993996,0.31368204951286316,-0.9492278695106506,[0. 0. 0. 0. 0. 0. 0. 0. 0.],-0.244140625,-1.03759765625,-0.244140625,[0. 0. 0. 0. 0. 0. 0. 0. 0.],-0.03515625,0.033203125,1.00341796875,[0. 0. 0. 0. 0. 0. 0. 0. 0.]
3.5446460247039795,-0.02094016969203949,-0.010035064071416855,0.3136729300022125,-0.9492471814155579,[0. 0. 0. 0. 0. 0. 0. 0. 0.],-0.06103515625,-0.54931640625,0.0,[0. 0. 0. 0. 0. 0. 0. 0. 0.],-0.0322265625,0.03369140625,1.00341796875,[0. 0. 0. 0. 0. 0. 0. 0. 0.]
3.5635275840759277,-0.021295206621289253,-0.010881219990551472,0.3137042224407196,-0.9492196440696716,[0. 0. 0. 0. 0. 0. 0. 0. 0.],-0.06103515625,-0.244140625,0.06103515625,[0. 0. 0. 0. 0. 0. 0. 0. 0.],-0.03369140625,0.03369140625,1.0048828125,[0. 0. 0. 0. 0. 0. 0. 0. 0.]
3.5847702026367188,-0.022029917687177658,-0.011254992336034775,0.31372955441474915,-0.9491901397705078,[0. 0. 0. 0. 0. 0. 0. 0. 0.],0.0,-0.42724609375,-0.244140625,[0. 0. 0. 0. 0. 0. 0. 0. 0.],-0.03515625,0.03466796875,1.0029296875,[0. 0. 0. 0. 0. 0. 0. 0. 0.]
3.605715274810791,-0.02068406715989113,-0.011244394816458225,0.31378600001335144,-0.9492018222808838,[0. 0. 0. 0. 0. 0. 0. 0. 0.],0.0,-1.03759765625,-0.244140625,[0. 0. 0. 0. 0. 0. 0. 0. 0.],-0.03466796875,0.0322265625,1.0029296875,[0. 0. 0. 0. 0. 0. 0. 0. 0.]
3.6247010231018066,-0.021486029028892517,-0.011575828306376934,0.3138080835342407,-0.9491727352142334,[0. 0. 0. 0. 0. 0. 0. 0. 0.],0.0,-0.79345703125,-0.3662109375,[0. 0. 0. 0. 0. 0. 0. 0. 0.],-0.03515625,0.033203125,1.00439453125,[0. 0. 0. 0. 0. 0. 0. 0. 0.]
3.6455984115600586,-0.021736465394496918,-0.01094099786132574,0.3138240575790405,-0.9491693377494812,[0. 0. 0. 0. 0. 0. 0. 0. 0.],-0.1220703125,-0.54931640625,-0.1220703125,[0. 0. 0. 0. 0. 0. 0. 0. 0.],-0.0341796875,0.0341796875,1.0029296875,[0. 0. 0. 0. 0. 0. 0. 0. 0.]
3.6647086143493652,-0.02155885472893715,-0.010517941787838936,0.31385350227355957,-0.9491683840751648,[0. 0. 0. 0. 0. 0. 0. 0. 0.],0.0,-0.30517578125,-0.06103515625,[0. 0. 0. 0. 0. 0. 0. 0. 0.],-0.03369140625,0.0341796875,1.0,[0. 0. 0. 0. 0. 0. 0. 0. 0.]
3.684678316116333,-0.021930206567049026,-0.011249429546296597,0.31389671564102173,-0.9491372108459473,[0. 0. 0. 0. 0. 0. 0. 0. 0.],0.0,-0.54931640625,-0.1220703125,[0. 0. 0. 0. 0. 0. 0. 0. 0.],-0.03515625,0.03466796875,1.001953125,[0. 0. 0. 0. 0. 0. 0. 0. 0.]
3.704998254776001,-0.02078069932758808,-0.011173388920724392,0.3139360845088959,-0.9491509795188904,[0. 0. 0. 0. 0. 0. 0. 0. 0.],-0.18310546875,-0.9765625,-0.06103515625,[0. 0. 0. 0. 0. 0. 0. 0. 0.],-0.0341796875,0.0322265625,1.00341796875,[0. 0. 0. 0. 0. 0. 0. 0. 0.]
3.720620632171631,-0.02077585458755493,-0.010945520363748074,0.3139604926109314,-0.9491456151008606,[0. 0. 0. 0. 0. 0. 0. 0. 0.],-0.18310546875,-0.79345703125,-0.244140625,[0. 0. 0. 0. 0. 0. 0. 0. 0.],-0.03369140625,0.03271484375,1.00341796875,[0. 0. 0. 0. 0. 0. 0. 0. 0.]
3.7490646839141846,-0.021902265027165413,-0.010954169556498528,0.3139748275279999,-0.9491154551506042,[0. 0. 0. 0. 0. 0. 0. 0. 0.],-0.06103515625,-0.3662109375,-0.18310546875,[0. 0. 0. 0. 0. 0. 0. 0. 0.],-0.03466796875,0.03466796875,1.0009765625,[0. 0. 0. 0. 0. 0. 0. 0. 0.]
3.761312246322632,-0.022113747894763947,-0.010998554527759552,0.3140023350715637,-0.9491009712219238,[0. 0. 0. 0. 0. 0. 0. 0. 0.],-0.18310546875,-0.42724609375,-0.1220703125,[0. 0. 0. 0. 0. 0. 0. 0. 0.],-0.03466796875,0.03515625,1.00048828125,[0. 0. 0. 0. 0. 0. 0. 0. 0.]
3.7802441120147705,-0.02140410803258419,-0.010563966818153858,0.31403592228889465,-0.9491110444068909,[0. 0. 0. 0. 0. 0. 0. 0. 0.],-0.1220703125,-0.30517578125,0.0,[0. 0. 0. 0. 0. 0. 0. 0. 0.],-0.03369140625,0.0341796875,1.00390625,[0. 0. 0. 0. 0. 0. 0. 0. 0.]
3.808084487915039,-0.021623501554131508,-0.010756500996649265,0.31407687067985535,-0.9490904211997986,[0. 0. 0. 0. 0. 0. 0. 0. 0.],0.0,-0.79345703125,-0.18310546875,[0. 0. 0. 0. 0. 0. 0. 0. 0.],-0.0341796875,0.0341796875,1.00244140625,[0. 0. 0. 0. 0. 0. 0. 0. 0.]
3.819855213165283,-0.020982250571250916,-0.011452344246208668,0.3141307830810547,-0.9490787386894226,[0. 0. 0. 0. 0. 0. 0. 0. 0.],-0.06103515625,-0.9765625,-0.244140625,[0. 0. 0. 0. 0. 0. 0. 0. 0.],-0.03515625,0.03271484375,1.00341796875,[0. 0. 0. 0. 0. 0. 0. 0. 0.]
3.839536666870117,-0.02052023820579052,-0.010817186906933784,0.3141616880893707,-0.94908607006073,[0. 0. 0. 0. 0. 0. 0. 0. 0.],-0.1220703125,-0.67138671875,-0.244140625,[0. 0. 0. 0. 0. 0. 0. 0. 0.],-0.03369140625,0.03271484375,1.0029296875,[0. 0. 0. 0. 0. 0. 0. 0. 0.]
3.859870672225952,-0.02066858485341072,-0.010379716753959656,0.31417304277420044,-0.9490839838981628,[0. 0. 0. 0. 0. 0. 0. 0. 0.],0.06103515625,-0.244140625,-0.1220703125,[0. 0. 0. 0. 0. 0. 0. 0. 0.],-0.03271484375,0.03271484375,1.00341796875,[0. 0. 0. 0. 0. 0. 0. 0. 0.]
3.8848421573638916,-0.020824603736400604,-0.010966847650706768,0.3142193555831909,-0.9490586519241333,[0. 0. 0. 0. 0. 0. 0. 0. 0.],-0.06103515625,-0.3662109375,-0.06103515625,[0. 0. 0. 0. 0. 0. 0. 0. 0.],-0.0341796875,0.033203125,1.00244140625,[0. 0. 0. 0. 0. 0. 0. 0. 0.]
3.905001640319824,-0.02149508334696293,-0.01158034149557352,0.3142513632774353,-0.9490258097648621,[0. 0. 0. 0. 0. 0. 0. 0. 0.],0.0,-0.732421875,-0.244140625,[0. 0. 0. 0. 0. 0. 0. 0. 0.],-0.03564453125,0.03369140625,1.00146484375,[0. 0. 0. 0. 0. 0. 0. 0. 0.]
3.919569253921509,-0.02160450629889965,-0.011286545544862747,0.3142750561237335,-0.9490190148353577,[0. 0. 0. 0. 0. 0. 0. 0. 0.],-0.06103515625,-0.91552734375,-0.244140625,[0. 0. 0. 0. 0. 0. 0. 0. 0.],-0.03515625,0.0341796875,1.00341796875,[0. 0. 0. 0. 0. 0. 0. 0. 0.]
3.9447028636932373,-0.022045986726880074,-0.011886757798492908,0.3142984211444855,-0.9489937424659729,[0. 0. 0. 0. 0. 0. 0. 0. 0.],-0.18310546875,-0.732421875,-0.1220703125,[0. 0. 0. 0. 0. 0. 0. 0. 0.],-0.0361328125,0.03466796875,1.00341796875,[0. 0. 0. 0. 0. 0. 0. 0. 0.]
3.964780569076538,-0.021660303696990013,-0.011239922605454922,0.3143129348754883,-0.9490057229995728,[0. 0. 0. 0. 0. 0. 0. 0. 0.],-0.18310546875,-0.30517578125,0.06103515625,[0. 0. 0. 0. 0. 0. 0. 0. 0.],-0.03515625,0.0341796875,1.0029296875,[0. 0. 0. 0. 0. 0. 0. 0. 0.]
3.9855685234069824,-0.02139812707901001,-0.010459293611347675,0.3143380582332611,-0.949012279510498,[0. 0. 0. 0. 0. 0. 0. 0. 0.],0.0,-0.48828125,-0.18310546875,[0. 0. 0. 0. 0. 0. 0. 0. 0.],-0.03369140625,0.0341796875,1.005859375,[0. 0. 0. 0. 0. 0. 0. 0. 0.]
4.006940126419067,-0.020974822342395782,-0.011193904094398022,0.31439343094825745,-0.9489951133728027,[0. 0. 0. 0. 0. 0. 0. 0. 0.],-0.18310546875,-0.91552734375,-0.30517578125,[0. 0. 0. 0. 0. 0. 0. 0. 0.],-0.0341796875,0.033203125,1.00439453125,[0. 0. 0. 0. 0. 0. 0. 0. 0.]
4.027422666549683,-0.02199314534664154,-0.010371319018304348,0.3144044280052185,-0.9489776492118835,[0. 0. 0. 0. 0. 0. 0. 0. 0.],0.0,-0.9765625,-0.244140625,[0. 0. 0. 0. 0. 0. 0. 0. 0.],-0.03369140625,0.03515625,0.99951171875,[0. 0. 0. 0. 0. 0. 0. 0. 0.]
4.039476633071899,-0.021149378269910812,-0.00964907743036747,0.31441211700439453,-0.9490019083023071,[0. 0. 0. 0. 0. 0. 0. 0. 0.],-0.18310546875,-0.48828125,0.0,[0. 0. 0. 0. 0. 0. 0. 0. 0.],-0.03173828125,0.0341796875,1.00146484375,[0. 0. 0. 0. 0. 0. 0. 0. 0.]
4.064639329910278,-0.02123325690627098,-0.01012345775961876,0.3144446015357971,-0.9489843845367432,[0. 0. 0. 0. 0. 0. 0. 0. 0.],-0.244140625,-0.42724609375,-0.1220703125,[0. 0. 0. 0. 0. 0. 0. 0. 0.],-0.033203125,0.03466796875,1.0029296875,[0. 0. 0. 0. 0. 0. 0. 0. 0.]
4.085291385650635,-0.02155880816280842,-0.011664503253996372,0.31450438499450684,-0.9489395022392273,[0. 0. 0. 0. 0. 0. 0. 0. 0.],-0.06103515625,-0.6103515625,-0.1220703125,[0. 0. 0. 0. 0. 0. 0. 0. 0.],-0.03564453125,0.03369140625,1.0009765625,[0. 0. 0. 0. 0. 0. 0. 0. 0.]
4.105441331863403,-0.021515540778636932,-0.01156359538435936,0.31452158093452454,-0.9489359855651855,[0. 0. 0. 0. 0. 0. 0. 0. 0.],-0.06103515625,-0.91552734375,-0.244140625,[0. 0. 0. 0. 0. 0. 0. 0. 0.],-0.03564453125,0.03369140625,1.00146484375,[0. 0. 0. 0. 0. 0. 0. 0. 0.]
4.124794960021973,-0.021164068952202797,-0.01127353310585022,0.31454578042030334,-0.9489395022392273,[0. 0. 0. 0. 0. 0. 0. 0. 0.],-0.1220703125,-0.91552734375,-0.06103515625,[0. 0. 0. 0. 0. 0. 0. 0. 0.],-0.03515625,0.033203125,1.0029296875,[0. 0. 0. 0. 0. 0. 0. 0. 0.]
4.148218870162964,-0.021793488413095474,-0.010881491005420685,0.3145676553249359,-0.9489224553108215,[0. 0. 0. 0. 0. 0. 0. 0. 0.],-0.1220703125,-0.79345703125,-0.244140625,[0. 0. 0. 0. 0. 0. 0. 0. 0.],-0.0341796875,0.03466796875,1.0029296875,[0. 0. 0. 0. 0. 0. 0. 0. 0.]
4.164771318435669,-0.022211387753486633,-0.010916936211287975,0.31458181142807007,-0.9489076137542725,[0. 0. 0. 0. 0. 0. 0. 0. 0.],0.06103515625,-0.18310546875,-0.1220703125,[0. 0. 0. 0. 0. 0. 0. 0. 0.],-0.03466796875,0.03515625,1.001953125,[0. 0. 0. 0. 0. 0. 0. 0. 0.]
4.189177751541138,-0.02063012681901455,-0.010130424983799458,0.31463193893432617,-0.9489355087280273,[0. 0. 0. 0. 0. 0. 0. 0. 0.],0.0,-0.30517578125,-0.06103515625,[0. 0. 0. 0. 0. 0. 0. 0. 0.],-0.03271484375,0.03271484375,1.0009765625,[0. 0. 0. 0. 0. 0. 0. 0. 0.]
4.199741363525391,-0.02061879262328148,-0.01080047246068716,0.3146684467792511,-0.9489163160324097,[0. 0. 0. 0. 0. 0. 0. 0. 0.],0.0,-0.9765625,-0.1220703125,[0. 0. 0. 0. 0. 0. 0. 0. 0.],-0.03369140625,0.03271484375,1.00146484375,[0. 0. 0. 0. 0. 0. 0. 0. 0.]
4.2306671142578125,-0.02017621509730816,-0.010554812848567963,0.3147035539150238,-0.9489169716835022,[0. 0. 0. 0. 0. 0. 0. 0. 0.],-0.1220703125,-0.6103515625,-0.18310546875,[0. 0. 0. 0. 0. 0. 0. 0. 0.],-0.033203125,0.0322265625,1.00146484375,[0. 0. 0. 0. 0. 0. 0. 0. 0.]
4.2417027950286865,-0.020747294649481773,-0.010879484936594963,0.3147159814834595,-0.9488967657089233,[0. 0. 0. 0. 0. 0. 0. 0. 0.],-0.18310546875,-0.732421875,-0.30517578125,[0. 0. 0. 0. 0. 0. 0. 0. 0.],-0.03369140625,0.03271484375,1.00244140625,[0. 0. 0. 0. 0. 0. 0. 0. 0.]
4.265402555465698,-0.021905705332756042,-0.01103300228714943,0.31471914052963257,-0.9488678574562073,[0. 0. 0. 0. 0. 0. 0. 0. 0.],-0.18310546875,-0.42724609375,0.06103515625,[0. 0. 0. 0. 0. 0. 0. 0. 0.],-0.03466796875,0.0341796875,1.0009765625,[0. 0. 0. 0. 0. 0. 0. 0. 0.]
4.284970998764038,-0.020634394139051437,-0.010958501137793064,0.31476864218711853,-0.9488807916641235,[0. 0. 0. 0. 0. 0. 0. 0. 0.],0.06103515625,-0.30517578125,0.06103515625,[0. 0. 0. 0. 0. 0. 0. 0. 0.],-0.0341796875,0.03271484375,1.0029296875,[0. 0. 0. 0. 0. 0. 0. 0. 0.]
4.305133819580078,-0.020660879090428352,-0.011033766902983189,0.31479546427726746,-0.9488704800605774,[0. 0. 0. 0. 0. 0. 0. 0. 0.],-0.1220703125,-0.91552734375,-0.18310546875,[0. 0. 0. 0. 0. 0. 0. 0. 0.],-0.03466796875,0.03271484375,1.00439453125,[0. 0. 0. 0. 0. 0. 0. 0. 0.]
4.32471227645874,-0.021427318453788757,-0.01145200990140438,0.3148086667060852,-0.9488442540168762,[0. 0. 0. 0. 0. 0. 0. 0. 0.],-0.06103515625,-0.9765625,-0.244140625,[0. 0. 0. 0. 0. 0. 0. 0. 0.],-0.03515625,0.033203125,1.00341796875,[0. 0. 0. 0. 0. 0. 0. 0. 0.]
4.3445258140563965,-0.02168230712413788,-0.011099412105977535,0.3148162364959717,-0.9488401412963867,[0. 0. 0. 0. 0. 0. 0. 0. 0.],-0.1220703125,-0.6103515625,-0.18310546875,[0. 0. 0. 0. 0. 0. 0. 0. 0.],-0.03515625,0.0341796875,1.0029296875,[0. 0. 0. 0. 0. 0. 0. 0. 0.]
4.364726305007935,-0.020484432578086853,-0.011095917783677578,0.3148578405380249,-0.9488529562950134,[0. 0. 0. 0. 0. 0. 0. 0. 0.],-0.1220703125,-0.30517578125,-0.1220703125,[0. 0. 0. 0. 0. 0. 0. 0. 0.],-0.0341796875,0.03271484375,1.00244140625,[0. 0. 0. 0. 0. 0. 0. 0. 0.]
4.384479761123657,-0.021141406148672104,-0.010531686246395111,0.31487664580345154,-0.9488386511802673,[0. 0. 0. 0. 0. 0. 0. 0. 0.],0.0,-0.48828125,-0.1220703125,[0. 0. 0. 0. 0. 0. 0. 0. 0.],-0.03369140625,0.033203125,1.00244140625,[0. 0. 0. 0. 0. 0. 0. 0. 0.]
4.4043896198272705,-0.02101300284266472,-0.011566204018890858,0.31492680311203003,-0.9488127827644348,[0. 0. 0. 0. 0. 0. 0. 0. 0.],-0.1220703125,-0.8544921875,-0.244140625,[0. 0. 0. 0. 0. 0. 0. 0. 0.],-0.03466796875,0.0322265625,1.00244140625,[0. 0. 0. 0. 0. 0. 0. 0. 0.]
4.424487352371216,-0.021223202347755432,-0.010822838172316551,0.3149296045303345,-0.9488160610198975,[0. 0. 0. 0. 0. 0. 0. 0. 0.],-0.1220703125,-1.0986328125,-0.1220703125,[0. 0. 0. 0. 0. 0. 0. 0. 0.],-0.03369140625,0.03369140625,1.001953125,[0. 0. 0. 0. 0. 0. 0. 0. 0.]
4.444586277008057,-0.021838689222931862,-0.011272414587438107,0.3149539828300476,-0.9487887024879456,[0. 0. 0. 0. 0. 0. 0. 0. 0.],-0.18310546875,-0.54931640625,-0.1220703125,[0. 0. 0. 0. 0. 0. 0. 0. 0.],-0.03515625,0.0341796875,1.00244140625,[0. 0. 0. 0. 0. 0. 0. 0. 0.]
4.464927911758423,-0.021326985210180283,-0.010731028392910957,0.31495457887649536,-0.9488064646720886,[0. 0. 0. 0. 0. 0. 0. 0. 0.],-0.06103515625,-0.3662109375,0.06103515625,[0. 0. 0. 0. 0. 0. 0. 0. 0.],-0.03466796875,0.03369140625,1.001953125,[0. 0. 0. 0. 0. 0. 0. 0. 0.]
4.484723091125488,-0.0213017538189888,-0.010618007741868496,0.3149823248386383,-0.9487990140914917,[0. 0. 0. 0. 0. 0. 0. 0. 0.],0.06103515625,-0.48828125,-0.1220703125,[0. 0. 0. 0. 0. 0. 0. 0. 0.],-0.03369140625,0.03369140625,1.001953125,[0. 0. 0. 0. 0. 0. 0. 0. 0.]
4.504675626754761,-0.02062833681702614,-0.011230960488319397,0.31502988934516907,-0.9487911462783813,[0. 0. 0. 0. 0. 0. 0. 0. 0.],0.06103515625,-0.9765625,-0.1220703125,[0. 0. 0. 0. 0. 0. 0. 0. 0.],-0.0341796875,0.03271484375,1.0029296875,[0. 0. 0. 0. 0. 0. 0. 0. 0.]
4.524698495864868,-0.02086465060710907,-0.010611385107040405,0.31504419445991516,-0.9487883448600769,[0. 0. 0. 0. 0. 0. 0. 0. 0.],0.06103515625,-0.91552734375,-0.244140625,[0. 0. 0. 0. 0. 0. 0. 0. 0.],-0.033203125,0.033203125,1.001953125,[0. 0. 0. 0. 0. 0. 0. 0. 0.]
4.539587497711182,-0.020828023552894592,-0.01058300118893385,0.31507739424705505,-0.9487783908843994,[0. 0. 0. 0. 0. 0. 0. 0. 0.],-0.1220703125,-0.42724609375,-0.1220703125,[0. 0. 0. 0. 0. 0. 0. 0. 0.],-0.03369140625,0.03369140625,1.001953125,[0. 0. 0. 0. 0. 0. 0. 0. 0.]
4.559513092041016,-0.022537171840667725,-0.011110502295196056,0.3150862753391266,-0.9487303495407104,[0. 0. 0. 0. 0. 0. 0. 0. 0.],-0.06103515625,-0.30517578125,-0.06103515625,[0. 0. 0. 0. 0. 0. 0. 0. 0.],-0.03564453125,0.0361328125,1.0009765625,[0. 0. 0. 0. 0. 0. 0. 0. 0.]
4.582119464874268,-0.021556898951530457,-0.01115448959171772,0.3151441514492035,-0.948733389377594,[0. 0. 0. 0. 0. 0. 0. 0. 0.],0.0,-0.732421875,-0.18310546875,[0. 0. 0. 0. 0. 0. 0. 0. 0.],-0.03466796875,0.03369140625,1.00146484375,[0. 0. 0. 0. 0. 0. 0. 0. 0.]
4.599653244018555,-0.02034229040145874,-0.010125210508704185,0.31518256664276123,-0.9487590193748474,[0. 0. 0. 0. 0. 0. 0. 0. 0.],-0.06103515625,-0.9765625,-0.30517578125,[0. 0. 0. 0. 0. 0. 0. 0. 0.],-0.0322265625,0.0322265625,1.001953125,[0. 0. 0. 0. 0. 0. 0. 0. 0.]
4.6245245933532715,-0.02162095159292221,-0.01058126986026764,0.315189391374588,-0.948723554611206,[0. 0. 0. 0. 0. 0. 0. 0. 0.],-0.244140625,-0.8544921875,-0.18310546875,[0. 0. 0. 0. 0. 0. 0. 0. 0.],-0.03369140625,0.0341796875,1.0009765625,[0. 0. 0. 0. 0. 0. 0. 0. 0.]
4.639521837234497,-0.02111649326980114,-0.010784651152789593,0.31522953510284424,-0.9487192630767822,[0. 0. 0. 0. 0. 0. 0. 0. 0.],-0.1220703125,-0.3662109375,-0.18310546875,[0. 0. 0. 0. 0. 0. 0. 0. 0.],-0.03369140625,0.033203125,1.001953125,[0. 0. 0. 0. 0. 0. 0. 0. 0.]
4.659708023071289,-0.021526942029595375,-0.010838357731699944,0.3152598738670349,-0.9486993551254272,[0. 0. 0. 0. 0. 0. 0. 0. 0.],-0.06103515625,-0.244140625,-0.06103515625,[0. 0. 0. 0. 0. 0. 0. 0. 0.],-0.03369140625,0.03369140625,1.001953125,[0. 0. 0. 0. 0. 0. 0. 0. 0.]
4.685223340988159,-0.021097317337989807,-0.010681163519620895,0.31528982520103455,-0.9487007856369019,[0. 0. 0. 0. 0. 0. 0. 0. 0.],-0.06103515625,-0.30517578125,-0.1220703125,[0. 0. 0. 0. 0. 0. 0. 0. 0.],-0.033203125,0.03369140625,1.00439453125,[0. 0. 0. 0. 0. 0. 0. 0. 0.]
4.6997528076171875,-0.021702326834201813,-0.01145422924309969,0.31532424688339233,-0.9486667513847351,[0. 0. 0. 0. 0. 0. 0. 0. 0.],0.0,-0.8544921875,-0.1220703125,[0. 0. 0. 0. 0. 0. 0. 0. 0.],-0.03515625,0.0341796875,1.001953125,[0. 0. 0. 0. 0. 0. 0. 0. 0.]
4.7248125076293945,-0.021225590258836746,-0.010822529904544353,0.31534990668296814,-0.9486764073371887,[0. 0. 0. 0. 0. 0. 0. 0. 0.],-0.1220703125,-0.9765625,-0.244140625,[0. 0. 0. 0. 0. 0. 0. 0. 0.],-0.0341796875,0.03369140625,1.00048828125,[0. 0. 0. 0. 0. 0. 0. 0. 0.]
4.739604711532593,-0.021953297778964043,-0.01106590498238802,0.3153614103794098,-0.9486531615257263,[0. 0. 0. 0. 0. 0. 0. 0. 0.],-0.18310546875,-0.67138671875,-0.1220703125,[0. 0. 0. 0. 0. 0. 0. 0. 0.],-0.03466796875,0.03466796875,1.0029296875,[0. 0. 0. 0. 0. 0. 0. 0. 0.]
4.75960111618042,-0.021843520924448967,-0.011086076498031616,0.31539157032966614,-0.9486454725265503,[0. 0. 0. 0. 0. 0. 0. 0. 0.],-0.244140625,-0.30517578125,-0.244140625,[0. 0. 0. 0. 0. 0. 0. 0. 0.],-0.03515625,0.0341796875,1.00341796875,[0. 0. 0. 0. 0. 0. 0. 0. 0.]
4.77984094619751,-0.021713582798838615,-0.011563792824745178,0.31543609499931335,-0.9486279487609863,[0. 0. 0. 0. 0. 0. 0. 0. 0.],-0.1220703125,-0.3662109375,0.0,[0. 0. 0. 0. 0. 0. 0. 0. 0.],-0.03515625,0.03369140625,1.001953125,[0. 0. 0. 0. 0. 0. 0. 0. 0.]
4.799849510192871,-0.021173052489757538,-0.010764013044536114,0.31546300649642944,-0.9486405849456787,[0. 0. 0. 0. 0. 0. 0. 0. 0.],-0.06103515625,-0.91552734375,-0.18310546875,[0. 0. 0. 0. 0. 0. 0. 0. 0.],-0.0341796875,0.03369140625,1.0029296875,[0. 0. 0. 0. 0. 0. 0. 0. 0.]
4.8263983726501465,-0.02056090161204338,-0.011504177004098892,0.31551501154899597,-0.9486280083656311,[0. 0. 0. 0. 0. 0. 0. 0. 0.],0.1220703125,-0.8544921875,-0.1220703125,[0. 0. 0. 0. 0. 0. 0. 0. 0.],-0.03466796875,0.03173828125,1.00244140625,[0. 0. 0. 0. 0. 0. 0. 0. 0.]
4.844539642333984,-0.021698273718357086,-0.010728523135185242,0.3155041038990021,-0.948615550994873,[0. 0. 0. 0. 0. 0. 0. 0. 0.],-0.244140625,-0.6103515625,-0.18310546875,[0. 0. 0. 0. 0. 0. 0. 0. 0.],-0.0341796875,0.03564453125,1.0029296875,[0. 0. 0. 0. 0. 0. 0. 0. 0.]
4.8647143840789795,-0.022175436839461327,-0.011446758173406124,0.31553220748901367,-0.9485867619514465,[0. 0. 0. 0. 0. 0. 0. 0. 0.],-0.06103515625,-0.244140625,0.0,[0. 0. 0. 0. 0. 0. 0. 0. 0.],-0.03564453125,0.03466796875,1.005859375,[0. 0. 0. 0. 0. 0. 0. 0. 0.]
4.879580974578857,-0.02156950533390045,-0.00965059269219637,0.315548300743103,-0.948615312576294,[0. 0. 0. 0. 0. 0. 0. 0. 0.],0.06103515625,-0.48828125,-0.1220703125,[0. 0. 0. 0. 0. 0. 0. 0. 0.],-0.03271484375,0.03466796875,1.0009765625,[0. 0. 0. 0. 0. 0. 0. 0. 0.]
4.909111022949219,-0.02086103893816471,-0.010647958144545555,0.31561028957366943,-0.9485998153686523,[0. 0. 0. 0. 0. 0. 0. 0. 0.],0.0,-0.8544921875,-0.244140625,[0. 0. 0. 0. 0. 0. 0. 0. 0.],-0.033203125,0.033203125,1.00048828125,[0. 0. 0. 0. 0. 0. 0. 0. 0.]
4.926241397857666,-0.021619586274027824,-0.012227226048707962,0.3156489133834839,-0.9485509395599365,[0. 0. 0. 0. 0. 0. 0. 0. 0.],0.0,-1.03759765625,-0.30517578125,[0. 0. 0. 0. 0. 0. 0. 0. 0.],-0.0361328125,0.033203125,1.00146484375,[0. 0. 0. 0. 0. 0. 0. 0. 0.]
4.94687294960022,-0.021196134388446808,-0.0112819354981184,0.3156721889972687,-0.9485644102096558,[0. 0. 0. 0. 0. 0. 0. 0. 0.],-0.244140625,-0.91552734375,-0.244140625,[0. 0. 0. 0. 0. 0. 0. 0. 0.],-0.03466796875,0.03369140625,1.00341796875,[0. 0. 0. 0. 0. 0. 0. 0. 0.]
4.964775800704956,-0.021361930295825005,-0.010470925830304623,0.3156754672527313,-0.9485689997673035,[0. 0. 0. 0. 0. 0. 0. 0. 0.],-0.06103515625,-0.30517578125,-0.1220703125,[0. 0. 0. 0. 0. 0. 0. 0. 0.],-0.03369140625,0.0341796875,1.00244140625,[0. 0. 0. 0. 0. 0. 0. 0. 0.]
4.984981536865234,-0.02123616822063923,-0.010592740029096603,0.31570130586624146,-0.9485618472099304,[0. 0. 0. 0. 0. 0. 0. 0. 0.],0.0,-0.67138671875,0.06103515625,[0. 0. 0. 0. 0. 0. 0. 0. 0.],-0.03369140625,0.033203125,1.00439453125,[0. 0. 0. 0. 0. 0. 0. 0. 0.]
4.999571800231934,-0.021154683083295822,-0.010582368820905685,0.31572914123535156,-0.948554515838623,[0. 0. 0. 0. 0. 0. 0. 0. 0.],0.0,-1.0986328125,-0.244140625,[0. 0. 0. 0. 0. 0. 0. 0. 0.],-0.03369140625,0.033203125,1.00146484375,[0. 0. 0. 0. 0. 0. 0. 0. 0.]
5.02861213684082,-0.021204078570008278,-0.010622741654515266,0.3157493472099304,-0.948546290397644,[0. 0. 0. 0. 0. 0. 0. 0. 0.],-0.06103515625,-0.79345703125,-0.18310546875,[0. 0. 0. 0. 0. 0. 0. 0. 0.],-0.03369140625,0.033203125,1.001953125,[0. 0. 0. 0. 0. 0. 0. 0. 0.]
5.042490243911743,-0.020910825580358505,-0.010170734487473965,0.3157680630683899,-0.9485514163970947,[0. 0. 0. 0. 0. 0. 0. 0. 0.],-0.244140625,-0.48828125,-0.1220703125,[0. 0. 0. 0. 0. 0. 0. 0. 0.],-0.03271484375,0.03369140625,1.001953125,[0. 0. 0. 0. 0. 0. 0. 0. 0.]
5.063381671905518,-0.021776394918560982,-0.01074917521327734,0.3157978057861328,-0.9485156536102295,[0. 0. 0. 0. 0. 0. 0. 0. 0.],-0.244140625,-0.3662109375,-0.18310546875,[0. 0. 0. 0. 0. 0. 0. 0. 0.],-0.0341796875,0.03466796875,1.00244140625,[0. 0. 0. 0. 0. 0. 0. 0. 0.]
5.0896477699279785,-0.02075781300663948,-0.010939029045403004,0.31584012508392334,-0.9485222697257996,[0. 0. 0. 0. 0. 0. 0. 0. 0.],0.06103515625,-0.30517578125,0.06103515625,[0. 0. 0. 0. 0. 0. 0. 0. 0.],-0.03466796875,0.0322265625,1.00341796875,[0. 0. 0. 0. 0. 0. 0. 0. 0.]
5.104984283447266,-0.020441481843590736,-0.0112855713814497,0.31587105989456177,-0.9485148787498474,[0. 0. 0. 0. 0. 0. 0. 0. 0.],-0.244140625,-1.03759765625,-0.18310546875,[0. 0. 0. 0. 0. 0. 0. 0. 0.],-0.03466796875,0.0322265625,1.0029296875,[0. 0. 0. 0. 0. 0. 0. 0. 0.]
5.12258243560791,-0.021947339177131653,-0.01106493454426527,0.3158646821975708,-0.9484859108924866,[0. 0. 0. 0. 0. 0. 0. 0. 0.],-0.06103515625,-0.8544921875,-0.30517578125,[0. 0. 0. 0. 0. 0. 0. 0. 0.],-0.03466796875,0.03466796875,1.00341796875,[0. 0. 0. 0. 0. 0. 0. 0. 0.]
5.144730567932129,-0.020862344652414322,-0.010294039733707905,0.31589430570602417,-0.948509156703949,[0. 0. 0. 0. 0. 0. 0. 0. 0.],-0.1220703125,-0.79345703125,-0.06103515625,[0. 0. 0. 0. 0. 0. 0. 0. 0.],-0.033203125,0.03271484375,1.0029296875,[0. 0. 0. 0. 0. 0. 0. 0. 0.]
5.165326833724976,-0.021195661276578903,-0.010769288055598736,0.3159198760986328,-0.9484879970550537,[0. 0. 0. 0. 0. 0. 0. 0. 0.],-0.18310546875,-0.3662109375,0.0,[0. 0. 0. 0. 0. 0. 0. 0. 0.],-0.0341796875,0.03369140625,1.0029296875,[0. 0. 0. 0. 0. 0. 0. 0. 0.]
5.186684846878052,-0.02109723724424839,-0.010937334969639778,0.31595292687416077,-0.9484771490097046,[0. 0. 0. 0. 0. 0. 0. 0. 0.],-0.1220703125,-0.42724609375,-0.06103515625,[0. 0. 0. 0. 0. 0. 0. 0. 0.],-0.0341796875,0.03271484375,1.0009765625,[0. 0. 0. 0. 0. 0. 0. 0. 0.]
5.204725027084351,-0.021016975864768028,-0.010838731192052364,0.31598642468452454,-0.9484690427780151,[0. 0. 0. 0. 0. 0. 0. 0. 0.],-0.06103515625,-0.79345703125,-0.18310546875,[0. 0. 0. 0. 0. 0. 0. 0. 0.],-0.03466796875,0.033203125,1.00341796875,[0. 0. 0. 0. 0. 0. 0. 0. 0.]
5.225913763046265,-0.020733369514346123,-0.010737456381320953,0.31602537631988525,-0.9484633803367615,[0. 0. 0. 0. 0. 0. 0. 0. 0.],-0.06103515625,-1.0986328125,-0.30517578125,[0. 0. 0. 0. 0. 0. 0. 0. 0.],-0.03369140625,0.03271484375,1.00341796875,[0. 0. 0. 0. 0. 0. 0. 0. 0.]
5.24471116065979,-0.0211801640689373,-0.010512501001358032,0.3160347640514374,-0.9484530091285706,[0. 0. 0. 0. 0. 0. 0. 0. 0.],-0.18310546875,-0.732421875,-0.1220703125,[0. 0. 0. 0. 0. 0. 0. 0. 0.],-0.0341796875,0.03369140625,1.00146484375,[0. 0. 0. 0. 0. 0. 0. 0. 0.]
5.264612913131714,-0.020826973021030426,-0.011552572250366211,0.31609150767326355,-0.9484297037124634,[0. 0. 0. 0. 0. 0. 0. 0. 0.],-0.18310546875,-0.3662109375,-0.06103515625,[0. 0. 0. 0. 0. 0. 0. 0. 0.],-0.03466796875,0.0322265625,1.0029296875,[0. 0. 0. 0. 0. 0. 0. 0. 0.]
5.284936904907227,-0.021414490416646004,-0.011052271351218224,0.31610915064811707,-0.9484167098999023,[0. 0. 0. 0. 0. 0. 0. 0. 0.],-0.06103515625,-0.48828125,-0.18310546875,[0. 0. 0. 0. 0. 0. 0. 0. 0.],-0.03466796875,0.03369140625,1.00341796875,[0. 0. 0. 0. 0. 0. 0. 0. 0.]
5.304579257965088,-0.021517805755138397,-0.010355683043599129,0.3161209225654602,-0.948418378829956,[0. 0. 0. 0. 0. 0. 0. 0. 0.],-0.06103515625,-0.8544921875,-0.1220703125,[0. 0. 0. 0. 0. 0. 0. 0. 0.],-0.033203125,0.03466796875,1.00390625,[0. 0. 0. 0. 0. 0. 0. 0. 0.]
5.325505256652832,-0.02110862173140049,-0.011045224964618683,0.3161742389202118,-0.948401927947998,[0. 0. 0. 0. 0. 0. 0. 0. 0.],0.0,-0.91552734375,-0.48828125,[0. 0. 0. 0. 0. 0. 0. 0. 0.],-0.03466796875,0.033203125,1.00390625,[0. 0. 0. 0. 0. 0. 0. 0. 0.]
5.346848487854004,-0.021892376244068146,-0.01091284304857254,0.3161896765232086,-0.9483806490898132,[0. 0. 0. 0. 0. 0. 0. 0. 0.],-0.1220703125,-0.9765625,-0.30517578125,[0. 0. 0. 0. 0. 0. 0. 0. 0.],-0.03466796875,0.03466796875,1.0048828125,[0. 0. 0. 0. 0. 0. 0. 0. 0.]
5.36626935005188,-0.021706026047468185,-0.011204474605619907,0.316217839717865,-0.9483721256256104,[0. 0. 0. 0. 0. 0. 0. 0. 0.],-0.30517578125,-0.48828125,-0.06103515625,[0. 0. 0. 0. 0. 0. 0. 0. 0.],-0.03515625,0.0341796875,1.0029296875,[0. 0. 0. 0. 0. 0. 0. 0. 0.]
5.3883137702941895,-0.021025056019425392,-0.01047420222312212,0.3162616789340973,-0.948381245136261,[0. 0. 0. 0. 0. 0. 0. 0. 0.],-0.1220703125,-0.48828125,-0.18310546875,[0. 0. 0. 0. 0. 0. 0. 0. 0.],-0.0341796875,0.033203125,1.00146484375,[0. 0. 0. 0. 0. 0. 0. 0. 0.]
5.402771472930908,-0.02113354206085205,-0.010551024228334427,0.3162909746170044,-0.9483680725097656,[0. 0. 0. 0. 0. 0. 0. 0. 0.],-0.1220703125,-0.9765625,-0.3662109375,[0. 0. 0. 0. 0. 0. 0. 0. 0.],-0.03369140625,0.03271484375,1.0009765625,[0. 0. 0. 0. 0. 0. 0. 0. 0.]
5.424502611160278,-0.02212090604007244,-0.010407881811261177,0.3162924349308014,-0.948346734046936,[0. 0. 0. 0. 0. 0. 0. 0. 0.],0.06103515625,-0.8544921875,-0.30517578125,[0. 0. 0. 0. 0. 0. 0. 0. 0.],-0.03369140625,0.03466796875,1.00341796875,[0. 0. 0. 0. 0. 0. 0. 0. 0.]
5.439526081085205,-0.022095218300819397,-0.010527986101806164,0.3163132965564728,-0.94833904504776,[0. 0. 0. 0. 0. 0. 0. 0. 0.],-0.1220703125,-0.48828125,0.0,[0. 0. 0. 0. 0. 0. 0. 0. 0.],-0.03369140625,0.03466796875,1.00244140625,[0. 0. 0. 0. 0. 0. 0. 0. 0.]
5.459858655929565,-0.02157828025519848,-0.011141777038574219,0.31636759638786316,-0.9483257532119751,[0. 0. 0. 0. 0. 0. 0. 0. 0.],0.18310546875,-0.30517578125,-0.1220703125,[0. 0. 0. 0. 0. 0. 0. 0. 0.],-0.03466796875,0.0341796875,1.0029296875,[0. 0. 0. 0. 0. 0. 0. 0. 0.]
5.487199068069458,-0.020297084003686905,-0.010834735818207264,0.3164270520210266,-0.9483377933502197,[0. 0. 0. 0. 0. 0. 0. 0. 0.],0.06103515625,-0.18310546875,-0.1220703125,[0. 0. 0. 0. 0. 0. 0. 0. 0.],-0.0341796875,0.03173828125,1.00390625,[0. 0. 0. 0. 0. 0. 0. 0. 0.]
5.504686117172241,-0.020733032375574112,-0.010709907859563828,0.3164426386356354,-0.9483246207237244,[0. 0. 0. 0. 0. 0. 0. 0. 0.],-0.06103515625,-0.9765625,-0.244140625,[0. 0. 0. 0. 0. 0. 0. 0. 0.],-0.03369140625,0.03271484375,1.0029296875,[0. 0. 0. 0. 0. 0. 0. 0. 0.]
5.52753210067749,-0.02142801135778427,-0.010255162604153156,0.316443532705307,-0.94831383228302,[0. 0. 0. 0. 0. 0. 0. 0. 0.],-0.18310546875,-0.79345703125,-0.18310546875,[0. 0. 0. 0. 0. 0. 0. 0. 0.],-0.033203125,0.0341796875,1.0009765625,[0. 0. 0. 0. 0. 0. 0. 0. 0.]
5.544795036315918,-0.021919503808021545,-0.010770007036626339,0.3164772093296051,-0.9482857584953308,[0. 0. 0. 0. 0. 0. 0. 0. 0.],-0.18310546875,-0.244140625,-0.1220703125,[0. 0. 0. 0. 0. 0. 0. 0. 0.],-0.0341796875,0.03466796875,1.00146484375,[0. 0. 0. 0. 0. 0. 0. 0. 0.]
5.56742525100708,-0.021421324461698532,-0.01092573907226324,0.31651246547698975,-0.9482835531234741,[0. 0. 0. 0. 0. 0. 0. 0. 0.],0.1220703125,-0.30517578125,0.0,[0. 0. 0. 0. 0. 0. 0. 0. 0.],-0.03466796875,0.0341796875,1.0029296875,[0. 0. 0. 0. 0. 0. 0. 0. 0.]
5.579543828964233,-0.02118127979338169,-0.011063393205404282,0.3165476620197296,-0.948275625705719,[0. 0. 0. 0. 0. 0. 0. 0. 0.],0.0,-0.732421875,-0.244140625,[0. 0. 0. 0. 0. 0. 0. 0. 0.],-0.0341796875,0.033203125,1.00341796875,[0. 0. 0. 0. 0. 0. 0. 0. 0.]
5.602190732955933,-0.021236401051282883,-0.010931146331131458,0.31656789779663086,-0.9482691287994385,[0. 0. 0. 0. 0. 0. 0. 0. 0.],0.06103515625,-0.732421875,-0.1220703125,[0. 0. 0. 0. 0. 0. 0. 0. 0.],-0.03369140625,0.03369140625,1.0029296875,[0. 0. 0. 0. 0. 0. 0. 0. 0.]
5.624881267547607,-0.021525586023926735,-0.010712264105677605,0.31657490134239197,-0.9482627511024475,[0. 0. 0. 0. 0. 0. 0. 0. 0.],0.0,-1.0986328125,-0.18310546875,[0. 0. 0. 0. 0. 0. 0. 0. 0.],-0.0341796875,0.0341796875,1.0029296875,[0. 0. 0. 0. 0. 0. 0. 0. 0.]
5.645528554916382,-0.020491357892751694,-0.010554115287959576,0.3166223466396332,-0.9482715725898743,[0. 0. 0. 0. 0. 0. 0. 0. 0.],-0.18310546875,-0.6103515625,-0.18310546875,[0. 0. 0. 0. 0. 0. 0. 0. 0.],-0.033203125,0.03271484375,1.00244140625,[0. 0. 0. 0. 0. 0. 0. 0. 0.]
5.665143966674805,-0.021275654435157776,-0.010764147154986858,0.31663811206817627,-0.9482467174530029,[0. 0. 0. 0. 0. 0. 0. 0. 0.],-0.18310546875,-0.244140625,-0.06103515625,[0. 0. 0. 0. 0. 0. 0. 0. 0.],-0.0341796875,0.0341796875,1.00244140625,[0. 0. 0. 0. 0. 0. 0. 0. 0.]
5.686628580093384,-0.02099578268826008,-0.010642270557582378,0.3166820704936981,-0.9482396841049194,[0. 0. 0. 0. 0. 0. 0. 0. 0.],0.0,-0.42724609375,-0.1220703125,[0. 0. 0. 0. 0. 0. 0. 0. 0.],-0.0341796875,0.033203125,1.00341796875,[0. 0. 0. 0. 0. 0. 0. 0. 0.]
5.704375743865967,-0.021283242851495743,-0.010964673012495041,0.31671372056007385,-0.9482189416885376,[0. 0. 0. 0. 0. 0. 0. 0. 0.],0.18310546875,-0.91552734375,-0.1220703125,[0. 0. 0. 0. 0. 0. 0. 0. 0.],-0.0341796875,0.033203125,1.00341796875,[0. 0. 0. 0. 0. 0. 0. 0. 0.]
5.726235628128052,-0.02114834077656269,-0.010953862220048904,0.31673407554626465,-0.9482154250144958,[0. 0. 0. 0. 0. 0. 0. 0. 0.],0.06103515625,-1.03759765625,-0.18310546875,[0. 0. 0. 0. 0. 0. 0. 0. 0.],-0.03369140625,0.033203125,1.001953125,[0. 0. 0. 0. 0. 0. 0. 0. 0.]
5.743513107299805,-0.021104559302330017,-0.010896889492869377,0.3167596757411957,-0.9482084512710571,[0. 0. 0. 0. 0. 0. 0. 0. 0.],-0.1220703125,-0.6103515625,-0.244140625,[0. 0. 0. 0. 0. 0. 0. 0. 0.],-0.0341796875,0.033203125,1.00146484375,[0. 0. 0. 0. 0. 0. 0. 0. 0.]
5.76520299911499,-0.02102348767220974,-0.010763353668153286,0.31678447127342224,-0.9482035040855408,[0. 0. 0. 0. 0. 0. 0. 0. 0.],-0.1220703125,-0.244140625,0.0,[0. 0. 0. 0. 0. 0. 0. 0. 0.],-0.03369140625,0.03369140625,1.001953125,[0. 0. 0. 0. 0. 0. 0. 0. 0.]
5.786247491836548,-0.021348629146814346,-0.009923596866428852,0.31679314374923706,-0.9482024908065796,[0. 0. 0. 0. 0. 0. 0. 0. 0.],-0.1220703125,-0.48828125,-0.1220703125,[0. 0. 0. 0. 0. 0. 0. 0. 0.],-0.03271484375,0.0341796875,1.00341796875,[0. 0. 0. 0. 0. 0. 0. 0. 0.]
5.805127143859863,-0.021328413859009743,-0.01084147673100233,0.31683453917503357,-0.9481791257858276,[0. 0. 0. 0. 0. 0. 0. 0. 0.],-0.06103515625,-0.9765625,-0.244140625,[0. 0. 0. 0. 0. 0. 0. 0. 0.],-0.0341796875,0.03369140625,1.001953125,[0. 0. 0. 0. 0. 0. 0. 0. 0.]
5.824914455413818,-0.021463481709361076,-0.010608239099383354,0.3168690502643585,-0.9481672048568726,[0. 0. 0. 0. 0. 0. 0. 0. 0.],-0.06103515625,-0.79345703125,-0.18310546875,[0. 0. 0. 0. 0. 0. 0. 0. 0.],-0.0341796875,0.0341796875,1.00048828125,[0. 0. 0. 0. 0. 0. 0. 0. 0.]
5.847083568572998,-0.021549995988607407,-0.010768071748316288,0.3168928325176239,-0.9481553435325623,[0. 0. 0. 0. 0. 0. 0. 0. 0.],-0.1220703125,-0.3662109375,-0.1220703125,[0. 0. 0. 0. 0. 0. 0. 0. 0.],-0.0341796875,0.03369140625,1.00146484375,[0. 0. 0. 0. 0. 0. 0. 0. 0.]
5.865147829055786,-0.021401559934020042,-0.01060004997998476,0.3169291913509369,-0.9481484293937683,[0. 0. 0. 0. 0. 0. 0. 0. 0.],-0.06103515625,-0.3662109375,-0.1220703125,[0. 0. 0. 0. 0. 0. 0. 0. 0.],-0.03369140625,0.0341796875,1.001953125,[0. 0. 0. 0. 0. 0. 0. 0. 0.]
5.884658098220825,-0.021152842789888382,-0.011468946933746338,0.31697964668273926,-0.9481271505355835,[0. 0. 0. 0. 0. 0. 0. 0. 0.],0.0,-0.6103515625,-0.1220703125,[0. 0. 0. 0. 0. 0. 0. 0. 0.],-0.03515625,0.033203125,1.00146484375,[0. 0. 0. 0. 0. 0. 0. 0. 0.]
5.905758619308472,-0.020804693922400475,-0.010553186759352684,0.31701576709747314,-0.9481334686279297,[0. 0. 0. 0. 0. 0. 0. 0. 0.],0.0,-1.03759765625,-0.42724609375,[0. 0. 0. 0. 0. 0. 0. 0. 0.],-0.03369140625,0.033203125,1.00439453125,[0. 0. 0. 0. 0. 0. 0. 0. 0.]
5.924756765365601,-0.02129044383764267,-0.0105590196326375,0.3170408606529236,-0.9481140375137329,[0. 0. 0. 0. 0. 0. 0. 0. 0.],-0.06103515625,-0.8544921875,-0.18310546875,[0. 0. 0. 0. 0. 0. 0. 0. 0.],-0.033203125,0.0341796875,1.0029296875,[0. 0. 0. 0. 0. 0. 0. 0. 0.]
5.944777488708496,-0.021363945677876472,-0.010698001831769943,0.31707584857940674,-0.9480991959571838,[0. 0. 0. 0. 0. 0. 0. 0. 0.],-0.06103515625,-0.42724609375,-0.18310546875,[0. 0. 0. 0. 0. 0. 0. 0. 0.],-0.03369140625,0.03369140625,1.001953125,[0. 0. 0. 0. 0. 0. 0. 0. 0.]
5.969688653945923,-0.020964158698916435,-0.010489878244698048,0.3171229660511017,-0.9480946660041809,[0. 0. 0. 0. 0. 0. 0. 0. 0.],-0.18310546875,-0.30517578125,-0.1220703125,[0. 0. 0. 0. 0. 0. 0. 0. 0.],-0.033203125,0.03271484375,1.00146484375,[0. 0. 0. 0. 0. 0. 0. 0. 0.]
5.979820013046265,-0.020466316491365433,-0.010562200099229813,0.3171660006046295,-0.9480903744697571,[0. 0. 0. 0. 0. 0. 0. 0. 0.],0.0,-0.8544921875,-0.244140625,[0. 0. 0. 0. 0. 0. 0. 0. 0.],-0.033203125,0.03271484375,1.0009765625,[0. 0. 0. 0. 0. 0. 0. 0. 0.]
5.999629497528076,-0.02085638977587223,-0.010800602845847607,0.31718456745147705,-0.9480729103088379,[0. 0. 0. 0. 0. 0. 0. 0. 0.],0.06103515625,-1.0986328125,-0.18310546875,[0. 0. 0. 0. 0. 0. 0. 0. 0.],-0.03369140625,0.033203125,1.00341796875,[0. 0. 0. 0. 0. 0. 0. 0. 0.]
6.024774551391602,-0.021327340975403786,-0.010904902592301369,0.31719914078712463,-0.9480563998222351,[0. 0. 0. 0. 0. 0. 0. 0. 0.],0.0,-0.67138671875,-0.1220703125,[0. 0. 0. 0. 0. 0. 0. 0. 0.],-0.03369140625,0.03369140625,1.00146484375,[0. 0. 0. 0. 0. 0. 0. 0. 0.]
6.044722080230713,-0.02154688537120819,-0.011450318619608879,0.31723207235336304,-0.9480340480804443,[0. 0. 0. 0. 0. 0. 0. 0. 0.],-0.1220703125,-0.244140625,-0.1220703125,[0. 0. 0. 0. 0. 0. 0. 0. 0.],-0.03515625,0.033203125,1.0009765625,[0. 0. 0. 0. 0. 0. 0. 0. 0.]
6.065282106399536,-0.02147241309285164,-0.010474062524735928,0.31726083159446716,-0.9480373859405518,[0. 0. 0. 0. 0. 0. 0. 0. 0.],-0.06103515625,-0.3662109375,-0.1220703125,[0. 0. 0. 0. 0. 0. 0. 0. 0.],-0.03369140625,0.0341796875,1.0029296875,[0. 0. 0. 0. 0. 0. 0. 0. 0.]
6.085757493972778,-0.021065637469291687,-0.011204954236745834,0.31731918454170227,-0.9480186700820923,[0. 0. 0. 0. 0. 0. 0. 0. 0.],-0.06103515625,-0.3662109375,-0.06103515625,[0. 0. 0. 0. 0. 0. 0. 0. 0.],-0.03564453125,0.03271484375,1.001953125,[0. 0. 0. 0. 0. 0. 0. 0. 0.]
6.10497784614563,-0.020967282354831696,-0.011059539392590523,0.31735706329345703,-0.9480098485946655,[0. 0. 0. 0. 0. 0. 0. 0. 0.],0.1220703125,-0.91552734375,-0.3662109375,[0. 0. 0. 0. 0. 0. 0. 0. 0.],-0.03369140625,0.03271484375,1.0029296875,[0. 0. 0. 0. 0. 0. 0. 0. 0.]
6.125298738479614,-0.020832419395446777,-0.010987223125994205,0.31738272309303284,-0.9480050206184387,[0. 0. 0. 0. 0. 0. 0. 0. 0.],-0.1220703125,-0.732421875,-0.244140625,[0. 0. 0. 0. 0. 0. 0. 0. 0.],-0.0341796875,0.03271484375,1.0029296875,[0. 0. 0. 0. 0. 0. 0. 0. 0.]
6.139713525772095,-0.02164273150265217,-0.010977995581924915,0.31739190220832825,-0.9479838609695435,[0. 0. 0. 0. 0. 0. 0. 0. 0.],-0.1220703125,-0.67138671875,-0.1220703125,[0. 0. 0. 0. 0. 0. 0. 0. 0.],-0.03466796875,0.03369140625,1.0009765625,[0. 0. 0. 0. 0. 0. 0. 0. 0.]
6.16493821144104,-0.021901076659560204,-0.011145230382680893,0.3174189031124115,-0.947966992855072,[0. 0. 0. 0. 0. 0. 0. 0. 0.],-0.1220703125,-0.244140625,-0.06103515625,[0. 0. 0. 0. 0. 0. 0. 0. 0.],-0.03515625,0.0341796875,1.0009765625,[0. 0. 0. 0. 0. 0. 0. 0. 0.]
6.18555212020874,-0.02167471870779991,-0.01059449091553688,0.31745487451553345,-0.947966456413269,[0. 0. 0. 0. 0. 0. 0. 0. 0.],0.0,-0.48828125,-0.06103515625,[0. 0. 0. 0. 0. 0. 0. 0. 0.],-0.0341796875,0.0341796875,1.00048828125,[0. 0. 0. 0. 0. 0. 0. 0. 0.]
6.204865217208862,-0.020017072558403015,-0.010870508849620819,0.3175209164619446,-0.9479777216911316,[0. 0. 0. 0. 0. 0. 0. 0. 0.],-0.06103515625,-0.9765625,-0.30517578125,[0. 0. 0. 0. 0. 0. 0. 0. 0.],-0.03369140625,0.03173828125,1.00244140625,[0. 0. 0. 0. 0. 0. 0. 0. 0.]
6.220111846923828,-0.020922722294926643,-0.01091821026057005,0.3175294101238251,-0.9479547739028931,[0. 0. 0. 0. 0. 0. 0. 0. 0.],-0.06103515625,-0.8544921875,-0.244140625,[0. 0. 0. 0. 0. 0. 0. 0. 0.],-0.0341796875,0.03271484375,1.0029296875,[0. 0. 0. 0. 0. 0. 0. 0. 0.]
6.244687080383301,-0.020874731242656708,-0.010693102143704891,0.31755685806274414,-0.9479491710662842,[0. 0. 0. 0. 0. 0. 0. 0. 0.],-0.244140625,-0.48828125,-0.1220703125,[0. 0. 0. 0. 0. 0. 0. 0. 0.],-0.03369140625,0.03271484375,1.00439453125,[0. 0. 0. 0. 0. 0. 0. 0. 0.]
6.260890007019043,-0.02174290642142296,-0.010835029184818268,0.3175710141658783,-0.9479232430458069,[0. 0. 0. 0. 0. 0. 0. 0. 0.],0.06103515625,-0.30517578125,0.06103515625,[0. 0. 0. 0. 0. 0. 0. 0. 0.],-0.03466796875,0.03466796875,1.00146484375,[0. 0. 0. 0. 0. 0. 0. 0. 0.]
6.2857115268707275,-0.021273411810398102,-0.011147855781018734,0.3176257610321045,-0.9479120373725891,[0. 0. 0. 0. 0. 0. 0. 0. 0.],0.0,-0.54931640625,-0.06103515625,[0. 0. 0. 0. 0. 0. 0. 0. 0.],-0.03515625,0.03369140625,1.001953125,[0. 0. 0. 0. 0. 0. 0. 0. 0.]
6.305281162261963,-0.02101992443203926,-0.01088133454322815,0.317648321390152,-0.9479132294654846,[0. 0. 0. 0. 0. 0. 0. 0. 0.],0.0,-0.8544921875,-0.244140625,[0. 0. 0. 0. 0. 0. 0. 0. 0.],-0.0341796875,0.033203125,1.00244140625,[0. 0. 0. 0. 0. 0. 0. 0. 0.]
6.324707508087158,-0.02065373584628105,-0.011667677201330662,0.31768208742141724,-0.9479005336761475,[0. 0. 0. 0. 0. 0. 0. 0. 0.],0.0,-0.79345703125,-0.1220703125,[0. 0. 0. 0. 0. 0. 0. 0. 0.],-0.0361328125,0.03173828125,1.0009765625,[0. 0. 0. 0. 0. 0. 0. 0. 0.]
6.344709634780884,-0.02147977240383625,-0.01102504599839449,0.31769025325775146,-0.9478871822357178,[0. 0. 0. 0. 0. 0. 0. 0. 0.],-0.06103515625,-0.3662109375,-0.1220703125,[0. 0. 0. 0. 0. 0. 0. 0. 0.],-0.03466796875,0.03369140625,1.00048828125,[0. 0. 0. 0. 0. 0. 0. 0. 0.]
6.3596813678741455,-0.02119564078748226,-0.01064630039036274,0.3177180588245392,-0.9478884935379028,[0. 0. 0. 0. 0. 0. 0. 0. 0.],0.1220703125,-0.3662109375,0.06103515625,[0. 0. 0. 0. 0. 0. 0. 0. 0.],-0.03369140625,0.03369140625,1.00146484375,[0. 0. 0. 0. 0. 0. 0. 0. 0.]
6.385419845581055,-0.02207866869866848,-0.01081728097051382,0.3177400231361389,-0.9478591084480286,[0. 0. 0. 0. 0. 0. 0. 0. 0.],-0.06103515625,-0.6103515625,-0.1220703125,[0. 0. 0. 0. 0. 0. 0. 0. 0.],-0.03466796875,0.03515625,1.001953125,[0. 0. 0. 0. 0. 0. 0. 0. 0.]
6.404836416244507,-0.0213344544172287,-0.010689406655728817,0.3177908957004547,-0.947860598564148,[0. 0. 0. 0. 0. 0. 0. 0. 0.],-0.18310546875,-1.0986328125,-0.30517578125,[0. 0. 0. 0. 0. 0. 0. 0. 0.],-0.0341796875,0.03369140625,1.0029296875,[0. 0. 0. 0. 0. 0. 0. 0. 0.]
6.424556493759155,-0.020425016060471535,-0.010872523300349712,0.3178218603134155,-0.9478681683540344,[0. 0. 0. 0. 0. 0. 0. 0. 0.],-0.18310546875,-0.732421875,-0.18310546875,[0. 0. 0. 0. 0. 0. 0. 0. 0.],-0.03369140625,0.0322265625,1.00146484375,[0. 0. 0. 0. 0. 0. 0. 0. 0.]
6.444640159606934,-0.02150999754667282,-0.01052139513194561,0.31782856583595276,-0.9478458166122437,[0. 0. 0. 0. 0. 0. 0. 0. 0.],-0.18310546875,-0.3662109375,0.0,[0. 0. 0. 0. 0. 0. 0. 0. 0.],-0.03369140625,0.0341796875,1.0,[0. 0. 0. 0. 0. 0. 0. 0. 0.]
6.464679718017578,-0.022336091846227646,-0.010506432503461838,0.3178478181362152,-0.9478204250335693,[0. 0. 0. 0. 0. 0. 0. 0. 0.],-0.06103515625,-0.30517578125,-0.06103515625,[0. 0. 0. 0. 0. 0. 0. 0. 0.],-0.03466796875,0.03564453125,1.001953125,[0. 0. 0. 0. 0. 0. 0. 0. 0.]
6.484617471694946,-0.021615445613861084,-0.010903874412178993,0.317893385887146,-0.9478174448013306,[0. 0. 0. 0. 0. 0. 0. 0. 0.],0.06103515625,-0.8544921875,-0.18310546875,[0. 0. 0. 0. 0. 0. 0. 0. 0.],-0.03466796875,0.0341796875,1.00390625,[0. 0. 0. 0. 0. 0. 0. 0. 0.]
6.49995231628418,-0.02095927856862545,-0.011208194307982922,0.3179449439048767,-0.9478111863136292,[0. 0. 0. 0. 0. 0. 0. 0. 0.],0.0,-0.9765625,-0.18310546875,[0. 0. 0. 0. 0. 0. 0. 0. 0.],-0.03466796875,0.03271484375,1.0009765625,[0. 0. 0. 0. 0. 0. 0. 0. 0.]
6.525149822235107,-0.020918959751725197,-0.0111326789483428,0.3179682493209839,-0.9478051662445068,[0. 0. 0. 0. 0. 0. 0. 0. 0.],0.0,-1.03759765625,-0.18310546875,[0. 0. 0. 0. 0. 0. 0. 0. 0.],-0.03466796875,0.033203125,1.00146484375,[0. 0. 0. 0. 0. 0. 0. 0. 0.]
6.544975996017456,-0.021523669362068176,-0.009738798253238201,0.31796178221702576,-0.9478092193603516,[0. 0. 0. 0. 0. 0. 0. 0. 0.],-0.30517578125,-0.54931640625,-0.18310546875,[0. 0. 0. 0. 0. 0. 0. 0. 0.],-0.03271484375,0.03466796875,1.00048828125,[0. 0. 0. 0. 0. 0. 0. 0. 0.]
6.564589977264404,-0.021123183891177177,-0.010477432049810886,0.3180128335952759,-0.9477931261062622,[0. 0. 0. 0. 0. 0. 0. 0. 0.],0.0,-0.3662109375,-0.06103515625,[0. 0. 0. 0. 0. 0. 0. 0. 0.],-0.0341796875,0.033203125,1.00048828125,[0. 0. 0. 0. 0. 0. 0. 0. 0.]
6.58470344543457,-0.021173246204853058,-0.010322223417460918,0.31803807616233826,-0.9477852582931519,[0. 0. 0. 0. 0. 0. 0. 0. 0.],-0.1220703125,-0.3662109375,-0.18310546875,[0. 0. 0. 0. 0. 0. 0. 0. 0.],-0.033203125,0.03369140625,1.00244140625,[0. 0. 0. 0. 0. 0. 0. 0. 0.]
6.604759693145752,-0.02085156925022602,-0.010624418966472149,0.31809002161026,-0.9477716088294983,[0. 0. 0. 0. 0. 0. 0. 0. 0.],-0.1220703125,-0.9765625,-0.244140625,[0. 0. 0. 0. 0. 0. 0. 0. 0.],-0.0341796875,0.033203125,1.0029296875,[0. 0. 0. 0. 0. 0. 0. 0. 0.]
6.624675273895264,-0.0207456573843956,-0.010681995190680027,0.31811246275901794,-0.9477658867835999,[0. 0. 0. 0. 0. 0. 0. 0. 0.],-0.18310546875,-0.79345703125,-0.30517578125,[0. 0. 0. 0. 0. 0. 0. 0. 0.],-0.03369140625,0.033203125,1.00341796875,[0. 0. 0. 0. 0. 0. 0. 0. 0.]
6.645748853683472,-0.020924588665366173,-0.01046182494610548,0.3181338310241699,-0.9477572441101074,[0. 0. 0. 0. 0. 0. 0. 0. 0.],-0.06103515625,-0.42724609375,-0.06103515625,[0. 0. 0. 0. 0. 0. 0. 0. 0.],-0.03369140625,0.033203125,1.00244140625,[0. 0. 0. 0. 0. 0. 0. 0. 0.]
6.665699243545532,-0.021285785362124443,-0.010407318361103535,0.3181729018688202,-0.9477366209030151,[0. 0. 0. 0. 0. 0. 0. 0. 0.],-0.1220703125,-0.244140625,-0.1220703125,[0. 0. 0. 0. 0. 0. 0. 0. 0.],-0.03369140625,0.0341796875,1.001953125,[0. 0. 0. 0. 0. 0. 0. 0. 0.]
6.685666799545288,-0.02054232358932495,-0.010779871605336666,0.31823045015335083,-0.9477295279502869,[0. 0. 0. 0. 0. 0. 0. 0. 0.],-0.06103515625,-0.67138671875,-0.18310546875,[0. 0. 0. 0. 0. 0. 0. 0. 0.],-0.03369140625,0.03271484375,1.00146484375,[0. 0. 0. 0. 0. 0. 0. 0. 0.]
6.70799994468689,-0.021200915798544884,-0.011631978675723076,0.3182685971260071,-0.9476921558380127,[0. 0. 0. 0. 0. 0. 0. 0. 0.],0.1220703125,-0.91552734375,-0.244140625,[0. 0. 0. 0. 0. 0. 0. 0. 0.],-0.0361328125,0.03271484375,1.00390625,[0. 0. 0. 0. 0. 0. 0. 0. 0.]
6.724675178527832,-0.021143201738595963,-0.011546370573341846,0.31829091906547546,-0.9476869106292725,[0. 0. 0. 0. 0. 0. 0. 0. 0.],-0.1220703125,-0.8544921875,-0.18310546875,[0. 0. 0. 0. 0. 0. 0. 0. 0.],-0.03515625,0.033203125,1.00390625,[0. 0. 0. 0. 0. 0. 0. 0. 0.]
6.745819807052612,-0.021235520020127296,-0.010200119577348232,0.3182846009731293,-0.9477025866508484,[0. 0. 0. 0. 0. 0. 0. 0. 0.],-0.18310546875,-0.42724609375,-0.06103515625,[0. 0. 0. 0. 0. 0. 0. 0. 0.],-0.033203125,0.0341796875,1.0029296875,[0. 0. 0. 0. 0. 0. 0. 0. 0.]
6.765510559082031,-0.021676454693078995,-0.010316848754882812,0.3183234930038452,-0.9476782083511353,[0. 0. 0. 0. 0. 0. 0. 0. 0.],-0.1220703125,-0.3662109375,-0.1220703125,[0. 0. 0. 0. 0. 0. 0. 0. 0.],-0.03369140625,0.0341796875,1.00244140625,[0. 0. 0. 0. 0. 0. 0. 0. 0.]
6.78480863571167,-0.020551802590489388,-0.010453050024807453,0.3183780908584595,-0.9476834535598755,[0. 0. 0. 0. 0. 0. 0. 0. 0.],-0.1220703125,-0.6103515625,-0.244140625,[0. 0. 0. 0. 0. 0. 0. 0. 0.],-0.03369140625,0.0322265625,1.00146484375,[0. 0. 0. 0. 0. 0. 0. 0. 0.]
6.80468225479126,-0.020942464470863342,-0.010689768940210342,0.31840094923973083,-0.9476645588874817,[0. 0. 0. 0. 0. 0. 0. 0. 0.],0.0,-1.0986328125,-0.18310546875,[0. 0. 0. 0. 0. 0. 0. 0. 0.],-0.03369140625,0.033203125,1.001953125,[0. 0. 0. 0. 0. 0. 0. 0. 0.]
6.825111627578735,-0.021276284009218216,-0.01067378744482994,0.3184201717376709,-0.9476508498191833,[0. 0. 0. 0. 0. 0. 0. 0. 0.],-0.06103515625,-0.732421875,-0.18310546875,[0. 0. 0. 0. 0. 0. 0. 0. 0.],-0.0341796875,0.03369140625,1.00244140625,[0. 0. 0. 0. 0. 0. 0. 0. 0.]
6.839660882949829,-0.021487515419721603,-0.010609717108309269,0.31844139099121094,-0.9476396441459656,[0. 0. 0. 0. 0. 0. 0. 0. 0.],-0.244140625,-0.42724609375,-0.1220703125,[0. 0. 0. 0. 0. 0. 0. 0. 0.],-0.03369140625,0.0341796875,1.0029296875,[0. 0. 0. 0. 0. 0. 0. 0. 0.]
6.86541485786438,-0.021369751542806625,-0.010561238043010235,0.31846892833709717,-0.9476335644721985,[0. 0. 0. 0. 0. 0. 0. 0. 0.],-0.1220703125,-0.42724609375,0.0,[0. 0. 0. 0. 0. 0. 0. 0. 0.],-0.03369140625,0.0341796875,1.00341796875,[0. 0. 0. 0. 0. 0. 0. 0. 0.]
6.886138916015625,-0.02134796604514122,-0.010499987751245499,0.31849154829978943,-0.9476271271705627,[0. 0. 0. 0. 0. 0. 0. 0. 0.],-0.18310546875,-0.8544921875,-0.06103515625,[0. 0. 0. 0. 0. 0. 0. 0. 0.],-0.03369140625,0.03369140625,1.0029296875,[0. 0. 0. 0. 0. 0. 0. 0. 0.]
6.906243324279785,-0.021370191127061844,-0.01106276549398899,0.3185264468193054,-0.9476085901260376,[0. 0. 0. 0. 0. 0. 0. 0. 0.],-0.06103515625,-1.0986328125,-0.244140625,[0. 0. 0. 0. 0. 0. 0. 0. 0.],-0.0341796875,0.033203125,1.0029296875,[0. 0. 0. 0. 0. 0. 0. 0. 0.]
6.91985821723938,-0.02142549864947796,-0.010976252146065235,0.31854447722435,-0.9476021528244019,[0. 0. 0. 0. 0. 0. 0. 0. 0.],-0.06103515625,-0.732421875,-0.18310546875,[0. 0. 0. 0. 0. 0. 0. 0. 0.],-0.0341796875,0.03369140625,1.00244140625,[0. 0. 0. 0. 0. 0. 0. 0. 0.]
6.944711685180664,-0.021437151357531548,-0.01097614225000143,0.3185882866382599,-0.9475871920585632,[0. 0. 0. 0. 0. 0. 0. 0. 0.],-0.06103515625,-0.3662109375,0.0,[0. 0. 0. 0. 0. 0. 0. 0. 0.],-0.03466796875,0.03369140625,1.00244140625,[0. 0. 0. 0. 0. 0. 0. 0. 0.]
6.9600019454956055,-0.02141805924475193,-0.010867676697671413,0.31862834095954895,-0.9475755095481873,[0. 0. 0. 0. 0. 0. 0. 0. 0.],-0.06103515625,-0.6103515625,-0.18310546875,[0. 0. 0. 0. 0. 0. 0. 0. 0.],-0.03466796875,0.03369140625,1.00341796875,[0. 0. 0. 0. 0. 0. 0. 0. 0.]
6.98544979095459,-0.021633008494973183,-0.010922274552285671,0.3186406195163727,-0.9475657939910889,[0. 0. 0. 0. 0. 0. 0. 0. 0.],-0.06103515625,-0.54931640625,-0.06103515625,[0. 0. 0. 0. 0. 0. 0. 0. 0.],-0.03515625,0.03369140625,1.0048828125,[0. 0. 0. 0. 0. 0. 0. 0. 0.]
6.999540328979492,-0.021449347957968712,-0.010741148144006729,0.3186672031879425,-0.9475630521774292,[0. 0. 0. 0. 0. 0. 0. 0. 0.],0.06103515625,-0.91552734375,-0.18310546875,[0. 0. 0. 0. 0. 0. 0. 0. 0.],-0.0341796875,0.03369140625,1.00390625,[0. 0. 0. 0. 0. 0. 0. 0. 0.]
7.02160382270813,-0.020576778799295425,-0.010268185287714005,0.3187093436717987,-0.9475735425949097,[0. 0. 0. 0. 0. 0. 0. 0. 0.],-0.1220703125,-0.8544921875,-0.244140625,[0. 0. 0. 0. 0. 0. 0. 0. 0.],-0.033203125,0.03271484375,1.00341796875,[0. 0. 0. 0. 0. 0. 0. 0. 0.]
7.0447423458099365,-0.02145851030945778,-0.010055177845060825,0.3187139928340912,-0.9475546479225159,[0. 0. 0. 0. 0. 0. 0. 0. 0.],-0.18310546875,-0.48828125,-0.18310546875,[0. 0. 0. 0. 0. 0. 0. 0. 0.],-0.03271484375,0.03369140625,1.00341796875,[0. 0. 0. 0. 0. 0. 0. 0. 0.]
7.06546688079834,-0.021327318623661995,-0.01083488017320633,0.31876233220100403,-0.9475328326225281,[0. 0. 0. 0. 0. 0. 0. 0. 0.],-0.1220703125,-0.18310546875,-0.1220703125,[0. 0. 0. 0. 0. 0. 0. 0. 0.],-0.0341796875,0.03369140625,1.0009765625,[0. 0. 0. 0. 0. 0. 0. 0. 0.]
7.084687232971191,-0.02138836495578289,-0.010211328975856304,0.3187792897224426,-0.9475327134132385,[0. 0. 0. 0. 0. 0. 0. 0. 0.],0.0,-0.67138671875,-0.1220703125,[0. 0. 0. 0. 0. 0. 0. 0. 0.],-0.033203125,0.0341796875,1.00341796875,[0. 0. 0. 0. 0. 0. 0. 0. 0.]
7.104709148406982,-0.01981448009610176,-0.010976970195770264,0.31884628534317017,-0.9475357532501221,[0. 0. 0. 0. 0. 0. 0. 0. 0.],-0.06103515625,-1.15966796875,-0.18310546875,[0. 0. 0. 0. 0. 0. 0. 0. 0.],-0.03369140625,0.03125,1.00341796875,[0. 0. 0. 0. 0. 0. 0. 0. 0.]
7.12462306022644,-0.020936280488967896,-0.010877005755901337,0.31884098052978516,-0.947514533996582,[0. 0. 0. 0. 0. 0. 0. 0. 0.],-0.06103515625,-0.91552734375,-0.18310546875,[0. 0. 0. 0. 0. 0. 0. 0. 0.],-0.03369140625,0.0322265625,1.0029296875,[0. 0. 0. 0. 0. 0. 0. 0. 0.]
7.144601106643677,-0.02132394164800644,-0.010702095925807953,0.3188518285751343,-0.9475042819976807,[0. 0. 0. 0. 0. 0. 0. 0. 0.],-0.1220703125,-0.3662109375,0.0,[0. 0. 0. 0. 0. 0. 0. 0. 0.],-0.0341796875,0.03369140625,1.0029296875,[0. 0. 0. 0. 0. 0. 0. 0. 0.]
7.164738178253174,-0.021277079358696938,-0.010585932992398739,0.31887882947921753,-0.9474974870681763,[0. 0. 0. 0. 0. 0. 0. 0. 0.],-0.06103515625,-0.18310546875,0.0,[0. 0. 0. 0. 0. 0. 0. 0. 0.],-0.03369140625,0.03369140625,1.00244140625,[0. 0. 0. 0. 0. 0. 0. 0. 0.]
7.184595108032227,-0.022011879831552505,-0.01125995721668005,0.3189143240451813,-0.9474610686302185,[0. 0. 0. 0. 0. 0. 0. 0. 0.],-0.06103515625,-0.79345703125,-0.244140625,[0. 0. 0. 0. 0. 0. 0. 0. 0.],-0.03564453125,0.03466796875,1.0029296875,[0. 0. 0. 0. 0. 0. 0. 0. 0.]
7.204627513885498,-0.02163470908999443,-0.011664447374641895,0.31894874572753906,-0.9474532604217529,[0. 0. 0. 0. 0. 0. 0. 0. 0.],-0.1220703125,-1.03759765625,-0.18310546875,[0. 0. 0. 0. 0. 0. 0. 0. 0.],-0.0361328125,0.03369140625,1.00146484375,[0. 0. 0. 0. 0. 0. 0. 0. 0.]
7.223066329956055,-0.0214427150785923,-0.01113732811063528,0.31897684931755066,-0.9474545121192932,[0. 0. 0. 0. 0. 0. 0. 0. 0.],-0.06103515625,-0.9765625,-0.30517578125,[0. 0. 0. 0. 0. 0. 0. 0. 0.],-0.03466796875,0.033203125,1.00146484375,[0. 0. 0. 0. 0. 0. 0. 0. 0.]
7.246051073074341,-0.020976461470127106,-0.011030949652194977,0.31899282336235046,-0.9474608302116394,[0. 0. 0. 0. 0. 0. 0. 0. 0.],-0.06103515625,-0.30517578125,-0.06103515625,[0. 0. 0. 0. 0. 0. 0. 0. 0.],-0.0341796875,0.033203125,1.001953125,[0. 0. 0. 0. 0. 0. 0. 0. 0.]
7.265029668807983,-0.0208827443420887,-0.010925250127911568,0.3190137445926666,-0.9474570155143738,[0. 0. 0. 0. 0. 0. 0. 0. 0.],-0.06103515625,-0.244140625,-0.06103515625,[0. 0. 0. 0. 0. 0. 0. 0. 0.],-0.0341796875,0.033203125,1.00244140625,[0. 0. 0. 0. 0. 0. 0. 0. 0.]
7.284856081008911,-0.02127060294151306,-0.011263969354331493,0.31904366612434387,-0.9474343657493591,[0. 0. 0. 0. 0. 0. 0. 0. 0.],-0.1220703125,-0.91552734375,-0.1220703125,[0. 0. 0. 0. 0. 0. 0. 0. 0.],-0.03466796875,0.033203125,1.00146484375,[0. 0. 0. 0. 0. 0. 0. 0. 0.]
7.304705858230591,-0.0210137739777565,-0.011448794975876808,0.3190818428993225,-0.9474249482154846,[0. 0. 0. 0. 0. 0. 0. 0. 0.],0.06103515625,-0.9765625,-0.244140625,[0. 0. 0. 0. 0. 0. 0. 0. 0.],-0.03564453125,0.03271484375,1.00244140625,[0. 0. 0. 0. 0. 0. 0. 0. 0.]
7.320019245147705,-0.02068476378917694,-0.011108514852821827,0.3191072642803192,-0.9474278092384338,[0. 0. 0. 0. 0. 0. 0. 0. 0.],-0.18310546875,-0.54931640625,-0.1220703125,[0. 0. 0. 0. 0. 0. 0. 0. 0.],-0.0341796875,0.0322265625,1.00146484375,[0. 0. 0. 0. 0. 0. 0. 0. 0.]
7.345615386962891,-0.021182119846343994,-0.011184734292328358,0.3191128075122833,-0.947413980960846,[0. 0. 0. 0. 0. 0. 0. 0. 0.],-0.18310546875,-0.30517578125,0.1220703125,[0. 0. 0. 0. 0. 0. 0. 0. 0.],-0.03466796875,0.033203125,1.001953125,[0. 0. 0. 0. 0. 0. 0. 0. 0.]
7.365002870559692,-0.021137719973921776,-0.010533404536545277,0.31914129853248596,-0.9474128484725952,[0. 0. 0. 0. 0. 0. 0. 0. 0.],0.0,-0.42724609375,-0.1220703125,[0. 0. 0. 0. 0. 0. 0. 0. 0.],-0.03369140625,0.033203125,1.00244140625,[0. 0. 0. 0. 0. 0. 0. 0. 0.]
7.385007619857788,-0.021031338721513748,-0.010822134092450142,0.31916895508766174,-0.9474027156829834,[0. 0. 0. 0. 0. 0. 0. 0. 0.],-0.06103515625,-0.8544921875,-0.06103515625,[0. 0. 0. 0. 0. 0. 0. 0. 0.],-0.0341796875,0.033203125,1.00390625,[0. 0. 0. 0. 0. 0. 0. 0. 0.]
7.404998064041138,-0.02164030820131302,-0.011109190993010998,0.3191852867603302,-0.9473800659179688,[0. 0. 0. 0. 0. 0. 0. 0. 0.],-0.06103515625,-0.9765625,-0.18310546875,[0. 0. 0. 0. 0. 0. 0. 0. 0.],-0.03466796875,0.03369140625,1.00048828125,[0. 0. 0. 0. 0. 0. 0. 0. 0.]
7.424921751022339,-0.02113274298608303,-0.011053984053432941,0.3192048668861389,-0.9473856091499329,[0. 0. 0. 0. 0. 0. 0. 0. 0.],-0.244140625,-0.54931640625,-0.1220703125,[0. 0. 0. 0. 0. 0. 0. 0. 0.],-0.0341796875,0.033203125,1.00146484375,[0. 0. 0. 0. 0. 0. 0. 0. 0.]
7.444740533828735,-0.021094921976327896,-0.011196080595254898,0.31923964619636536,-0.9473730325698853,[0. 0. 0. 0. 0. 0. 0. 0. 0.],-0.1220703125,-0.54931640625,-0.06103515625,[0. 0. 0. 0. 0. 0. 0. 0. 0.],-0.03466796875,0.03369140625,1.00439453125,[0. 0. 0. 0. 0. 0. 0. 0. 0.]
7.459725856781006,-0.021279172971844673,-0.010956555604934692,0.3192591965198517,-0.9473651647567749,[0. 0. 0. 0. 0. 0. 0. 0. 0.],-0.1220703125,-0.244140625,-0.06103515625,[0. 0. 0. 0. 0. 0. 0. 0. 0.],-0.03466796875,0.033203125,1.00390625,[0. 0. 0. 0. 0. 0. 0. 0. 0.]
7.484747886657715,-0.02085135690867901,-0.010687055066227913,0.31929105520248413,-0.9473670125007629,[0. 0. 0. 0. 0. 0. 0. 0. 0.],-0.06103515625,-0.54931640625,-0.1220703125,[0. 0. 0. 0. 0. 0. 0. 0. 0.],-0.0341796875,0.03271484375,1.0029296875,[0. 0. 0. 0. 0. 0. 0. 0. 0.]
7.509369373321533,-0.021357417106628418,-0.010758258402347565,0.3193066418170929,-0.9473497271537781,[0. 0. 0. 0. 0. 0. 0. 0. 0.],-0.06103515625,-1.03759765625,-0.18310546875,[0. 0. 0. 0. 0. 0. 0. 0. 0.],-0.0341796875,0.03369140625,1.00341796875,[0. 0. 0. 0. 0. 0. 0. 0. 0.]
7.524831533432007,-0.021944493055343628,-0.011399108916521072,0.31932997703552246,-0.9473209381103516,[0. 0. 0. 0. 0. 0. 0. 0. 0.],-0.1220703125,-0.79345703125,-0.18310546875,[0. 0. 0. 0. 0. 0. 0. 0. 0.],-0.03564453125,0.0341796875,1.0029296875,[0. 0. 0. 0. 0. 0. 0. 0. 0.]
7.539639711380005,-0.02181200310587883,-0.010612194426357746,0.3193444013595581,-0.9473282694816589,[0. 0. 0. 0. 0. 0. 0. 0. 0.],-0.1220703125,-0.3662109375,-0.18310546875,[0. 0. 0. 0. 0. 0. 0. 0. 0.],-0.0341796875,0.03466796875,1.001953125,[0. 0. 0. 0. 0. 0. 0. 0. 0.]
7.564581871032715,-0.021252751350402832,-0.01094430685043335,0.3193938732147217,-0.9473205208778381,[0. 0. 0. 0. 0. 0. 0. 0. 0.],-0.1220703125,-0.3662109375,-0.1220703125,[0. 0. 0. 0. 0. 0. 0. 0. 0.],-0.03466796875,0.03369140625,1.00244140625,[0. 0. 0. 0. 0. 0. 0. 0. 0.]
7.579666376113892,-0.02107957750558853,-0.011538065038621426,0.31943485140800476,-0.9473035335540771,[0. 0. 0. 0. 0. 0. 0. 0. 0.],-0.06103515625,-0.67138671875,-0.1220703125,[0. 0. 0. 0. 0. 0. 0. 0. 0.],-0.03466796875,0.03271484375,1.0029296875,[0. 0. 0. 0. 0. 0. 0. 0. 0.]
7.602619647979736,-0.0203467458486557,-0.010712927207350731,0.3194672465324402,-0.9473182559013367,[0. 0. 0. 0. 0. 0. 0. 0. 0.],-0.06103515625,-1.15966796875,-0.244140625,[0. 0. 0. 0. 0. 0. 0. 0. 0.],-0.03369140625,0.03173828125,1.00146484375,[0. 0. 0. 0. 0. 0. 0. 0. 0.]
7.62491774559021,-0.02151191048324108,-0.011176993139088154,0.3194851875305176,-0.9472811222076416,[0. 0. 0. 0. 0. 0. 0. 0. 0.],-0.06103515625,-0.67138671875,-0.18310546875,[0. 0. 0. 0. 0. 0. 0. 0. 0.],-0.03466796875,0.03369140625,1.001953125,[0. 0. 0. 0. 0. 0. 0. 0. 0.]
7.64463210105896,-0.021126361563801765,-0.011600354686379433,0.31951799988746643,-0.9472737312316895,[0. 0. 0. 0. 0. 0. 0. 0. 0.],-0.06103515625,-0.54931640625,0.06103515625,[0. 0. 0. 0. 0. 0. 0. 0. 0.],-0.03564453125,0.03271484375,1.001953125,[0. 0. 0. 0. 0. 0. 0. 0. 0.]
7.664782762527466,-0.020929858088493347,-0.011913085356354713,0.31955766677856445,-0.9472607374191284,[0. 0. 0. 0. 0. 0. 0. 0. 0.],-0.06103515625,-0.3662109375,-0.18310546875,[0. 0. 0. 0. 0. 0. 0. 0. 0.],-0.03564453125,0.0322265625,1.00244140625,[0. 0. 0. 0. 0. 0. 0. 0. 0.]
7.68480372428894,-0.02039998769760132,-0.010108434595167637,0.31956034898757935,-0.9472924470901489,[0. 0. 0. 0. 0. 0. 0. 0. 0.],0.06103515625,-0.79345703125,-0.18310546875,[0. 0. 0. 0. 0. 0. 0. 0. 0.],-0.0322265625,0.0322265625,1.00244140625,[0. 0. 0. 0. 0. 0. 0. 0. 0.]
7.704838991165161,-0.02145639806985855,-0.010316773317754269,0.3195693790912628,-0.947263777256012,[0. 0. 0. 0. 0. 0. 0. 0. 0.],-0.06103515625,-1.03759765625,-0.244140625,[0. 0. 0. 0. 0. 0. 0. 0. 0.],-0.03369140625,0.0341796875,1.0009765625,[0. 0. 0. 0. 0. 0. 0. 0. 0.]
7.724633693695068,-0.02269216999411583,-0.009981485083699226,0.31956303119659424,-0.9472407102584839,[0. 0. 0. 0. 0. 0. 0. 0. 0.],0.0,-0.67138671875,-0.1220703125,[0. 0. 0. 0. 0. 0. 0. 0. 0.],-0.03369140625,0.0361328125,1.00341796875,[0. 0. 0. 0. 0. 0. 0. 0. 0.]
7.74472451210022,-0.021546080708503723,-0.011378990486264229,0.3196304142475128,-0.9472290277481079,[0. 0. 0. 0. 0. 0. 0. 0. 0.],-0.06103515625,-0.18310546875,-0.06103515625,[0. 0. 0. 0. 0. 0. 0. 0. 0.],-0.03564453125,0.03369140625,1.005859375,[0. 0. 0. 0. 0. 0. 0. 0. 0.]
7.765907287597656,-0.02082744427025318,-0.011970706284046173,0.3196912705898285,-0.9472172260284424,[0. 0. 0. 0. 0. 0. 0. 0. 0.],0.0,-0.42724609375,-0.06103515625,[0. 0. 0. 0. 0. 0. 0. 0. 0.],-0.0361328125,0.03125,1.0029296875,[0. 0. 0. 0. 0. 0. 0. 0. 0.]
7.780896186828613,-0.02094312198460102,-0.0111238993704319,0.31970879435539246,-0.9472191333770752,[0. 0. 0. 0. 0. 0. 0. 0. 0.],-0.06103515625,-0.79345703125,-0.06103515625,[0. 0. 0. 0. 0. 0. 0. 0. 0.],-0.03466796875,0.03271484375,1.0009765625,[0. 0. 0. 0. 0. 0. 0. 0. 0.]
7.805362939834595,-0.021040678024291992,-0.010923335328698158,0.31972458958625793,-0.947213888168335,[0. 0. 0. 0. 0. 0. 0. 0. 0.],-0.06103515625,-1.03759765625,-0.244140625,[0. 0. 0. 0. 0. 0. 0. 0. 0.],-0.03369140625,0.03271484375,1.0,[0. 0. 0. 0. 0. 0. 0. 0. 0.]
7.824946165084839,-0.020844629034399986,-0.01061687245965004,0.31974101066589355,-0.9472161531448364,[0. 0. 0. 0. 0. 0. 0. 0. 0.],-0.244140625,-0.6103515625,-0.06103515625,[0. 0. 0. 0. 0. 0. 0. 0. 0.],-0.033203125,0.033203125,1.0009765625,[0. 0. 0. 0. 0. 0. 0. 0. 0.]
7.8463990688323975,-0.020955214276909828,-0.010734129697084427,0.31976518034935,-0.9472042918205261,[0. 0. 0. 0. 0. 0. 0. 0. 0.],-0.1220703125,-0.3662109375,0.0,[0. 0. 0. 0. 0. 0. 0. 0. 0.],-0.03369140625,0.033203125,1.0029296875,[0. 0. 0. 0. 0. 0. 0. 0. 0.]
7.865284442901611,-0.021224787458777428,-0.011164447292685509,0.31979817152023315,-0.9471822381019592,[0. 0. 0. 0. 0. 0. 0. 0. 0.],0.0,-0.54931640625,-0.06103515625,[0. 0. 0. 0. 0. 0. 0. 0. 0.],-0.03466796875,0.03271484375,1.00341796875,[0. 0. 0. 0. 0. 0. 0. 0. 0.]
7.880096673965454,-0.02117309533059597,-0.010973110795021057,0.3198266923427582,-0.947175920009613,[0. 0. 0. 0. 0. 0. 0. 0. 0.],0.06103515625,-1.03759765625,-0.244140625,[0. 0. 0. 0. 0. 0. 0. 0. 0.],-0.03466796875,0.033203125,1.005859375,[0. 0. 0. 0. 0. 0. 0. 0. 0.]
7.8997156620025635,-0.021310295909643173,-0.01123978104442358,0.3198539912700653,-0.947160542011261,[0. 0. 0. 0. 0. 0. 0. 0. 0.],-0.30517578125,-0.9765625,-0.30517578125,[0. 0. 0. 0. 0. 0. 0. 0. 0.],-0.03515625,0.033203125,1.00537109375,[0. 0. 0. 0. 0. 0. 0. 0. 0.]
7.924994468688965,-0.02075168676674366,-0.011328930035233498,0.3198927342891693,-0.9471587538719177,[0. 0. 0. 0. 0. 0. 0. 0. 0.],-0.18310546875,-0.8544921875,-0.244140625,[0. 0. 0. 0. 0. 0. 0. 0. 0.],-0.03466796875,0.0322265625,0.99951171875,[0. 0. 0. 0. 0. 0. 0. 0. 0.]
7.945849895477295,-0.02053920365869999,-0.011484980583190918,0.319924533367157,-0.9471507668495178,[0. 0. 0. 0. 0. 0. 0. 0. 0.],-0.244140625,-0.42724609375,-0.1220703125,[0. 0. 0. 0. 0. 0. 0. 0. 0.],-0.03515625,0.0322265625,1.0029296875,[0. 0. 0. 0. 0. 0. 0. 0. 0.]
7.965097904205322,-0.020992057397961617,-0.010703385807573795,0.3199276328086853,-0.9471489191055298,[0. 0. 0. 0. 0. 0. 0. 0. 0.],-0.06103515625,-0.3662109375,0.0,[0. 0. 0. 0. 0. 0. 0. 0. 0.],-0.03369140625,0.033203125,1.00341796875,[0. 0. 0. 0. 0. 0. 0. 0. 0.]
7.979768514633179,-0.02087431214749813,-0.010754641145467758,0.31996700167655945,-0.947137713432312,[0. 0. 0. 0. 0. 0. 0. 0. 0.],0.0,-0.732421875,-0.18310546875,[0. 0. 0. 0. 0. 0. 0. 0. 0.],-0.0341796875,0.03271484375,1.00341796875,[0. 0. 0. 0. 0. 0. 0. 0. 0.]
8.004753589630127,-0.020887620747089386,-0.011298109777271748,0.3199978470802307,-0.9471206068992615,[0. 0. 0. 0. 0. 0. 0. 0. 0.],0.0,-1.03759765625,-0.18310546875,[0. 0. 0. 0. 0. 0. 0. 0. 0.],-0.03466796875,0.0322265625,1.00048828125,[0. 0. 0. 0. 0. 0. 0. 0. 0.]
8.02484917640686,-0.021054217591881752,-0.01044404972344637,0.3200039565563202,-0.9471246600151062,[0. 0. 0. 0. 0. 0. 0. 0. 0.],-0.18310546875,-0.732421875,-0.244140625,[0. 0. 0. 0. 0. 0. 0. 0. 0.],-0.033203125,0.033203125,1.00146484375,[0. 0. 0. 0. 0. 0. 0. 0. 0.]
8.0460844039917,-0.02132406271994114,-0.011483272537589073,0.3200451731681824,-0.9470926523208618,[0. 0. 0. 0. 0. 0. 0. 0. 0.],-0.1220703125,-0.42724609375,-0.06103515625,[0. 0. 0. 0. 0. 0. 0. 0. 0.],-0.03515625,0.033203125,1.0029296875,[0. 0. 0. 0. 0. 0. 0. 0. 0.]
8.06152081489563,-0.02070741169154644,-0.011160129681229591,0.3200722336769104,-0.9471011161804199,[0. 0. 0. 0. 0. 0. 0. 0. 0.],-0.06103515625,-0.3662109375,-0.06103515625,[0. 0. 0. 0. 0. 0. 0. 0. 0.],-0.03515625,0.0322265625,1.0029296875,[0. 0. 0. 0. 0. 0. 0. 0. 0.]
8.085743427276611,-0.019921766594052315,-0.011165210977196693,0.3201139271259308,-0.9471037983894348,[0. 0. 0. 0. 0. 0. 0. 0. 0.],-0.1220703125,-0.8544921875,-0.244140625,[0. 0. 0. 0. 0. 0. 0. 0. 0.],-0.0341796875,0.03076171875,1.001953125,[0. 0. 0. 0. 0. 0. 0. 0. 0.]
8.104600667953491,-0.021062791347503662,-0.010776792652904987,0.32011672854423523,-0.9470826983451843,[0. 0. 0. 0. 0. 0. 0. 0. 0.],-0.1220703125,-1.03759765625,-0.1220703125,[0. 0. 0. 0. 0. 0. 0. 0. 0.],-0.03369140625,0.033203125,1.0029296875,[0. 0. 0. 0. 0. 0. 0. 0. 0.]
8.1246919631958,-0.020909108221530914,-0.010714821517467499,0.32014623284339905,-0.9470767378807068,[0. 0. 0. 0. 0. 0. 0. 0. 0.],-0.1220703125,-0.6103515625,-0.18310546875,[0. 0. 0. 0. 0. 0. 0. 0. 0.],-0.03369140625,0.03271484375,1.001953125,[0. 0. 0. 0. 0. 0. 0. 0. 0.]
8.140068054199219,-0.021420879289507866,-0.011338905431330204,0.3201700448989868,-0.9470499753952026,[0. 0. 0. 0. 0. 0. 0. 0. 0.],-0.1220703125,-0.3662109375,-0.06103515625,[0. 0. 0. 0. 0. 0. 0. 0. 0.],-0.03515625,0.033203125,0.9990234375,[0. 0. 0. 0. 0. 0. 0. 0. 0.]
8.166783332824707,-0.022305803373456,-0.011321366764605045,0.32018300890922546,-0.9470254182815552,[0. 0. 0. 0. 0. 0. 0. 0. 0.],-0.1220703125,-0.42724609375,0.0,[0. 0. 0. 0. 0. 0. 0. 0. 0.],-0.03564453125,0.03466796875,1.00146484375,[0. 0. 0. 0. 0. 0. 0. 0. 0.]
8.184889316558838,-0.020546622574329376,-0.011393814347684383,0.3202436566352844,-0.9470438361167908,[0. 0. 0. 0. 0. 0. 0. 0. 0.],-0.1220703125,-0.91552734375,-0.1220703125,[0. 0. 0. 0. 0. 0. 0. 0. 0.],-0.03466796875,0.0322265625,1.001953125,[0. 0. 0. 0. 0. 0. 0. 0. 0.]
8.20479440689087,-0.020531341433525085,-0.01034972257912159,0.32024723291397095,-0.947054922580719,[0. 0. 0. 0. 0. 0. 0. 0. 0.],-0.1220703125,-1.03759765625,-0.18310546875,[0. 0. 0. 0. 0. 0. 0. 0. 0.],-0.03271484375,0.03271484375,1.00439453125,[0. 0. 0. 0. 0. 0. 0. 0. 0.]
8.224469184875488,-0.020448187366127968,-0.010662278160452843,0.3202687203884125,-0.9470460414886475,[0. 0. 0. 0. 0. 0. 0. 0. 0.],-0.244140625,-0.6103515625,-0.1220703125,[0. 0. 0. 0. 0. 0. 0. 0. 0.],-0.033203125,0.0322265625,1.00244140625,[0. 0. 0. 0. 0. 0. 0. 0. 0.]
8.244703531265259,-0.02144097164273262,-0.010891401208937168,0.320276141166687,-0.9470190405845642,[0. 0. 0. 0. 0. 0. 0. 0. 0.],-0.30517578125,-0.3662109375,-0.1220703125,[0. 0. 0. 0. 0. 0. 0. 0. 0.],-0.03466796875,0.033203125,1.00244140625,[0. 0. 0. 0. 0. 0. 0. 0. 0.]
8.264891862869263,-0.021437181159853935,-0.011723596602678299,0.32032570242881775,-0.9469922780990601,[0. 0. 0. 0. 0. 0. 0. 0. 0.],-0.06103515625,-0.54931640625,-0.06103515625,[0. 0. 0. 0. 0. 0. 0. 0. 0.],-0.0361328125,0.033203125,1.00244140625,[0. 0. 0. 0. 0. 0. 0. 0. 0.]
8.28471851348877,-0.020891131833195686,-0.010839429683983326,0.32036393880844116,-0.9470021724700928,[0. 0. 0. 0. 0. 0. 0. 0. 0.],-0.06103515625,-0.91552734375,-0.18310546875,[0. 0. 0. 0. 0. 0. 0. 0. 0.],-0.0341796875,0.033203125,1.00390625,[0. 0. 0. 0. 0. 0. 0. 0. 0.]
8.299867153167725,-0.02085079997777939,-0.01077884342521429,0.32039397954940796,-0.9469935894012451,[0. 0. 0. 0. 0. 0. 0. 0. 0.],-0.18310546875,-0.91552734375,-0.30517578125,[0. 0. 0. 0. 0. 0. 0. 0. 0.],-0.03369140625,0.033203125,1.00146484375,[0. 0. 0. 0. 0. 0. 0. 0. 0.]
8.32470178604126,-0.020819280296564102,-0.010679364204406738,0.3204132914543152,-0.9469889402389526,[0. 0. 0. 0. 0. 0. 0. 0. 0.],-0.1220703125,-0.42724609375,-0.18310546875,[0. 0. 0. 0. 0. 0. 0. 0. 0.],-0.0341796875,0.03271484375,1.00244140625,[0. 0. 0. 0. 0. 0. 0. 0. 0.]
8.344712018966675,-0.021681485697627068,-0.010555165819823742,0.32042235136032104,-0.9469678401947021,[0. 0. 0. 0. 0. 0. 0. 0. 0.],0.06103515625,-0.30517578125,-0.06103515625,[0. 0. 0. 0. 0. 0. 0. 0. 0.],-0.0341796875,0.03515625,1.00341796875,[0. 0. 0. 0. 0. 0. 0. 0. 0.]
8.364883422851562,-0.021034667268395424,-0.011087525635957718,0.32046929001808167,-0.9469605088233948,[0. 0. 0. 0. 0. 0. 0. 0. 0.],0.0,-0.67138671875,-0.06103515625,[0. 0. 0. 0. 0. 0. 0. 0. 0.],-0.03466796875,0.03271484375,1.00244140625,[0. 0. 0. 0. 0. 0. 0. 0. 0.]
8.384584426879883,-0.02062278427183628,-0.011733652092516422,0.3205203413963318,-0.9469444155693054,[0. 0. 0. 0. 0. 0. 0. 0. 0.],-0.1220703125,-0.732421875,-0.18310546875,[0. 0. 0. 0. 0. 0. 0. 0. 0.],-0.03564453125,0.03173828125,1.001953125,[0. 0. 0. 0. 0. 0. 0. 0. 0.]
8.40466856956482,-0.021234869956970215,-0.0113014942035079,0.32052546739578247,-0.9469345211982727,[0. 0. 0. 0. 0. 0. 0. 0. 0.],-0.06103515625,-1.0986328125,-0.1220703125,[0. 0. 0. 0. 0. 0. 0. 0. 0.],-0.03515625,0.033203125,1.00244140625,[0. 0. 0. 0. 0. 0. 0. 0. 0.]
8.424867868423462,-0.02049407735466957,-0.010762112215161324,0.3205443024635315,-0.9469507336616516,[0. 0. 0. 0. 0. 0. 0. 0. 0.],-0.18310546875,-0.79345703125,-0.1220703125,[0. 0. 0. 0. 0. 0. 0. 0. 0.],-0.03369140625,0.0322265625,1.00390625,[0. 0. 0. 0. 0. 0. 0. 0. 0.]
8.439653635025024,-0.021516066044569016,-0.010289615020155907,0.3205387592315674,-0.9469351768493652,[0. 0. 0. 0. 0. 0. 0. 0. 0.],-0.244140625,-0.18310546875,0.0,[0. 0. 0. 0. 0. 0. 0. 0. 0.],-0.03369140625,0.0341796875,1.0029296875,[0. 0. 0. 0. 0. 0. 0. 0. 0.]
8.464916706085205,-0.019957203418016434,-0.010188373737037182,0.3205983340740204,-0.9469501376152039,[0. 0. 0. 0. 0. 0. 0. 0. 0.],-0.1220703125,-0.30517578125,-0.06103515625,[0. 0. 0. 0. 0. 0. 0. 0. 0.],-0.0322265625,0.03173828125,1.0029296875,[0. 0. 0. 0. 0. 0. 0. 0. 0.]
8.484625816345215,-0.020439816638827324,-0.009930872358381748,0.32060956954956055,-0.9469388127326965,[0. 0. 0. 0. 0. 0. 0. 0. 0.],0.0,-0.79345703125,-0.18310546875,[0. 0. 0. 0. 0. 0. 0. 0. 0.],-0.0322265625,0.0322265625,1.001953125,[0. 0. 0. 0. 0. 0. 0. 0. 0.]
8.504857063293457,-0.02081216685473919,-0.011052730493247509,0.3206529915332794,-0.9469035863876343,[0. 0. 0. 0. 0. 0. 0. 0. 0.],-0.1220703125,-1.0986328125,-0.30517578125,[0. 0. 0. 0. 0. 0. 0. 0. 0.],-0.0341796875,0.03271484375,1.00341796875,[0. 0. 0. 0. 0. 0. 0. 0. 0.]
8.525569677352905,-0.021716447547078133,-0.01083951722830534,0.32065948843955994,-0.946883499622345,[0. 0. 0. 0. 0. 0. 0. 0. 0.],-0.1220703125,-0.6103515625,-0.244140625,[0. 0. 0. 0. 0. 0. 0. 0. 0.],-0.03466796875,0.03369140625,1.00146484375,[0. 0. 0. 0. 0. 0. 0. 0. 0.]
8.543166637420654,-0.020528536289930344,-0.010526871308684349,0.32071352005004883,-0.9468953609466553,[0. 0. 0. 0. 0. 0. 0. 0. 0.],-0.18310546875,-0.6103515625,-0.244140625,[0. 0. 0. 0. 0. 0. 0. 0. 0.],-0.033203125,0.03271484375,1.001953125,[0. 0. 0. 0. 0. 0. 0. 0. 0.]
8.564636468887329,-0.021749911829829216,-0.010749849490821362,0.32071518898010254,-0.9468649625778198,[0. 0. 0. 0. 0. 0. 0. 0. 0.],0.0,-0.48828125,-0.1220703125,[0. 0. 0. 0. 0. 0. 0. 0. 0.],-0.0341796875,0.0341796875,1.0029296875,[0. 0. 0. 0. 0. 0. 0. 0. 0.]
8.584661960601807,-0.02123451605439186,-0.010979225859045982,0.32075199484825134,-0.9468615651130676,[0. 0. 0. 0. 0. 0. 0. 0. 0.],0.06103515625,-0.8544921875,-0.18310546875,[0. 0. 0. 0. 0. 0. 0. 0. 0.],-0.0341796875,0.03369140625,1.00341796875,[0. 0. 0. 0. 0. 0. 0. 0. 0.]
8.604668378829956,-0.02222842536866665,-0.010543414391577244,0.32075032591819763,-0.9468442797660828,[0. 0. 0. 0. 0. 0. 0. 0. 0.],-0.1220703125,-0.8544921875,-0.244140625,[0. 0. 0. 0. 0. 0. 0. 0. 0.],-0.0341796875,0.03466796875,1.0029296875,[0. 0. 0. 0. 0. 0. 0. 0. 0.]
8.624748468399048,-0.021748194471001625,-0.011150022968649864,0.32078665494918823,-0.9468361139297485,[0. 0. 0. 0. 0. 0. 0. 0. 0.],-0.06103515625,-0.48828125,-0.1220703125,[0. 0. 0. 0. 0. 0. 0. 0. 0.],-0.03515625,0.0341796875,1.0029296875,[0. 0. 0. 0. 0. 0. 0. 0. 0.]
8.645302295684814,-0.02198733203113079,-0.011071743443608284,0.32079964876174927,-0.9468271732330322,[0. 0. 0. 0. 0. 0. 0. 0. 0.],-0.1220703125,-0.244140625,0.0,[0. 0. 0. 0. 0. 0. 0. 0. 0.],-0.03466796875,0.03515625,1.00341796875,[0. 0. 0. 0. 0. 0. 0. 0. 0.]
8.664876699447632,-0.020511562004685402,-0.011031094938516617,0.3208656311035156,-0.94683837890625,[0. 0. 0. 0. 0. 0. 0. 0. 0.],-0.06103515625,-0.54931640625,-0.1220703125,[0. 0. 0. 0. 0. 0. 0. 0. 0.],-0.0341796875,0.03173828125,1.0029296875,[0. 0. 0. 0. 0. 0. 0. 0. 0.]
8.681114673614502,-0.021035894751548767,-0.009998385794460773,0.3208640515804291,-0.9468388557434082,[0. 0. 0. 0. 0. 0. 0. 0. 0.],-0.06103515625,-0.9765625,-0.18310546875,[0. 0. 0. 0. 0. 0. 0. 0. 0.],-0.0322265625,0.03271484375,1.00146484375,[0. 0. 0. 0. 0. 0. 0. 0. 0.]
8.699884414672852,-0.02098582684993744,-0.011511094868183136,0.3208976089954376,-0.9468114376068115,[0. 0. 0. 0. 0. 0. 0. 0. 0.],-0.244140625,-0.91552734375,-0.06103515625,[0. 0. 0. 0. 0. 0. 0. 0. 0.],-0.03564453125,0.0322265625,1.00244140625,[0. 0. 0. 0. 0. 0. 0. 0. 0.]
8.724895715713501,-0.02048490010201931,-0.010810205712914467,0.3209187388420105,-0.9468235373497009,[0. 0. 0. 0. 0. 0. 0. 0. 0.],-0.18310546875,-0.42724609375,-0.18310546875,[0. 0. 0. 0. 0. 0. 0. 0. 0.],-0.03369140625,0.0322265625,1.00341796875,[0. 0. 0. 0. 0. 0. 0. 0. 0.]
8.74824070930481,-0.021516738459467888,-0.010417298413813114,0.3209397494792938,-0.9467979669570923,[0. 0. 0. 0. 0. 0. 0. 0. 0.],0.0,-0.42724609375,-0.06103515625,[0. 0. 0. 0. 0. 0. 0. 0. 0.],-0.03369140625,0.0341796875,1.00244140625,[0. 0. 0. 0. 0. 0. 0. 0. 0.]
8.764659404754639,-0.02081051655113697,-0.010811434127390385,0.3209785223007202,-0.9467961192131042,[0. 0. 0. 0. 0. 0. 0. 0. 0.],-0.06103515625,-0.732421875,-0.1220703125,[0. 0. 0. 0. 0. 0. 0. 0. 0.],-0.03369140625,0.0322265625,0.99951171875,[0. 0. 0. 0. 0. 0. 0. 0. 0.]
8.786065578460693,-0.020792659372091293,-0.011132128536701202,0.32101935148239136,-0.9467789530754089,[0. 0. 0. 0. 0. 0. 0. 0. 0.],-0.1220703125,-1.0986328125,-0.244140625,[0. 0. 0. 0. 0. 0. 0. 0. 0.],-0.0341796875,0.03173828125,1.00146484375,[0. 0. 0. 0. 0. 0. 0. 0. 0.]
8.805867433547974,-0.020877180621027946,-0.011287850327789783,0.3210533559322357,-0.9467637538909912,[0. 0. 0. 0. 0. 0. 0. 0. 0.],0.0,-0.91552734375,-0.18310546875,[0. 0. 0. 0. 0. 0. 0. 0. 0.],-0.03466796875,0.033203125,1.00244140625,[0. 0. 0. 0. 0. 0. 0. 0. 0.]
8.824733257293701,-0.020766086876392365,-0.010370409116148949,0.32106268405914307,-0.9467735290527344,[0. 0. 0. 0. 0. 0. 0. 0. 0.],-0.18310546875,-0.30517578125,-0.244140625,[0. 0. 0. 0. 0. 0. 0. 0. 0.],-0.03369140625,0.03271484375,1.00341796875,[0. 0. 0. 0. 0. 0. 0. 0. 0.]
8.844690322875977,-0.02028193138539791,-0.010716214776039124,0.32109972834587097,-0.9467676281929016,[0. 0. 0. 0. 0. 0. 0. 0. 0.],-0.06103515625,-0.3662109375,-0.1220703125,[0. 0. 0. 0. 0. 0. 0. 0. 0.],-0.033203125,0.0322265625,1.00439453125,[0. 0. 0. 0. 0. 0. 0. 0. 0.]
8.864694118499756,-0.02062436379492283,-0.011746693402528763,0.32114139199256897,-0.9467337727546692,[0. 0. 0. 0. 0. 0. 0. 0. 0.],-0.18310546875,-0.244140625,-0.1220703125,[0. 0. 0. 0. 0. 0. 0. 0. 0.],-0.03515625,0.0322265625,1.00341796875,[0. 0. 0. 0. 0. 0. 0. 0. 0.]
8.887003660202026,-0.02063174359500408,-0.01101953536272049,0.32116803526878357,-0.9467334151268005,[0. 0. 0. 0. 0. 0. 0. 0. 0.],-0.1220703125,-0.79345703125,-0.18310546875,[0. 0. 0. 0. 0. 0. 0. 0. 0.],-0.03466796875,0.0322265625,1.0009765625,[0. 0. 0. 0. 0. 0. 0. 0. 0.]
8.906457662582397,-0.020689157769083977,-0.011382559314370155,0.32120347023010254,-0.9467158317565918,[0. 0. 0. 0. 0. 0. 0. 0. 0.],0.0,-1.03759765625,-0.244140625,[0. 0. 0. 0. 0. 0. 0. 0. 0.],-0.03515625,0.03173828125,1.00244140625,[0. 0. 0. 0. 0. 0. 0. 0. 0.]
8.925050735473633,-0.020826801657676697,-0.01074705459177494,0.3212181031703949,-0.9467152953147888,[0. 0. 0. 0. 0. 0. 0. 0. 0.],-0.18310546875,-0.6103515625,-0.30517578125,[0. 0. 0. 0. 0. 0. 0. 0. 0.],-0.0341796875,0.033203125,1.0029296875,[0. 0. 0. 0. 0. 0. 0. 0. 0.]
8.944796800613403,-0.020815864205360413,-0.01090210024267435,0.3212544322013855,-0.9467014074325562,[0. 0. 0. 0. 0. 0. 0. 0. 0.],-0.1220703125,-0.30517578125,-0.1220703125,[0. 0. 0. 0. 0. 0. 0. 0. 0.],-0.0341796875,0.0322265625,1.00244140625,[0. 0. 0. 0. 0. 0. 0. 0. 0.]
8.964600086212158,-0.021448465064167976,-0.011587919667363167,0.32128268480300903,-0.9466694593429565,[0. 0. 0. 0. 0. 0. 0. 0. 0.],-0.1220703125,-0.48828125,0.06103515625,[0. 0. 0. 0. 0. 0. 0. 0. 0.],-0.0361328125,0.03271484375,1.00341796875,[0. 0. 0. 0. 0. 0. 0. 0. 0.]
8.985881090164185,-0.02096395380795002,-0.010248440317809582,0.3212912082672119,-0.946692943572998,[0. 0. 0. 0. 0. 0. 0. 0. 0.],0.06103515625,-0.8544921875,-0.1220703125,[0. 0. 0. 0. 0. 0. 0. 0. 0.],-0.033203125,0.03369140625,1.00390625,[0. 0. 0. 0. 0. 0. 0. 0. 0.]
9.004936218261719,-0.020362505689263344,-0.01100124791264534,0.321341335773468,-0.9466806650161743,[0. 0. 0. 0. 0. 0. 0. 0. 0.],0.0,-0.9765625,-0.244140625,[0. 0. 0. 0. 0. 0. 0. 0. 0.],-0.0341796875,0.03125,1.00146484375,[0. 0. 0. 0. 0. 0. 0. 0. 0.]
9.02336311340332,-0.020443908870220184,-0.0110301673412323,0.32136374711990356,-0.9466709494590759,[0. 0. 0. 0. 0. 0. 0. 0. 0.],-0.1220703125,-0.6103515625,-0.18310546875,[0. 0. 0. 0. 0. 0. 0. 0. 0.],-0.0341796875,0.03173828125,1.001953125,[0. 0. 0. 0. 0. 0. 0. 0. 0.]
