time,imu.ypr.x,imu.ypr.y,imu.ypr.z,imu.linear_acceleration.x,imu.linear_acceleration.y,imu.linear_acceleration.z,imu.angular_velocity.x,imu.angular_velocity.y,imu.angular_velocity.z,imu.compass.x,imu.compass.y,imu.compass.z,imu.orientation.x,imu.orientation.y,imu.orientation.z,imu.orientation.w
0.2457578182220459,-1.9769860889857316,1.8090451842300466,87.74537755002447,-0.03173828125,0.0341796875,1.00390625,0.1220703125,-0.42724609375,0.0,0.0,0.0,0.0,-0.02337397262454033,0.0005765605019405484,0.6930651068687439,-0.7204956412315369
0.25525879859924316,-1.926382284642165,1.787954734011811,87.7490385314196,-0.03125,0.033203125,1.00537109375,0.0,-0.732421875,-0.18310546875,0.0,0.0,0.0,-0.02292829193174839,0.00040390706271864474,0.6930881142616272,-0.7204881310462952
0.2807953357696533,-1.957692085240915,1.8396397359566494,87.75009721074095,-0.0322265625,0.03466796875,1.00341796875,-0.30517578125,-0.54931640625,-0.18310546875,0.0,0.0,0.0,-0.023437581956386566,0.00026836650795303285,0.6930952072143555,-0.7204648852348328
0.2972843647003174,-1.9417756100406698,1.8343866801546749,87.75498762618668,-0.0322265625,0.0341796875,1.00390625,-0.18310546875,-0.54931640625,-0.06103515625,0.0,0.0,0.0,-0.023305749520659447,0.00020613905508071184,0.6931259632110596,-0.7204395532608032
0.32625699043273926,-1.8403981003979324,1.8621134062035185,87.76268524938128,-0.03271484375,0.0322265625,1.00390625,0.244140625,-0.6103515625,-0.18310546875,0.0,0.0,0.0,-0.02283603325486183,-0.0005799380596727133,0.6931743621826172,-0.7204079627990723
0.3412952423095703,-1.8012472426320076,1.6805934450476134,87.76638038172226,-0.02978515625,0.03173828125,1.0048828125,0.06103515625,-0.9765625,-0.244140625,0.0,0.0,0.0,-0.02149241603910923,0.00032567145535722375,0.6931963562965393,-0.7204281687736511
0.35544371604919434,-1.9493300127061153,1.7431110202943862,87.76397615513442,-0.03076171875,0.0341796875,1.0029296875,-0.244140625,-1.03759765625,-0.1220703125,0.0,0.0,0.0,-0.022801386192440987,0.0008277695160359144,0.6931812763214111,-0.720402181148529
0.375382661819458,-1.9173213983779085,1.8358933771968973,87.76811524977144,-0.03173828125,0.0341796875,1.0029296875,-0.06103515625,-0.732421875,-0.1220703125,0.0,0.0,0.0,-0.023161103948950768,5.139607674209401e-05,0.6932085156440735,-0.7203649878501892
0.40056371688842773,-1.9788199947778802,1.8116227268680802,87.76922174041698,-0.03173828125,0.03466796875,1.00341796875,0.0,-0.244140625,-0.06103515625,0.0,0.0,0.0,-0.023400960490107536,0.0005763061344623566,0.6932150721549988,-0.7203505635261536
0.4212214946746826,-1.887031857286429,1.7821333851265502,87.77558747672343,-0.0322265625,0.033203125,1.0048828125,-0.244140625,-0.67138671875,-0.1220703125,0.0,0.0,0.0,-0.02264564111828804,0.00020777055760845542,0.6932550668716431,-0.7203364372253418
0.4434325695037842,-1.88942605203393,1.8791222847841427,87.77855177882321,-0.03271484375,0.03271484375,1.00341796875,-0.244140625,-0.91552734375,-0.1220703125,0.0,0.0,0.0,-0.023247143253684044,-0.0003871285589411855,0.6932743787765503,-0.7202985882759094
0.4572467803955078,-1.9828572769075923,1.7204957303439452,87.77868155241745,-0.02978515625,0.03466796875,1.00341796875,0.06103515625,-0.79345703125,-0.244140625,0.0,0.0,0.0,-0.022875281050801277,0.001175763551145792,0.6932730674743652,-0.7203109860420227
0.4808814525604248,-1.9596602469389366,1.8131654958468568,87.78227423192088,-0.03173828125,0.03466796875,1.0029296875,-0.06103515625,-0.48828125,-0.1220703125,0.0,0.0,0.0,-0.023289794102311134,0.0004533484752755612,0.6932972073554993,-0.7202752828598022
0.50846266746521,-1.954388621560156,1.8878762394225719,87.78469894907623,-0.033203125,0.0341796875,1.0048828125,-0.3662109375,-0.732421875,-0.06103515625,0.0,0.0,0.0,-0.023708412423729897,-4.7889887355268e-05,0.6933131814002991,-0.7202463150024414
0.5203940868377686,-1.9038507712307624,1.743160966052692,87.7897191381162,-0.03125,0.033203125,1.0048828125,-0.06103515625,-0.54931640625,-0.1220703125,0.0,0.0,0.0,-0.02251564711332321,0.0005574042443186045,0.6933434009552002,-0.7202553153038025
0.544304609298706,-1.8635528685710987,1.8443773259196994,87.79627611971941,-0.03173828125,0.03271484375,1.0029296875,0.3662109375,-0.732421875,-0.42724609375,0.0,0.0,0.0,-0.022874468937516212,-0.0003216087643522769,0.6933855414390564,-0.7202035784721375
0.5565662384033203,-1.99869349738509,1.7603508446463216,87.79389921388824,-0.03076171875,0.0341796875,1.00390625,-0.244140625,-0.9765625,-0.30517578125,0.0,0.0,0.0,-0.023215679451823235,0.0010240055853500962,0.6933692693710327,-0.7202076315879822
0.5801796913146973,-2.0148524443008706,1.7705688076446606,87.79712306317649,-0.03125,0.03564453125,1.00634765625,-0.30517578125,-0.67138671875,-0.18310546875,0.0,0.0,0.0,-0.023378999903798103,0.0010581830283626914,0.6933895349502563,-0.7201827764511108
0.6001944541931152,-2.0528502807575326,1.915989511489756,87.79856423309135,-0.033203125,0.03564453125,1.00390625,0.18310546875,-0.18310546875,0.0,0.0,0.0,0.0,-0.02449721097946167,0.00037399877328425646,0.6934004426002502,-0.7201359272003174
0.6201977729797363,-1.9510772604731692,1.8981326222349924,87.80633015817766,-0.033203125,0.03369140625,1.00146484375,0.18310546875,-0.48828125,-0.06103515625,0.0,0.0,0.0,-0.023749642074108124,-0.00012793844507541507,0.6934491991996765,-0.72011399269104
0.6362888813018799,-1.9611071798259214,1.832330366327678,87.80949936595255,-0.03173828125,0.0341796875,1.00341796875,-0.06103515625,-1.15966796875,-0.244140625,0.0,0.0,0.0,-0.023414693772792816,0.000347140827216208,0.6934685111045837,-0.7201062440872192
0.6618547439575195,-1.9429719603624798,1.8326029335642438,87.81315351715851,-0.0322265625,0.0341796875,1.00244140625,-0.30517578125,-0.8544921875,-0.30517578125,0.0,0.0,0.0,-0.023302366957068443,0.00023642031010240316,0.693491518497467,-0.7200878858566284
0.6764402389526367,-1.9442581703605577,1.8349866695845782,87.81626125323086,-0.0322265625,0.0341796875,1.00537109375,0.18310546875,-0.18310546875,-0.1220703125,0.0,0.0,0.0,-0.023324862122535706,0.00022985227406024933,0.6935110688209534,-0.7200682759284973
0.7018280029296875,-1.9258190074790504,1.7396268767657395,87.8197583100859,-0.0302734375,0.03369140625,1.00439453125,0.0,-0.3662109375,0.06103515625,0.0,0.0,0.0,-0.022632166743278503,0.0007184789283201098,0.6935319900512695,-0.720069944858551
0.7203125953674316,-1.8348635127361064,1.8371307086537274,87.82635627282414,-0.0322265625,0.0322265625,1.00390625,-0.18310546875,-0.8544921875,-0.1220703125,0.0,0.0,0.0,-0.022650448605418205,-0.00044369095121510327,0.6935744285583496,-0.7200286984443665
0.7400667667388916,-1.9378081239065386,1.834105361738235,87.82643823509417,-0.0322265625,0.03369140625,1.00439453125,-0.1220703125,-0.91552734375,-0.1220703125,0.0,0.0,0.0,-0.023278985172510147,0.00019842250912915915,0.6935750246047974,-0.7200081944465637
0.7605431079864502,-2.042506599589783,1.8231198562319157,87.82522246142192,-0.0322265625,0.03564453125,1.00341796875,0.06103515625,-0.732421875,-0.244140625,0.0,0.0,0.0,-0.023870380595326424,0.000900925777386874,0.6935667395591736,-0.7199963331222534
0.7857556343078613,-1.9434329981314555,1.7774664449327273,87.83251710345549,-0.03125,0.0341796875,1.0048828125,-0.244140625,-0.54931640625,-0.1220703125,0.0,0.0,0.0,-0.02297167293727398,0.0005897486116737127,0.6936125755310059,-0.7199817299842834
0.7984068393707275,-1.890099465997411,1.8040230741993832,87.83767389627884,-0.03173828125,0.033203125,1.005859375,-0.18310546875,-0.6103515625,-0.06103515625,0.0,0.0,0.0,-0.022797230631113052,0.00010101061343448237,0.6936454176902771,-0.7199558019638062
0.8161704540252686,-1.9798754724480587,1.7426616151913406,87.83835691519585,-0.03125,0.03466796875,1.0029296875,0.1220703125,-0.79345703125,-0.18310546875,0.0,0.0,0.0,-0.022990034893155098,0.0010302959708496928,0.6936485171318054,-0.7199459075927734
0.8401105403900146,-1.8500083900035518,1.7023610444890325,87.84363665142428,-0.0302734375,0.033203125,1.0048828125,0.0,-0.8544921875,-0.06103515625,0.0,0.0,0.0,-0.021930253133177757,0.0004985149134881794,0.6936819553375244,-0.719947338104248
0.8602957725524902,-1.9365564917411338,1.810171525112864,87.84350687783004,-0.03173828125,0.0341796875,1.00537109375,-0.30517578125,-1.03759765625,-0.244140625,0.0,0.0,0.0,-0.02312628924846649,0.00034475448774173856,0.6936820149421692,-0.7199099063873291
0.8798577785491943,-1.9820846117577346,1.8335802909457901,87.84646434974066,-0.0322265625,0.03515625,1.00390625,0.0,-0.91552734375,-0.244140625,0.0,0.0,0.0,-0.02355392463505268,0.00047382910270243883,0.6937007308006287,-0.7198779582977295
0.900470495223999,-1.9633792849420084,1.7612529632252922,87.84795333097972,-0.03125,0.03369140625,1.0048828125,0.0,-0.06103515625,0.0,0.0,0.0,0.0,-0.022998802363872528,0.0008155024261213839,0.6937091946601868,-0.7198874354362488
0.9204134941101074,-1.9292977082007026,1.8198315470333777,87.85336967099154,-0.03173828125,0.03369140625,1.0029296875,-0.18310546875,-0.6103515625,-0.18310546875,0.0,0.0,0.0,-0.02313910983502865,0.00024208480317611247,0.6937441229820251,-0.7198497653007507
0.9379653930664062,-1.8449275830347085,1.8588208281367493,87.8601452186482,-0.03271484375,0.03271484375,1.0029296875,-0.18310546875,-0.9765625,-0.244140625,0.0,0.0,0.0,-0.02284504659473896,-0.0005124000599607825,0.6937867999076843,-0.7198179364204407
0.9600584506988525,-1.8913429873131764,1.7230732729819787,87.86017253940487,-0.0302734375,0.033203125,1.0048828125,0.0,-0.732421875,-0.1220703125,0.0,0.0,0.0,-0.022315174341201782,0.0006217667832970619,0.6937859058380127,-0.7198352813720703
0.9801132678985596,-1.8626886361976804,1.8036834857315867,87.86351933209818,-0.03125,0.033203125,1.0048828125,0.06103515625,-0.18310546875,-0.1220703125,0.0,0.0,0.0,-0.0226229727268219,-5.767359471064992e-05,0.6938077807426453,-0.7198048233985901
1.0021357536315918,-1.9522198230552654,1.839835677008464,87.86354665285486,-0.0322265625,0.0341796875,1.0029296875,-0.3662109375,-0.48828125,0.0,0.0,0.0,0.0,-0.023404119536280632,0.0002572078083176166,0.6938081979751587,-0.719779372215271
1.0192136764526367,-1.9119571385585097,1.729069111856192,87.86831412489553,-0.0302734375,0.033203125,1.001953125,-0.18310546875,-0.732421875,0.0,0.0,0.0,0.0,-0.02248089760541916,0.0007104849792085588,0.6938369870185852,-0.7197808623313904
1.0421667098999023,-1.8355557097198048,1.8260775415859427,87.87383974793407,-0.0322265625,0.03271484375,1.00537109375,0.1220703125,-0.79345703125,-0.18310546875,0.0,0.0,0.0,-0.022588085383176804,-0.00036065722815692425,0.6938726902008057,-0.7197432518005371
1.0623078346252441,-1.982430603527878,1.8877402759694064,87.8703700118357,-0.03271484375,0.03466796875,1.00244140625,0.0,-0.6103515625,-0.06103515625,0.0,0.0,0.0,-0.023883743211627007,0.00014048113371245563,0.6938514113426208,-0.7197221517562866
1.0761568546295166,-2.004368744255136,1.8624574769829578,87.8727605780452,-0.03271484375,0.03515625,1.00390625,-0.18310546875,-0.48828125,-0.06103515625,0.0,0.0,0.0,-0.023868529126048088,0.0004327023634687066,0.6938661336898804,-0.7197082042694092
1.1001737117767334,-1.920228070756572,1.8657229477364587,87.87868918224477,-0.03271484375,0.03369140625,1.00390625,0.06103515625,-0.3662109375,-0.06103515625,0.0,0.0,0.0,-0.02335982955992222,-9.609584958525375e-05,0.6939035058021545,-0.7196890711784363
1.1174752712249756,-1.9684918949791745,1.892139131238306,87.8792970690809,-0.033203125,0.0341796875,1.0029296875,0.06103515625,-0.54931640625,-0.244140625,0.0,0.0,0.0,-0.023822814226150513,3.0294651878648438e-05,0.6939075589179993,-0.7196700572967529
1.1402854919433594,-1.9685911461655514,1.7204871926074827,87.88241163534244,-0.03076171875,0.03466796875,1.0048828125,-0.18310546875,-1.03759765625,-0.30517578125,0.0,0.0,0.0,-0.022784557193517685,0.00111013266723603,0.6939249634742737,-0.719685971736908
1.1604459285736084,-2.0551356193651364,1.8668627355542045,87.88312880520529,-0.0322265625,0.03564453125,1.005859375,-0.3662109375,-0.79345703125,-0.244140625,0.0,0.0,0.0,-0.024213964119553566,0.000714606256224215,0.6939310431480408,-0.719633936882019
1.177438497543335,-2.0130386021894093,1.8977608038120497,87.88759574892248,-0.033203125,0.03515625,1.00048828125,0.06103515625,-0.244140625,0.0,0.0,0.0,0.0,-0.024136584252119064,0.00026647307095117867,0.693959653377533,-0.719609260559082
1.2008469104766846,-1.9498027898627273,1.783744776162144,87.89348337198703,-0.03173828125,0.0341796875,1.00341796875,0.06103515625,-0.3662109375,-0.1220703125,0.0,0.0,0.0,-0.023049358278512955,0.0006011004443280399,0.6939955949783325,-0.7196100354194641
1.2202281951904297,-1.8913444814170575,1.7771846996294642,87.89988325923933,-0.03125,0.033203125,1.00439453125,-0.1220703125,-1.0986328125,-0.30517578125,0.0,0.0,0.0,-0.022642526775598526,0.00028954556910321116,0.6940359473228455,-0.7195841670036316
1.2401678562164307,-1.92141460268145,1.7214753288813132,87.902963674555,-0.0302734375,0.03369140625,1.00390625,-0.18310546875,-1.0986328125,-0.30517578125,0.0,0.0,0.0,-0.022494100034236908,0.0008222738979384303,0.6940544247627258,-0.7195706963539124
1.2603058815002441,-2.0326111495863155,1.8708169881968189,87.90193231599034,-0.0322265625,0.03564453125,1.00439453125,0.1220703125,-0.42724609375,0.0,0.0,0.0,0.0,-0.024096354842185974,0.000557312392629683,0.6940492987632751,-0.7195239067077637
1.2752516269683838,-1.8283703507129514,1.835885266347258,87.91042907131782,-0.0322265625,0.0322265625,1.00439453125,-0.244140625,-0.244140625,0.0,0.0,0.0,0.0,-0.02260245569050312,-0.000458581285784021,0.6941024661064148,-0.7195212244987488
1.3014400005340576,-1.8852218571563757,1.886291208648306,87.91188390161103,-0.033203125,0.03369140625,1.00390625,-0.1220703125,-0.30517578125,0.06103515625,0.0,0.0,0.0,-0.023264581337571144,-0.00043057947186753154,0.6941120028495789,-0.7194908261299133
1.320573329925537,-1.986770334971775,1.8940336549593384,87.9117336374493,-0.033203125,0.03466796875,1.0029296875,0.06103515625,-0.42724609375,0.0,0.0,0.0,0.0,-0.023949038237333298,0.00013585643318947405,0.6941112279891968,-0.7194693684577942
1.3427891731262207,-1.9260505935805963,1.8377257888851648,87.91587956227549,-0.0322265625,0.0341796875,1.00439453125,0.06103515625,-0.79345703125,-0.1220703125,0.0,0.0,0.0,-0.023226920515298843,0.0001226306485477835,0.6941368579864502,-0.7194682359695435
1.3553495407104492,-2.029187730708258,1.7469096726899713,87.91540827922276,-0.03076171875,0.03564453125,1.00390625,-0.3662109375,-1.03759765625,-0.30517578125,0.0,0.0,0.0,-0.023324668407440186,0.001317775808274746,0.6941320300102234,-0.7194684743881226
1.3802595138549805,-1.9004085693324875,1.8736195001906397,87.92225212877112,-0.03271484375,0.03369140625,1.0048828125,-0.30517578125,-0.732421875,-0.1220703125,0.0,0.0,0.0,-0.02328324504196644,-0.00025688044843263924,0.6941770911216736,-0.7194276452064514
1.4001610279083252,-1.933766572908595,1.8110506985250916,87.9234405816867,-0.03173828125,0.0341796875,1.0048828125,0.1220703125,-0.18310546875,0.0,0.0,0.0,0.0,-0.023113850504159927,0.00033846290898509324,0.6941840648651123,-0.7194262742996216
1.4202094078063965,-1.937433317275834,1.8222054646567802,87.92716986497352,-0.03173828125,0.0341796875,1.0029296875,0.30517578125,-0.67138671875,-0.18310546875,0.0,0.0,0.0,-0.023204397410154343,0.00029136083321645856,0.6942075490951538,-0.7194007039070129
1.4401137828826904,-1.932298295680454,1.804724876136602,87.9316846200149,-0.03173828125,0.03369140625,1.00390625,-0.18310546875,-1.220703125,-0.3662109375,0.0,0.0,0.0,-0.023066304624080658,0.0003709612356033176,0.6942357420921326,-0.7193779349327087
1.46014404296875,-1.9107046526194587,1.7100305998750163,87.93563246935517,-0.0302734375,0.03369140625,1.00439453125,-0.1220703125,-0.79345703125,-0.30517578125,0.0,0.0,0.0,-0.022357327863574028,0.000835681043099612,0.6942594647407532,-0.7193771004676819
1.4800841808319092,-1.987642464751421,1.8461331114232158,87.93660235621732,-0.0322265625,0.03466796875,1.005859375,-0.06103515625,-0.30517578125,-0.1220703125,0.0,0.0,0.0,-0.023664439097046852,0.0004471850406844169,0.6942668557167053,-0.7193284630775452
1.4961512088775635,-2.000903063581589,1.847847488904889,87.94024284704493,-0.03271484375,0.03466796875,1.00390625,-0.1220703125,-0.42724609375,-0.06103515625,0.0,0.0,0.0,-0.023758048191666603,0.0005175169208087027,0.6942896842956543,-0.7193031907081604
1.5170893669128418,-1.8806153214480252,1.7595394395172652,87.94772873437526,-0.03125,0.033203125,1.00341796875,-0.30517578125,-0.8544921875,-0.1220703125,0.0,0.0,0.0,-0.022468196228146553,0.00034480224712751806,0.6943361759185791,-0.7192999124526978
1.5411529541015625,-1.8368145989612028,1.7490966138848447,87.95308360268456,-0.03076171875,0.0322265625,1.00390625,0.06103515625,-0.8544921875,-0.30517578125,0.0,0.0,0.0,-0.022130005061626434,0.000146020800457336,0.6943697929382324,-0.7192780375480652
1.5557136535644531,-1.913586992449204,1.8130214215440519,87.95434035749184,-0.03173828125,0.033203125,1.00439453125,0.0,-0.3662109375,-0.30517578125,0.0,0.0,0.0,-0.022999033331871033,0.00021003787696827203,0.6943780779838562,-0.7192427515983582
1.5816683769226074,-2.0211524400365612,1.9494525292243525,87.95433352730267,-0.03369140625,0.03564453125,1.0048828125,-0.18310546875,-0.54931640625,-0.06103515625,0.0,0.0,0.0,-0.024500388652086258,5.0847138481913134e-06,0.6943790912628174,-0.7191922068595886
1.5971248149871826,-1.8951324616420642,1.7860338500294506,87.96263220714424,-0.03125,0.033203125,1.00341796875,-0.1220703125,-0.54931640625,0.0,0.0,0.0,0.0,-0.0227197352796793,0.00026932964101433754,0.6944299340248108,-0.7192016243934631
1.6177787780761719,-1.8711610589762582,1.7834057213028764,87.96676447159209,-0.03125,0.03271484375,1.00341796875,0.1220703125,-0.732421875,-0.18310546875,0.0,0.0,0.0,-0.02255336381494999,0.00014137942343950272,0.6944558620452881,-0.7191817760467529
1.640442132949829,-2.0267986586026345,1.9155478970712323,87.96423047141002,-0.033203125,0.03515625,1.00390625,0.06103515625,-0.8544921875,-0.18310546875,0.0,0.0,0.0,-0.02433048002421856,0.00025431145331822336,0.6944409012794495,-0.7191383242607117
1.6607131958007812,-1.9618102624236096,1.8235166475340112,87.96850616983045,-0.0322265625,0.03466796875,1.00439453125,-0.30517578125,-0.67138671875,-0.244140625,0.0,0.0,0.0,-0.023365214467048645,0.00043923003249801695,0.6944669485092163,-0.7191451787948608
1.6812865734100342,-1.9520597404965934,1.8032837062217293,87.9728433399534,-0.03173828125,0.0341796875,1.0048828125,-0.06103515625,-0.3662109375,0.0,0.0,0.0,0.0,-0.023181453347206116,0.0005080628907307982,0.6944940090179443,-0.7191247344017029
1.7005259990692139,-2.0625045397059343,1.7681784548785677,87.97224228330644,-0.03125,0.03564453125,1.00537109375,0.06103515625,-0.42724609375,-0.06103515625,0.0,0.0,0.0,-0.023661917075514793,0.0013977180933579803,0.6944887638092041,-0.7191130518913269
1.7201683521270752,-1.9494856129531448,1.7802746131769547,87.97856703847788,-0.03125,0.0341796875,1.0029296875,-0.06103515625,-1.0986328125,-0.244140625,0.0,0.0,0.0,-0.02302589640021324,0.000638080236967653,0.69452965259552,-0.7190952897071838
1.7400662899017334,-1.9093725522878946,1.7397051037760771,87.98224851044051,-0.03076171875,0.03271484375,1.00341796875,-0.30517578125,-1.03759765625,-0.18310546875,0.0,0.0,0.0,-0.0225283931940794,0.000650397501885891,0.694552481174469,-0.7190890312194824
1.7603850364685059,-1.9656710268519593,1.7823103297147358,87.98573873710639,-0.03125,0.03466796875,1.0048828125,0.06103515625,-0.732421875,-0.244140625,0.0,0.0,0.0,-0.023139750584959984,0.0007248460315167904,0.6945745944976807,-0.7190480828285217
1.781207799911499,-2.031331556333996,1.8618346491080173,87.98616903902409,-0.03271484375,0.03564453125,1.0048828125,-0.06103515625,-0.3662109375,-0.06103515625,0.0,0.0,0.0,-0.024033494293689728,0.0006236606859602034,0.6945779323577881,-0.7190157175064087
1.7999286651611328,-2.023921227971355,1.871499153340174,87.99025349214777,-0.03271484375,0.03515625,1.0048828125,-0.1220703125,-0.42724609375,-0.1220703125,0.0,0.0,0.0,-0.02404552698135376,0.0005189302028156817,0.6946037411689758,-0.7189903259277344
1.8201284408569336,-1.9393799211892877,1.8138762624073612,87.99772571909976,-0.0322265625,0.0341796875,1.00390625,0.1220703125,-0.67138671875,-0.18310546875,0.0,0.0,0.0,-0.02316596359014511,0.00036973581882193685,0.6946502923965454,-0.7189744114875793
1.8404450416564941,-1.8698791178464114,1.7411191663776813,88.0027049270047,-0.03076171875,0.033203125,1.005859375,0.06103515625,-0.91552734375,-0.244140625,0.0,0.0,0.0,-0.022289058193564415,0.00040612707380205393,0.6946810483932495,-0.718972384929657
1.8602101802825928,-2.01043160436058,1.7514436376383904,88.00059439855116,-0.03076171875,0.03515625,1.001953125,-0.1220703125,-0.8544921875,-0.244140625,0.0,0.0,0.0,-0.02323347143828869,0.0011929472675547004,0.6946669220924377,-0.718955397605896
1.8803324699401855,-1.9583050947189238,1.808542524995816,88.005368700781,-0.03173828125,0.03466796875,1.00341796875,-0.30517578125,-0.48828125,-0.06103515625,0.0,0.0,0.0,-0.023252353072166443,0.0005194921395741403,0.6946980953216553,-0.7189253568649292
1.9000399112701416,-1.9460092601090198,1.9049367713087944,88.0092209274729,-0.033203125,0.0341796875,1.005859375,0.06103515625,-0.18310546875,0.0,0.0,0.0,0.0,-0.02375926449894905,-0.0001593264751136303,0.6947231292724609,-0.7188847661018372
1.9205937385559082,-1.9049625979615934,1.8348218912708516,88.01423428632368,-0.0322265625,0.03271484375,1.00439453125,0.1220703125,-0.6103515625,-0.30517578125,0.0,0.0,0.0,-0.023076916113495827,3.2937114156084135e-05,0.6947541236877441,-0.7188771367073059
1.940232515335083,-1.9855714233290263,1.7706249432619017,88.0141591542428,-0.03125,0.03466796875,1.00537109375,-0.30517578125,-1.15966796875,-0.18310546875,0.0,0.0,0.0,-0.0231936052441597,0.0009245834662579,0.69475257396698,-0.7188742160797119
1.960218906402588,-1.8667186612513995,1.8087935344478139,88.01938424895786,-0.03173828125,0.03271484375,1.00244140625,-0.42724609375,-0.732421875,-0.244140625,0.0,0.0,0.0,-0.022679276764392853,-3.453956378507428e-05,0.6947862505912781,-0.7188585996627808
1.983548641204834,-1.91829534066487,1.8645628827946144,88.02109179625037,-0.03271484375,0.033203125,1.0048828125,0.1220703125,-0.1220703125,-0.06103515625,0.0,0.0,0.0,-0.023340778425335884,-7.150154851842672e-05,0.6947973370552063,-0.7188267707824707
2.000159502029419,-1.9039656037861832,1.7889845984726018,88.0244795700787,-0.03125,0.033203125,1.00390625,0.18310546875,-0.3662109375,-0.06103515625,0.0,0.0,0.0,-0.02279287949204445,0.00031663462868891656,0.6948180198669434,-0.7188243865966797
2.0212619304656982,-1.8960030973178292,1.7382303165238833,88.02911043833596,-0.03125,0.033203125,1.00439453125,-0.244140625,-1.0986328125,-0.244140625,0.0,0.0,0.0,-0.022435324266552925,0.0005877962103113532,0.694846510887146,-0.7188079357147217
2.0401899814605713,-1.9419070911821925,1.7742057766559867,88.02980711763131,-0.03125,0.0341796875,1.005859375,-0.18310546875,-0.9765625,-0.244140625,0.0,0.0,0.0,-0.022941291332244873,0.0006405090098269284,0.6948511004447937,-0.7187873721122742
2.0601491928100586,-2.027565774223792,1.8041675753890112,88.02956806101035,-0.03173828125,0.03515625,1.00537109375,0.0,-0.48828125,-0.1220703125,0.0,0.0,0.0,-0.023660166189074516,0.0009718373185023665,0.69484943151474,-0.7187652587890625
2.080690860748291,-1.903891965809194,1.7917265992592446,88.03664413699049,-0.03173828125,0.033203125,1.00341796875,-0.18310546875,-0.30517578125,-0.18310546875,0.0,0.0,0.0,-0.022809002548456192,0.0003013985406141728,0.6948943138122559,-0.7187501192092896
2.09582781791687,-1.9857063195651339,1.799246424092017,88.03883662771406,-0.03125,0.03466796875,1.0029296875,-0.244140625,-0.732421875,-0.1220703125,0.0,0.0,0.0,-0.02336772158741951,0.000750786333810538,0.6949077844619751,-0.7187187671661377
2.1204049587249756,-1.9464463922159005,1.787704578333459,88.04316013745868,-0.03125,0.0341796875,1.00244140625,0.0,-0.732421875,-0.1220703125,0.0,0.0,0.0,-0.023051505908370018,0.0005860046949237585,0.6949349641799927,-0.7187028527259827
2.137340784072876,-1.9444993614156239,1.7970500913870349,88.04724459058235,-0.03173828125,0.0341796875,1.0048828125,-0.06103515625,-0.91552734375,-0.30517578125,0.0,0.0,0.0,-0.02309591881930828,0.0005163737223483622,0.6949607133865356,-0.7186765670776367
2.160247564315796,-1.9210193054832356,1.8161902024321146,88.05043428892475,-0.0322265625,0.03369140625,1.00439453125,-0.3662109375,-0.54931640625,-0.18310546875,0.0,0.0,0.0,-0.023064669221639633,0.0002545175957493484,0.6949809789657593,-0.7186580896377563
2.1801836490631104,-1.9804479276778704,1.8839561377258076,88.05080994932909,-0.03271484375,0.03466796875,1.005859375,-0.244140625,-0.48828125,0.06103515625,0.0,0.0,0.0,-0.023848125711083412,0.00018981164612341672,0.6949838399887085,-0.7186297178268433
2.2001571655273438,-2.0087089025858558,1.780526903289422,88.05406794956319,-0.03125,0.03466796875,1.00390625,0.30517578125,-0.54931640625,-0.06103515625,0.0,0.0,0.0,-0.023398403078317642,0.0010108590358868241,0.6950028538703918,-0.718625545501709
2.22465443611145,-1.9309800691706414,1.8524126165913963,88.06051564813968,-0.03271484375,0.03369140625,1.00390625,-0.30517578125,-0.42724609375,-0.1220703125,0.0,0.0,0.0,-0.023346692323684692,8.9700122771319e-05,0.6950445175170898,-0.7185875177383423
2.240229606628418,-1.9445766279306096,1.8423733057285354,88.06376681818462,-0.03173828125,0.03369140625,1.0048828125,-0.06103515625,-1.220703125,-0.244140625,0.0,0.0,0.0,-0.02337108924984932,0.00023581794812344015,0.6950647830963135,-0.7185670733451843
2.2603659629821777,-2.00588654035476,1.8327216081010727,88.065228478667,-0.0322265625,0.03515625,1.00341796875,0.0,-0.54931640625,-0.1220703125,0.0,0.0,0.0,-0.0236970204859972,0.0006685518310405314,0.6950736045837402,-0.7185477614402771
2.2803969383239746,-1.883114103467192,1.7837516063513141,88.07099998851565,-0.03173828125,0.033203125,1.0029296875,0.0,-0.18310546875,0.06103515625,0.0,0.0,0.0,-0.022630274295806885,0.00023223317111842334,0.6951097846031189,-0.7185472846031189
2.3009068965911865,-1.8771391820473118,1.822577709966546,88.07407357364217,-0.0322265625,0.033203125,1.00390625,-0.18310546875,-0.54931640625,-0.1220703125,0.0,0.0,0.0,-0.022828204557299614,-4.6978064347058535e-05,0.6951293349266052,-0.7185221314430237
2.320183515548706,-1.8729793833993624,1.997083066844848,88.07801459279325,-0.03466796875,0.03271484375,1.0029296875,-0.18310546875,-0.91552734375,-0.244140625,0.0,0.0,0.0,-0.023860139772295952,-0.001166142406873405,0.6951543092727661,-0.7184635400772095
2.3365325927734375,-1.9439642587828356,1.8671214289690188,88.07962651743738,-0.033203125,0.0341796875,1.00341796875,0.1220703125,-0.79345703125,-0.244140625,0.0,0.0,0.0,-0.023517262190580368,8.008674922166392e-05,0.6951644420623779,-0.71846604347229
2.3607048988342285,-2.045011571467885,1.7430707862113066,88.07937380043809,-0.02978515625,0.0361328125,1.00341796875,-0.1220703125,-0.54931640625,-0.06103515625,0.0,0.0,0.0,-0.02339869737625122,0.0014712248230352998,0.6951605081558228,-0.7184721231460571
2.3806991577148438,-1.9514211178091971,1.8575723976225178,88.08569855560953,-0.0322265625,0.0341796875,1.0029296875,-0.244140625,-0.42724609375,0.0,0.0,0.0,0.0,-0.02350611239671707,0.00018647534307092428,0.6952024102210999,-0.7184295058250427
2.4005753993988037,-1.9085890015240472,1.8109922150303233,88.09057531067691,-0.03173828125,0.03369140625,1.0029296875,-0.06103515625,-0.54931640625,-0.1220703125,0.0,0.0,0.0,-0.02295512706041336,0.00021978588483761996,0.6952326893806458,-0.7184181809425354
2.4214837551116943,-1.8630828661788372,1.8544904882029611,88.09638097147142,-0.03173828125,0.03271484375,1.0029296875,0.1220703125,-0.732421875,-0.244140625,0.0,0.0,0.0,-0.022933613508939743,-0.00032798488973639905,0.6952693462371826,-0.718383252620697
2.4403843879699707,-1.8894136723160595,1.741119806707916,88.10011708494741,-0.0302734375,0.033203125,1.00390625,-0.06103515625,-0.91552734375,-0.3662109375,0.0,0.0,0.0,-0.022411169484257698,0.0005435936618596315,0.6952918767929077,-0.7183778882026672
2.461702823638916,-2.038314570986688,1.833752753222333,88.09864859427587,-0.03271484375,0.0361328125,1.00341796875,-0.3662109375,-0.79345703125,-0.18310546875,0.0,0.0,0.0,-0.023906361311674118,0.0008657568832859397,0.6952829360961914,-0.7183379530906677
2.4801018238067627,-2.0441851185783135,1.8813822236257707,88.10163338694316,-0.033203125,0.03564453125,1.0029296875,0.06103515625,-0.30517578125,0.06103515625,0.0,0.0,0.0,-0.024231964722275734,0.0006032673991285264,0.6953022480010986,-0.7183086276054382
2.5000863075256348,-1.982540526884833,1.7283511949414003,88.1070224061983,-0.0302734375,0.03466796875,1.00244140625,0.244140625,-0.3662109375,-0.18310546875,0.0,0.0,0.0,-0.022917473688721657,0.0011901133693754673,0.695334255695343,-0.7183201313018799
2.52017879486084,-1.9057216027331112,1.7854542444453514,88.1121928594,-0.03173828125,0.033203125,1.00390625,-0.1220703125,-0.9765625,-0.18310546875,0.0,0.0,0.0,-0.022782227024435997,0.00036687799729406834,0.6953679919242859,-0.7182925939559937
2.5403800010681152,-1.9655128652839913,1.8043413183260235,88.11361353874736,-0.03173828125,0.03466796875,1.00390625,-0.244140625,-0.91552734375,-0.3662109375,0.0,0.0,0.0,-0.023271553218364716,0.0006115431315265596,0.6953768134117126,-0.7182681560516357
2.5600647926330566,-1.9805898675465596,1.7837438156667922,88.11563527474169,-0.03125,0.03466796875,1.00244140625,0.0,-0.18310546875,-0.1220703125,0.0,0.0,0.0,-0.02324111945927143,0.0008326212409883738,0.6953891515731812,-0.7182570099830627
2.580260753631592,-1.8909551606343666,1.6685685768486886,88.12180976575138,-0.029296875,0.033203125,1.0048828125,0.0,-0.3662109375,0.06103515625,0.0,0.0,0.0,-0.021980656310915947,0.0010121542727574706,0.695426881313324,-0.7182599902153015
2.6011061668395996,-1.9477174477317576,1.844549361309419,88.12453501123022,-0.03271484375,0.0341796875,1.00439453125,-0.244140625,-0.9765625,-0.18310546875,0.0,0.0,0.0,-0.023403843864798546,0.000253628590144217,0.6954457759857178,-0.7181973457336426
2.6209287643432617,-1.987192739483258,1.7553310824931854,88.12732855860075,-0.03125,0.03466796875,1.00537109375,0.06103515625,-1.03759765625,-0.244140625,0.0,0.0,0.0,-0.023110073059797287,0.0010532292071729898,0.6954619288444519,-0.7181905508041382
2.640127658843994,-1.857991813926239,1.771661104303334,88.13286101182847,-0.03173828125,0.03271484375,1.00341796875,0.0,-0.6103515625,-0.1220703125,0.0,0.0,0.0,-0.022399354726076126,0.00016778403369244188,0.6954975128173828,-0.7181793451309204
2.6604928970336914,-1.9497703464641696,1.891624946059851,88.13353037036713,-0.033203125,0.03369140625,1.00341796875,-0.1220703125,-0.48828125,-0.18310546875,0.0,0.0,0.0,-0.023702245205640793,-2.7254636734141968e-05,0.695502519607544,-0.7181326746940613
2.6800599098205566,-1.8435470310487199,1.8301415041421003,88.1417129369928,-0.03125,0.0322265625,1.0048828125,-0.244140625,-0.48828125,-0.244140625,0.0,0.0,0.0,-0.022663600742816925,-0.00028482763445936143,0.6955533027648926,-0.7181169390678406
2.7006659507751465,-1.9008881766782693,1.847066286018569,88.14333169182609,-0.0322265625,0.033203125,1.0048828125,0.1220703125,-0.244140625,0.0,0.0,0.0,0.0,-0.02312561497092247,-4.256485772202723e-05,0.6955636143684387,-0.7180922627449036
2.719984769821167,-1.9002888275786007,1.8382583301970143,88.14716342795047,-0.03271484375,0.033203125,1.00537109375,0.06103515625,-0.79345703125,-0.06103515625,0.0,0.0,0.0,-0.023068424314260483,9.79097058007028e-06,0.6955875754356384,-0.7180709838867188
2.7354586124420166,-1.8928620640732696,1.746876588961179,88.15042825837374,-0.03076171875,0.033203125,1.00537109375,-0.18310546875,-1.0986328125,-0.244140625,0.0,0.0,0.0,-0.022467464208602905,0.000538273190613836,0.6956072449684143,-0.7180708050727844
2.7600882053375244,-1.9032450188287469,1.676370680593253,88.15224508869296,-0.02978515625,0.03369140625,1.00341796875,-0.18310546875,-0.67138671875,-0.244140625,0.0,0.0,0.0,-0.022104736417531967,0.0010436803568154573,0.6956176161766052,-0.718071460723877
2.7803831100463867,-1.909494428475897,1.8480955101491252,88.15562603233211,-0.0322265625,0.033203125,1.00439453125,-0.1220703125,-0.244140625,-0.18310546875,0.0,0.0,0.0,-0.023185791447758675,5.710066034225747e-06,0.6956406831741333,-0.7180156707763672
2.7959671020507812,-1.8524775033885115,1.8798704039416707,88.16123361764069,-0.033203125,0.03271484375,1.00634765625,-0.06103515625,-0.6103515625,-0.06103515625,0.0,0.0,0.0,-0.023021338507533073,-0.0005384969990700483,0.695675790309906,-0.7179868221282959
2.82067608833313,-1.9699638007453124,1.7490887164786169,88.16117214593817,-0.03125,0.03466796875,1.00537109375,-0.244140625,-1.0986328125,-0.1220703125,0.0,0.0,0.0,-0.022963935509324074,0.0009945901110768318,0.6956740617752075,-0.7179898619651794
2.8401806354522705,-1.9774050784026296,1.8609932551796364,88.16368565555273,-0.03271484375,0.03466796875,1.00439453125,-0.1220703125,-0.79345703125,-0.244140625,0.0,0.0,0.0,-0.02368953451514244,0.0003387772594578564,0.6956911683082581,-0.7179502248764038
2.8572099208831787,-1.8842062934041595,1.7040189661883474,88.16905418424037,-0.0302734375,0.033203125,1.005859375,0.0,-0.3662109375,-0.1220703125,0.0,0.0,0.0,-0.022153077647089958,0.0007580278324894607,0.6957235336303711,-0.7179675102233887
2.8812620639801025,-1.8822003522222912,1.8408538020816192,88.17134912780148,-0.03271484375,0.033203125,1.0048828125,-0.18310546875,-0.3662109375,0.0,0.0,0.0,0.0,-0.02297084592282772,-0.00011143030860694125,0.6957391500473022,-0.717927098274231
2.9013102054595947,-1.8993234230281018,1.7750217708183917,88.17488716579155,-0.03125,0.03271484375,1.0048828125,-0.1220703125,-0.732421875,-0.06103515625,0.0,0.0,0.0,-0.02267863042652607,0.0004058856866322458,0.6957607865333557,-0.717915415763855
2.9245734214782715,-1.9767698708098185,1.7991044842233277,88.17528331676341,-0.03125,0.03466796875,1.0048828125,0.0,-0.8544921875,-0.244140625,0.0,0.0,0.0,-0.023309964686632156,0.0007252427749335766,0.6957631707191467,-0.7178925275802612
2.940305233001709,-1.9189649126469428,1.8624111597626487,88.17931995856289,-0.03271484375,0.0341796875,1.0048828125,0.0,-0.732421875,-0.06103515625,0.0,0.0,0.0,-0.023331990465521812,-2.1722749806940556e-05,0.6957892179489136,-0.7178670763969421
2.960176467895508,-2.0239193069806514,1.8139614263285748,88.18003712842574,-0.03173828125,0.03515625,1.001953125,-0.244140625,-0.6103515625,-0.06103515625,0.0,0.0,0.0,-0.023695461452007294,0.0009193774894811213,0.6957927942276001,-0.7178510427474976
2.9790096282958984,-1.9696472641659646,1.9055241675774155,88.18582229865274,-0.03271484375,0.03466796875,1.0048828125,-0.06103515625,-0.42724609375,-0.18310546875,0.0,0.0,0.0,-0.023911116644740105,1.7147314792964607e-05,0.695830225944519,-0.717808187007904
3.0004312992095947,-1.8947375913306728,1.7196493204953924,88.18981112912803,-0.03076171875,0.033203125,1.0048828125,0.1220703125,-0.67138671875,-0.06103515625,0.0,0.0,0.0,-0.02231377735733986,0.0007280274294316769,0.6958536505699158,-0.7178364992141724
3.0206563472747803,-1.9512992416211947,1.717886811524412,88.19145037452883,-0.03076171875,0.0341796875,1.00244140625,-0.1220703125,-0.9765625,-0.244140625,0.0,0.0,0.0,-0.022657379508018494,0.0010828669182956219,0.6958634853363037,-0.7178158760070801
3.0403900146484375,-1.9503408807032772,1.8110953081981083,88.19300765765959,-0.03125,0.0341796875,1.00341796875,-0.3662109375,-0.732421875,-0.18310546875,0.0,0.0,0.0,-0.023217078298330307,0.0004932040465064347,0.6958744525909424,-0.7177879810333252
3.060534954071045,-1.9834305859110504,1.898623542081587,88.19504988422143,-0.0341796875,0.03515625,1.00439453125,0.06103515625,-0.244140625,-0.06103515625,0.0,0.0,0.0,-0.023955566808581352,0.00014602211012970656,0.6958879828453064,-0.7177507281303406
3.0800507068634033,-1.9431591502344203,1.8605546289688746,88.20028863931483,-0.03271484375,0.0341796875,1.00439453125,0.18310546875,-0.30517578125,-0.06103515625,0.0,0.0,0.0,-0.023472264409065247,0.00014111444761510938,0.6959205269813538,-0.717735230922699
3.0953261852264404,-1.8983919559800413,1.929256513622271,88.20609430010934,-0.03369140625,0.033203125,1.00244140625,-0.30517578125,-0.9765625,-0.244140625,0.0,0.0,0.0,-0.023608891293406487,-0.000560100597795099,0.6959571242332458,-0.7176949381828308
3.1202335357666016,-1.9260079048982837,1.8362291236832857,88.20879905502066,-0.0322265625,0.03369140625,1.0029296875,-0.30517578125,-0.9765625,-0.244140625,0.0,0.0,0.0,-0.023217177018523216,0.000191120634553954,0.6959736943244934,-0.7176918983459473
3.140345335006714,-1.8913694542962103,2.0203558692246086,88.21217999865982,-0.03515625,0.033203125,1.0048828125,0.18310546875,-0.79345703125,-0.18310546875,0.0,0.0,0.0,-0.02411792427301407,-0.0011723428033292294,0.6959950923919678,-0.7176405191421509
3.160182476043701,-1.9356122180883795,1.8090774141851926,88.21223464017318,-0.03125,0.0341796875,1.0048828125,-0.244140625,-0.42724609375,-0.06103515625,0.0,0.0,0.0,-0.023112501949071884,0.0004202849231660366,0.6959949135780334,-0.7176746129989624
3.1804990768432617,-2.0039083468163947,1.747811257660413,88.2135733572505,-0.03076171875,0.03515625,1.0048828125,-0.244140625,-0.3662109375,-0.06103515625,0.0,0.0,0.0,-0.02316831238567829,0.0012192699359729886,0.6960020065307617,-0.7176649570465088
3.200524091720581,-1.9160962331955373,1.8051449327705578,88.2207245653115,-0.03125,0.03369140625,1.0048828125,0.0,-0.6103515625,-0.06103515625,0.0,0.0,0.0,-0.022966381162405014,0.00032809830736368895,0.6960481405258179,-0.7176275849342346
3.218207359313965,-1.9321251930736765,1.5948280403002326,88.22253456544156,-0.02880859375,0.03369140625,1.00439453125,0.18310546875,-0.79345703125,-0.30517578125,0.0,0.0,0.0,-0.021789895370602608,0.0017435793997719884,0.6960561275482178,-0.7176546454429626
3.235729932785034,-1.9585364673770578,1.787446845413997,88.2236888674113,-0.0322265625,0.0341796875,1.0029296875,-0.30517578125,-0.9765625,-0.30517578125,0.0,0.0,0.0,-0.02312469854950905,0.000697373179718852,0.6960663199424744,-0.7176047563552856
3.2553160190582275,-1.8556202441803635,1.7722005825260592,88.22939890555742,-0.03125,0.03271484375,1.00439453125,-0.244140625,-0.42724609375,-0.06103515625,0.0,0.0,0.0,-0.022387627512216568,0.00016886787489056587,0.6961023211479187,-0.7175935506820679
3.280580759048462,-1.9221966593414166,1.8278640629407243,88.23075128301308,-0.0322265625,0.0341796875,1.0029296875,0.30517578125,-0.1220703125,0.06103515625,0.0,0.0,0.0,-0.023142488673329353,0.0002248261298518628,0.6961110830307007,-0.7175609469413757
3.3038337230682373,-1.9164603676556637,1.8376730683625089,88.23420735873312,-0.0322265625,0.0341796875,1.00439453125,0.1220703125,-0.54931640625,-0.06103515625,0.0,0.0,0.0,-0.023166116327047348,0.0001292200613534078,0.6961328387260437,-0.7175393104553223
3.320030689239502,-1.9506951967664716,1.8760179638063719,88.23565535883715,-0.03271484375,0.03466796875,1.00537109375,-0.244140625,-0.9765625,-0.18310546875,0.0,0.0,0.0,-0.02361329458653927,9.726316784508526e-05,0.6961421370506287,-0.7175155878067017
3.336294174194336,-1.9322792992168247,1.8095190286037162,88.23771124577733,-0.03173828125,0.03369140625,1.00341796875,-0.18310546875,-0.79345703125,-0.06103515625,0.0,0.0,0.0,-0.02309422194957733,0.0004024109512101859,0.6961544752120972,-0.7175204157829285
3.360407829284668,-1.9044178903752849,1.8198405116566634,88.2422738121429,-0.03173828125,0.033203125,1.00439453125,0.1220703125,-0.06103515625,-0.1220703125,0.0,0.0,0.0,-0.02298242785036564,0.00016940516070462763,0.6961832046508789,-0.7174961566925049
3.3810651302337646,-1.8959845277410232,1.9191094138365707,88.2456889067279,-0.03369140625,0.033203125,1.00244140625,-0.1220703125,-0.48828125,0.06103515625,0.0,0.0,0.0,-0.02353239804506302,-0.0005030034808441997,0.6962050795555115,-0.7174569368362427
3.3956291675567627,-1.8803109511431366,1.9260096124455761,88.25021732214762,-0.033203125,0.033203125,1.0029296875,-0.30517578125,-0.8544921875,-0.1220703125,0.0,0.0,0.0,-0.023476189002394676,-0.000640526763163507,0.696233332157135,-0.7174312472343445
3.415783166885376,-1.948914651827214,1.7884452269715823,88.25153554865743,-0.03173828125,0.03466796875,1.0048828125,0.0,-0.8544921875,-0.244140625,0.0,0.0,0.0,-0.023070352151989937,0.0006382772116921842,0.6962407231330872,-0.7174373269081116
3.440638303756714,-1.9517329586334904,1.780543551875524,88.25482769983738,-0.03125,0.0341796875,1.00341796875,0.06103515625,-0.42724609375,-0.30517578125,0.0,0.0,0.0,-0.02303999476134777,0.0007055602036416531,0.6962612271308899,-0.7174182534217834
3.4624593257904053,-1.8908145014261468,1.8626167057679839,88.25884385106934,-0.03271484375,0.033203125,1.00390625,-0.18310546875,-0.42724609375,-0.06103515625,0.0,0.0,0.0,-0.023157015442848206,-0.00017786677926778793,0.696287214756012,-0.7173896431922913
3.480118989944458,-1.9742794130837025,1.8348417415081268,88.26029868136256,-0.0322265625,0.03466796875,1.00634765625,-0.1220703125,-0.48828125,-0.1220703125,0.0,0.0,0.0,-0.023510858416557312,0.000503558840136975,0.696295976638794,-0.7173694968223572
3.501192569732666,-1.9774076397235685,1.9186663053141662,88.26303075703056,-0.03369140625,0.03466796875,1.00390625,0.06103515625,-0.6103515625,-0.1220703125,0.0,0.0,0.0,-0.024039490148425102,-1.9022147625946673e-06,0.6963137984275818,-0.7173348069190979
3.520169973373413,-1.9691040506835369,1.9030377652761192,88.26729279507265,-0.033203125,0.03466796875,1.00390625,-0.06103515625,-0.79345703125,-0.244140625,0.0,0.0,0.0,-0.02389259822666645,4.641911436920054e-05,0.6963403820991516,-0.7173139452934265
3.540147304534912,-2.012375220066272,1.8222385483855725,88.26872713479835,-0.03173828125,0.03515625,1.0029296875,-0.30517578125,-0.79345703125,-0.1220703125,0.0,0.0,0.0,-0.023672746494412422,0.0008157221018336713,0.6963483691215515,-0.7173130512237549
3.5620687007904053,-1.9424535063157935,1.8727394730047657,88.27378147478416,-0.0322265625,0.03466796875,1.00439453125,-0.1220703125,-0.3662109375,-0.06103515625,0.0,0.0,0.0,-0.023541759699583054,7.556716445833445e-05,0.6963807940483093,-0.717286229133606
3.580195903778076,-1.9025137617007324,1.7745923226743272,88.27818011660965,-0.03125,0.033203125,1.00341796875,0.1220703125,-0.42724609375,-0.06103515625,0.0,0.0,0.0,-0.022695615887641907,0.000448405189672485,0.6964076161384583,-0.7172874212265015
3.6001083850860596,-1.9442477116333912,1.84014922538005,88.27931392801187,-0.03173828125,0.0341796875,1.0048828125,-0.18310546875,-0.6103515625,-0.1220703125,0.0,0.0,0.0,-0.023355035111308098,0.00029170745983719826,0.6964151859283447,-0.7172589898109436
3.6204516887664795,-1.9801106870876009,1.8050420530461844,88.28124687154698,-0.03125,0.0341796875,1.00537109375,-0.18310546875,-1.03759765625,-0.244140625,0.0,0.0,0.0,-0.023366257548332214,0.0007299142307601869,0.6964267492294312,-0.7172471284866333
3.6402077674865723,-2.0013732794172623,1.9012730151493171,88.28205283386905,-0.03271484375,0.03466796875,1.00439453125,0.1220703125,-0.6103515625,-0.18310546875,0.0,0.0,0.0,-0.02408384345471859,0.00025666618603281677,0.6964327096939087,-0.7172178030014038
3.660675287246704,-1.9093460853048607,1.8754186147067033,88.2878721550419,-0.03271484375,0.0341796875,1.00341796875,0.06103515625,-0.30517578125,-0.06103515625,0.0,0.0,0.0,-0.023350810632109642,-0.00013953683082945645,0.6964690089225769,-0.7172069549560547
3.6804730892181396,-2.0106578543768365,1.8765300145507113,88.28863030603978,-0.03271484375,0.03466796875,1.00439453125,-0.244140625,-0.42724609375,-0.1220703125,0.0,0.0,0.0,-0.023991642519831657,0.00046942016342654824,0.6964735984802246,-0.7171810865402222
3.700308322906494,-1.846092984061842,1.7822234582462297,88.29796034444601,-0.03125,0.0322265625,1.0029296875,-0.06103515625,-0.79345703125,-0.18310546875,0.0,0.0,0.0,-0.022388789802789688,6.159404438221827e-05,0.6965315937995911,-0.7171767354011536
3.7202060222625732,-1.812624843685368,1.7533314378919584,88.30232483532565,-0.03076171875,0.0322265625,1.0048828125,0.1220703125,-0.79345703125,-0.30517578125,0.0,0.0,0.0,-0.022003795951604843,3.9909424231154844e-05,0.6965587735176086,-0.7171623110771179
3.7408220767974854,-1.798553586778084,1.83690296453359,88.30548721291136,-0.0322265625,0.03173828125,1.00439453125,-0.06103515625,-0.67138671875,-0.18310546875,0.0,0.0,0.0,-0.02242348901927471,-0.0005682799383066595,0.6965788006782532,-0.7171297669410706
3.760179042816162,-1.939897948349151,1.778537930858773,88.30376600524052,-0.03125,0.0341796875,1.0048828125,-0.3662109375,-0.3662109375,-0.06103515625,0.0,0.0,0.0,-0.022953439503908157,0.000656013609841466,0.6965675950050354,-0.7171237468719482
3.781771421432495,-1.931843661213825,1.8331487083676101,88.30738600550063,-0.03173828125,0.03369140625,1.00390625,0.0,-0.244140625,-0.06103515625,0.0,0.0,0.0,-0.023234810680150986,0.00026585679734125733,0.6965908408164978,-0.7170922756195068
3.8003387451171875,-1.8580853021405035,1.7635860064353805,88.31361513802368,-0.03125,0.03271484375,1.0048828125,0.30517578125,-0.67138671875,-0.18310546875,0.0,0.0,0.0,-0.022350581362843513,0.0002542391011957079,0.6966294050216675,-0.7170830368995667
3.820220947265625,-1.8536890081925423,1.7278949596491846,88.31616962877327,-0.0302734375,0.03271484375,1.0048828125,-0.18310546875,-1.28173828125,-0.244140625,0.0,0.0,0.0,-0.022106196731328964,0.00045145981130190194,0.6966450810432434,-0.7170751690864563
3.840527057647705,-2.0085669627171665,1.8399808185283268,88.31350585499696,-0.0322265625,0.03515625,1.00439453125,-0.30517578125,-0.8544921875,-0.18310546875,0.0,0.0,0.0,-0.023756396025419235,0.0006907434435561299,0.6966288685798645,-0.7170379161834717
3.861056327819824,-1.9437715193821943,1.7804049203797139,88.31873094971202,-0.03173828125,0.0341796875,1.0048828125,-0.06103515625,-0.06103515625,-0.06103515625,0.0,0.0,0.0,-0.0229889377951622,0.0006708743167109787,0.6966612339019775,-0.7170315384864807
3.8802006244659424,-1.866345348724576,1.860752277567982,88.32487811996504,-0.0322265625,0.03271484375,1.00341796875,0.18310546875,-0.42724609375,0.0,0.0,0.0,0.0,-0.022992685437202454,-0.0003016201371792704,0.6967004537582397,-0.7169935703277588
3.901259183883667,-2.0018522464328092,1.8792757505970565,88.32400385575127,-0.03271484375,0.03515625,1.00341796875,-0.30517578125,-1.220703125,-0.244140625,0.0,0.0,0.0,-0.023953085765242577,0.0004061014042235911,0.6966950297355652,-0.7169673442840576
3.920144557952881,-1.967111769880009,1.7549040889483538,88.32901038441288,-0.03076171875,0.0341796875,1.005859375,-0.244140625,-0.9765625,-0.30517578125,0.0,0.0,0.0,-0.022979948669672012,0.0009744809940457344,0.696725070476532,-0.7169694900512695
3.945617914199829,-1.8937800841864016,1.8681290953150071,88.33304019602319,-0.03271484375,0.033203125,1.00390625,0.0,-0.3662109375,-0.18310546875,0.0,0.0,0.0,-0.02320917882025242,-0.00017934621428139508,0.696751594543457,-0.7169368863105774
3.96040940284729,-1.8957870925853275,1.8324902354429384,88.33617525285223,-0.03173828125,0.03271484375,1.0029296875,-0.06103515625,-0.3662109375,-0.06103515625,0.0,0.0,0.0,-0.023005157709121704,5.657630754285492e-05,0.6967710256576538,-0.7169246673583984
3.9805731773376465,-1.941122686644699,1.8858310246529761,88.33913272476285,-0.033203125,0.0341796875,1.0048828125,-0.1220703125,-0.67138671875,-0.1220703125,0.0,0.0,0.0,-0.023612946271896362,-1.0435383046569768e-06,0.6967898607254028,-0.7168866395950317
4.00043249130249,-2.0014234386189793,1.8368244173581347,88.341830649485,-0.03173828125,0.03466796875,1.00390625,0.06103515625,-0.3662109375,-0.48828125,0.0,0.0,0.0,-0.023692352697253227,0.0006729319575242698,0.6968060731887817,-0.7168678641319275
4.020605087280273,-1.86016338719548,1.971332186456842,88.34694646117335,-0.03173828125,0.0087890625,1.001953125,-2.9296875,1.64794921875,0.06103515625,0.0,0.0,0.0,-0.023626137524843216,-0.0010269018821418285,0.6968384981155396,-0.7168381214141846
4.040626049041748,-1.3051916273900206,2.092287793025186,88.33102529021804,-0.052734375,-0.3037109375,0.83935546875,-22.705078125,17.39501953125,2.685546875,0.0,0.0,0.0,-0.020888695493340492,-0.0051616462878882885,0.6967213153839111,-0.717019259929657
4.060580015182495,-0.9205929600150055,2.1890574862991037,88.36885770803075,0.0341796875,-0.2587890625,1.19287109375,2.8076171875,5.126953125,-5.126953125,0.0,0.0,0.0,-0.019072918221354485,-0.008099419996142387,0.6969306468963623,-0.7168391942977905
4.075247049331665,-0.8086003225458633,2.161988592844697,88.51369869957003,-0.04052734375,-0.08203125,0.98193359375,-0.6103515625,0.79345703125,-5.18798828125,0.0,0.0,0.0,-0.018218614161014557,-0.008588138036429882,0.6978298425674438,-0.7159804105758667
4.101154565811157,-0.46615219328202506,2.307851337995139,88.61106987637774,-0.046875,-0.23779296875,0.97216796875,-5.55419921875,4.0283203125,-5.67626953125,0.0,0.0,0.0,-0.016976794227957726,-0.011570644564926624,0.6983956098556519,-0.7154170870780945
4.120330572128296,-0.27072439283081373,2.417226145382315,88.78943343636345,-0.05908203125,-0.1044921875,0.99951171875,0.244140625,6.04248046875,-8.9111328125,0.0,0.0,0.0,-0.016444096341729164,-0.013419045135378838,0.6994754672050476,-0.7143413424491882
4.140089511871338,-0.09089881884706762,2.4962729918639304,88.99672284748416,-0.09326171875,-0.115234375,1.0078125,2.197265625,3.47900390625,-8.6669921875,0.0,0.0,0.0,-0.015832673758268356,-0.014980873093008995,0.7007346749305725,-0.7130890488624573
4.160519123077393,0.11009079664115719,2.5989680876862455,89.19390357863327,-0.07177734375,-0.1142578125,1.00048828125,0.79345703125,-0.9765625,-11.53564453125,0.0,0.0,0.0,-0.015238871797919273,-0.01682276651263237,0.7019187808036804,-0.7118952870368958
4.180377006530762,0.33038598850916934,2.610577701727975,89.45099189899254,-0.0390625,-0.06005859375,0.9794921875,0.48828125,1.89208984375,-13.36669921875,0.0,0.0,0.0,-0.013982285745441914,-0.018212923780083656,0.7034787535667419,-0.7103453278541565
4.200804710388184,0.5701713319471178,2.6390529738211694,89.73783935356556,-0.05810546875,-0.07568359375,0.99609375,-0.244140625,0.732421875,-14.2822265625,0.0,0.0,0.0,-0.012720361351966858,-0.019829632714390755,0.7052102088928223,-0.7086067795753479
4.2227623462677,0.7937791855729059,2.716166449880848,90.07270986819296,-0.048828125,-0.048828125,1.021484375,2.0751953125,1.220703125,-18.06640625,0.0,0.0,0.0,-0.011875598691403866,-0.021647799760103226,0.7072235941886902,-0.7065587639808655
4.235512971878052,0.7979274582766309,2.8687746471669127,90.4668527644377,-0.07666015625,-0.01416015625,1.015625,0.1220703125,2.62451171875,-19.775390625,0.0,0.0,0.0,-0.012869877740740776,-0.02256990596652031,0.7096192836761475,-0.7041061520576477
4.260143041610718,0.8511578438820376,3.0304973050135358,90.88452566237316,-0.0791015625,-0.0126953125,1.02783203125,2.0751953125,-2.3193359375,-20.751953125,0.0,0.0,0.0,-0.013631626032292843,-0.023843325674533844,0.7121371626853943,-0.7015029191970825
4.28083062171936,0.7245823256480952,2.993098604213131,91.31240969311777,-0.0380859375,-0.0078125,0.9970703125,-0.42724609375,0.244140625,-22.0947265625,0.0,0.0,0.0,-0.014259119518101215,-0.022774748504161835,0.7147850394248962,-0.698827862739563
4.300306797027588,0.8051195941118015,3.0441395406635783,91.74209689380328,-0.06201171875,-0.00927734375,0.986328125,1.5869140625,-1.40380859375,-21.42333984375,0.0,0.0,0.0,-0.01417479757219553,-0.02353527583181858,0.7173736691474915,-0.6961467266082764
4.324197292327881,0.6847235294468693,3.1931582600973893,92.24892425097491,-0.06494140625,-0.01513671875,0.99267578125,1.5869140625,-3.47900390625,-19.775390625,0.0,0.0,0.0,-0.015944013372063637,-0.02361622266471386,0.7204390168190002,-0.692932665348053
4.335433006286621,0.559443932886231,3.1810961460231466,92.53069687499462,-0.041015625,0.0107421875,1.009765625,1.28173828125,0.30517578125,-19.34814453125,0.0,0.0,0.0,-0.0166816096752882,-0.022714706137776375,0.722168505191803,-0.6911428570747375
4.360430479049683,0.39900945938924276,3.1190660755283837,92.89445225962199,-0.05908203125,-0.00341796875,0.9833984375,-1.52587890625,-1.8310546875,-16.78466796875,0.0,0.0,0.0,-0.017325839027762413,-0.02127467654645443,0.7244018912315369,-0.6888317465782166
4.380520343780518,0.5745973478901389,2.9797481457066946,93.17879303476961,-0.04638671875,-0.0107421875,0.99951171875,-0.244140625,-4.39453125,-10.986328125,0.0,0.0,0.0,-0.015442832373082638,-0.021509122103452682,0.7261031866073608,-0.6870758533477783
4.3959314823150635,0.6034731465451314,2.6617563091788803,93.36106346296057,-0.0009765625,-0.01806640625,1.01416015625,0.79345703125,-5.4931640625,-8.056640625,0.0,0.0,0.0,-0.013285653665661812,-0.01976480707526207,0.7272494435310364,-0.685960054397583
4.420376539230347,0.5162337549583502,2.4032724957948024,93.46690407433908,-0.00732421875,0.01318359375,1.02099609375,1.89208984375,-2.50244140625,-3.84521484375,0.0,0.0,0.0,-0.01218334212899208,-0.01765289716422558,0.7279407978057861,-0.6853044033050537
4.440589427947998,0.40619820681025476,2.2104761057626177,93.53134690915816,0.015625,0.01513671875,1.03955078125,2.0751953125,-0.30517578125,-4.33349609375,0.0,0.0,0.0,-0.011625322513282299,-0.015794532373547554,0.7283714413642883,-0.6849018931388855
4.460378408432007,0.2355067101706115,2.1176448703188586,93.61200461306684,-0.00634765625,0.0380859375,1.0048828125,0.244140625,4.33349609375,-4.7607421875,0.0,0.0,0.0,-0.012065351009368896,-0.014146284200251102,0.7288883328437805,-0.6843801736831665
4.480222225189209,0.04588087527484829,2.196549990375196,93.69911684574119,-0.0556640625,0.02587890625,1.0009765625,1.3427734375,2.50244140625,-4.8828125,0.0,0.0,0.0,-0.01370995119214058,-0.013400908559560776,0.7294211387634277,-0.6837962865829468
4.5002381801605225,-0.1297246756683547,2.336534503971196,93.79153613540062,-0.052734375,0.02099609375,0.9794921875,-1.46484375,0.6103515625,-4.8828125,0.0,0.0,0.0,-0.015659427270293236,-0.013105793856084347,0.7299753427505493,-0.683168351650238
4.51603627204895,-0.310877954383408,2.443684590679652,93.88049251915088,-0.06396484375,0.0302734375,0.994140625,-0.06103515625,-0.67138671875,-4.2724609375,0.0,0.0,0.0,-0.017431681975722313,-0.012577109970152378,0.7305127382278442,-0.6825606822967529
4.543046474456787,-0.34914398248669865,2.6401921213086808,93.94408841051286,-0.06591796875,0.00927734375,1.0322265625,1.64794921875,-2.8076171875,-3.662109375,0.0,0.0,0.0,-0.018919650465250015,-0.013493292964994907,0.730871319770813,-0.6821195483207703
4.563945293426514,-0.5352970797361203,2.7054720811879007,93.995396791558,-0.05712890625,0.02880859375,0.97705078125,-1.52587890625,-1.52587890625,-2.86865234375,0.0,0.0,0.0,-0.020449688658118248,-0.012685481458902359,0.7311897277832031,-0.6817496418952942
4.580136299133301,-0.5965022448060459,2.8686359089493965,94.04182841753574,-0.06005859375,0.0166015625,0.9853515625,0.732421875,-0.42724609375,-1.953125,0.0,0.0,0.0,-0.021860063076019287,-0.013257037848234177,0.7314522862434387,-0.6814132928848267
4.601879596710205,-0.6192567532216788,2.7333001928572367,94.0961625723832,-0.04150390625,0.0068359375,0.97509765625,-1.708984375,0.8544921875,-2.44140625,0.0,0.0,0.0,-0.0211375392973423,-0.012296763248741627,0.7317947149276733,-0.6810862421989441
4.620060920715332,-0.7856754862878031,2.805427630822806,94.16827570964018,-0.052734375,0.03125,1.013671875,-0.42724609375,2.25830078125,-5.31005859375,0.0,0.0,0.0,-0.022594459354877472,-0.011648591607809067,0.7322320342063904,-0.6805806756019592
4.640558242797852,-0.9503064173386766,2.8896208114006146,94.33842938224355,-0.06201171875,0.02587890625,1.015625,-0.1220703125,2.01416015625,-10.986328125,0.0,0.0,0.0,-0.02412644773721695,-0.011061019264161587,0.7332484722137451,-0.6794427037239075
4.6606221199035645,-1.0599068344118747,3.085000933929768,94.60143264642406,-0.087890625,0.05224609375,1.01806640625,-1.28173828125,3.0517578125,-15.68603515625,0.0,0.0,0.0,-0.026052292436361313,-0.011458924040198326,0.7347941994667053,-0.6776928305625916
4.680356025695801,-1.172334949801458,3.2628818983619374,94.95339912454398,-0.06201171875,0.04638671875,1.03515625,-0.67138671875,3.35693359375,-20.263671875,0.0,0.0,0.0,-0.027893289923667908,-0.011704940348863602,0.7368621230125427,-0.6753661036491394
4.700430393218994,-1.2798387122428736,3.4387406999129597,95.3678891543262,-0.09130859375,0.0322265625,0.99462890625,-1.0986328125,4.2724609375,-21.240234375,0.0,0.0,0.0,-0.029700420796871185,-0.011943417601287365,0.7392891049385071,-0.6726269125938416
4.720193862915039,-1.3003460350607197,3.6798258870468996,95.81024635592209,-0.10888671875,0.0341796875,0.99560546875,1.3427734375,0.42724609375,-23.01025390625,0.0,0.0,0.0,-0.03142595663666725,-0.013106036931276321,0.7418497204780579,-0.6697012186050415
4.74012017250061,-1.2830212602309823,3.8912616498806374,96.28363310691732,-0.09423828125,0.0087890625,0.98583984375,1.953125,-3.11279296875,-23.62060546875,0.0,0.0,0.0,-0.03275199979543686,-0.014319667592644691,0.7445763945579529,-0.66657954454422
4.760299921035767,-1.3709736061732365,3.91170227163237,96.75102978201048,-0.0634765625,0.03662109375,0.994140625,-0.6103515625,-5.06591796875,-23.0712890625,0.0,0.0,0.0,-0.03345261514186859,-0.013730854727327824,0.7472965717315674,-0.663506031036377
4.78044581413269,-1.3402828981897246,3.64517975248201,97.23199121279526,-0.0185546875,0.02734375,1.044921875,0.06103515625,-2.8076171875,-24.23095703125,0.0,0.0,0.0,-0.03158967196941376,-0.012253864668309689,0.7501107454299927,-0.6604437828063965
4.800382852554321,-1.1797135818174815,3.4805937512692706,97.7204112101537,-0.03759765625,-0.0576171875,0.99951171875,-4.638671875,0.79345703125,-22.5830078125,0.0,0.0,0.0,-0.029639845713973045,-0.01222934015095234,0.7529250979423523,-0.6573247313499451
4.8236823081970215,-0.8833226987875087,3.46062996209897,98.17757626187016,-0.06396484375,-0.10302734375,0.98974609375,0.67138671875,-7.50732421875,-22.216796875,0.0,0.0,0.0,-0.027864348143339157,-0.013951091095805168,0.7555107474327087,-0.6543947458267212
4.840232610702515,-0.6418770057314388,3.361934795809343,98.55000598674344,-0.02294921875,-0.06884765625,0.96728515625,-0.48828125,-2.01416015625,-15.44189453125,0.0,0.0,0.0,-0.025883518159389496,-0.014894993975758553,0.7576189637184143,-0.6520135998725891
4.8625168800354,-0.4368055918219777,3.213528872410129,98.7743708707892,-0.02734375,-0.05078125,1.0126953125,0.79345703125,-3.90625,-8.11767578125,0.0,0.0,0.0,-0.02376578561961651,-0.015359586104750633,0.7588913440704346,-0.6506022810935974
4.880460500717163,-0.33834937543159593,3.004550910460538,98.9041308046411,0.01123046875,-0.01904296875,1.06201171875,1.8310546875,-0.6103515625,-4.08935546875,0.0,0.0,0.0,-0.021839765831828117,-0.014800111763179302,0.7596482038497925,-0.6497989892959595
4.900561809539795,-0.2628619913224828,2.8333925597189538,98.96705733746442,0.00634765625,-0.021484375,0.98779296875,-0.8544921875,-0.06103515625,-2.25830078125,0.0,0.0,0.0,-0.020285040140151978,-0.014318651519715786,0.7600217461585999,-0.6494233012199402
4.920756101608276,-0.18120189045203675,2.633240269394077,99.02525737938211,0.00732421875,-0.0185546875,0.95654296875,-0.244140625,-1.3427734375,-3.41796875,0.0,0.0,0.0,-0.01850179210305214,-0.013716387562453747,0.7603709697723389,-0.6490806341171265
4.940500736236572,-0.15873813198359205,2.462761522474909,99.11555931039885,0.00830078125,0.00390625,1.0087890625,0.18310546875,1.28173828125,-5.06591796875,0.0,0.0,0.0,-0.01725354790687561,-0.01288611814379692,0.7609033584594727,-0.648507833480835
4.9604644775390625,-0.26994257629468527,2.322575518298394,99.2362419228438,-0.0107421875,0.04833984375,1.05908203125,3.96728515625,2.62451171875,-7.01904296875,0.0,0.0,0.0,-0.016964023932814598,-0.011336403898894787,0.7616156339645386,-0.6477078795433044
4.980605363845825,-0.5080724793129784,2.3892787188459153,99.36259359229986,-0.07080078125,0.125,1.03515625,2.13623046875,-0.06103515625,-6.16455078125,0.0,0.0,0.0,-0.01876441016793251,-0.01011008583009243,0.7623437643051147,-0.646821141242981
5.000531196594238,-0.7031532474574149,2.4046944558026344,99.47269624172047,-0.07177734375,0.09619140625,0.99560546875,1.8310546875,-3.84521484375,-5.31005859375,0.0,0.0,0.0,-0.019976606592535973,-0.00888010486960411,0.7629793882369995,-0.64605313539505
5.021493911743164,-0.9148942343696876,2.388778407489212,99.53673609537852,-0.0537109375,0.0810546875,0.98095703125,1.8310546875,-2.01416015625,-2.01416015625,0.0,0.0,0.0,-0.021068517118692398,-0.007368730381131172,0.7633568644523621,-0.6455913782119751
5.040543079376221,-1.1999561280832838,2.324439946498396,99.52502232095193,-0.05224609375,0.08154296875,1.0009765625,3.60107421875,-5.18798828125,2.3193359375,0.0,0.0,0.0,-0.02224547602236271,-0.00510939909145236,0.7633118629455566,-0.6456268429756165
5.060559511184692,-1.481345834622646,2.212794101212191,99.35645325223602,-0.021484375,0.1025390625,1.02685546875,3.72314453125,-5.2490234375,10.92529296875,0.0,0.0,0.0,-0.023083563894033432,-0.002639598911628127,0.7623781561851501,-0.6467145085334778
5.0812828540802,-1.7482064481369217,2.037930159402463,99.0866881007772,0.0283203125,0.138671875,1.0341796875,4.08935546875,-4.08935546875,13.916015625,0.0,0.0,0.0,-0.0234269667416811,6.815214146627113e-05,0.7608642578125,-0.6484881043434143
5.095974445343018,-1.9602096502802995,1.9043515094742889,98.7494065293728,-0.00244140625,0.1337890625,0.98193359375,1.0986328125,-4.7607421875,17.7001953125,0.0,0.0,0.0,-0.023746658116579056,0.00216234871186316,0.7589531540870667,-0.6507085561752319
5.121009826660156,-2.2012478798636956,1.8060714906201523,98.3597852183586,-0.0107421875,0.1494140625,0.9912109375,0.30517578125,-0.42724609375,19.6533203125,0.0,0.0,0.0,-0.02447930909693241,0.004234011285007,0.7567300200462341,-0.6532554626464844
5.140108823776245,-2.3994083162718676,1.7244884028006409,97.94874443410723,-0.033203125,0.130859375,0.97265625,-0.6103515625,-3.72314453125,20.3857421875,0.0,0.0,0.0,-0.025091877207159996,0.0059180427342653275,0.7543721199035645,-0.655940592288971
5.160326957702637,-2.61497869143099,1.6697300291727082,97.52375640357069,-0.03759765625,0.1279296875,0.99072265625,-1.64794921875,-0.79345703125,21.1181640625,0.0,0.0,0.0,-0.025993723422288895,0.007554477546364069,0.7519201040267944,-0.6586983799934387
5.1801674365997314,-2.824824087405173,1.6027145609140703,97.13875230043541,-0.025390625,0.11279296875,1.0234375,-0.30517578125,-3.23486328125,18.00537109375,0.0,0.0,0.0,-0.026791613548994064,0.009226957336068153,0.7496845126152039,-0.661188542842865
5.200813055038452,-3.0505432698972883,1.5833271756766947,96.79109567168176,-0.0322265625,0.1220703125,1.04931640625,1.3427734375,0.0,16.78466796875,0.0,0.0,0.0,-0.027999883517622948,0.010730696842074394,0.7476544380187988,-0.6634107828140259
5.220616579055786,-3.266943939927391,1.5941826941453723,96.46810285602103,-0.02197265625,0.125,1.0185546875,-0.1220703125,1.5869140625,15.13671875,0.0,0.0,0.0,-0.029357362538576126,0.011996994726359844,0.7457609176635742,-0.6654583215713501
5.240933895111084,-3.483043441303778,1.573799595393056,96.16825072126831,-0.02880859375,0.13134765625,1.00048828125,1.40380859375,0.9765625,14.83154296875,0.0,0.0,0.0,-0.030514974147081375,0.013442006893455982,0.7439914345741272,-0.6673567295074463
5.262388467788696,-3.7222831967013454,1.6558452150854241,95.81029416724627,-0.04541015625,0.10693359375,0.97998046875,-0.79345703125,2.99072265625,13.36669921875,0.0,0.0,0.0,-0.032485608011484146,0.014415602199733257,0.741881787776947,-0.6695881485939026
5.280423164367676,-3.8467697976271746,1.7534208706814032,95.6401883059671,-0.0439453125,0.09326171875,0.99853515625,-1.28173828125,1.64794921875,9.09423828125,0.0,0.0,0.0,-0.03386584296822548,0.014600529335439205,0.7408807873725891,-0.6706234216690063
5.298107147216797,-4.028574919180928,1.8367191897562343,95.50812659836491,-0.0400390625,0.08935546875,1.02587890625,-1.46484375,3.5400390625,5.0048828125,0.0,0.0,0.0,-0.03548537567257881,0.015247033908963203,0.7400920987129211,-0.6713956594467163
5.320780992507935,-3.711885941237293,1.9653021966367785,95.44056919728432,-0.0693359375,-0.109375,0.9248046875,-8.4228515625,2.25830078125,3.23486328125,0.0,0.0,0.0,-0.034466784447431564,0.01242697611451149,0.73974609375,-0.6718878746032715
5.345369338989258,-3.3221585488475394,2.0273700466153888,95.454536934137,-0.0556640625,-0.17724609375,1.06396484375,-3.60107421875,0.79345703125,-0.9765625,0.0,0.0,0.0,-0.0325806550681591,0.009550606831908226,0.7398695945739746,-0.6718931198120117
5.356001377105713,-3.1310639431357457,2.006232532124903,95.48302565316511,-0.06982421875,-0.205078125,0.98974609375,-3.5400390625,-1.89208984375,-0.244140625,0.0,0.0,0.0,-0.0313216932117939,0.008448646403849125,0.7400505542755127,-0.6717683672904968
5.382636785507202,-2.9059695095092746,2.003549761884969,95.48066923790145,-0.052734375,-0.16845703125,1.0185546875,-0.06103515625,-2.38037109375,-0.06103515625,0.0,0.0,0.0,-0.02998489700257778,0.007010059431195259,0.740051805973053,-0.6718446612358093
5.400609016418457,-2.581982901324305,2.0017073183563583,95.43722923478018,-0.0546875,-0.2158203125,0.89013671875,-7.26318359375,0.3662109375,3.662109375,0.0,0.0,0.0,-0.028075240552425385,0.0049178446643054485,0.7398138046264648,-0.6722076535224915
5.420202732086182,-2.1708537515005504,1.9902093352188763,95.3776631550285,-0.0341796875,-0.28076171875,0.9375,-10.07080078125,4.45556640625,5.37109375,0.0,0.0,0.0,-0.025590350851416588,0.0023177333641797304,0.7394771575927734,-0.6726912260055542
5.440274953842163,-1.810342920172349,2.0012341143129233,95.30595299893254,-0.02587890625,-0.3212890625,1.0537109375,-2.99072265625,2.99072265625,5.615234375,0.0,0.0,0.0,-0.02354496903717518,-8.820220682537183e-05,0.7390594482421875,-0.6732286214828491
5.455794095993042,-1.5325439721457095,1.927966461642785,95.22892212547313,-0.06591796875,-0.30078125,1.00537109375,-4.5166015625,-8.23974609375,3.90625,0.0,0.0,0.0,-0.021439502015709877,-0.0014635755214840174,0.7386066317558289,-0.673794150352478
5.480374574661255,-1.2807623886064121,1.8390965224742217,95.15842774304943,-0.0146484375,-0.29736328125,1.04296875,-2.99072265625,-1.15966796875,4.0283203125,0.0,0.0,0.0,-0.019384782761335373,-0.002575566526502371,0.7381904721260071,-0.6743088960647583
5.500502586364746,-1.0605384134666893,1.7720251320417544,95.07934781283902,-0.0224609375,-0.2939453125,0.9931640625,-1.28173828125,-6.34765625,3.60107421875,0.0,0.0,0.0,-0.017654409632086754,-0.003611582098528743,0.7377218008041382,-0.6748643517494202
5.520364284515381,-0.8886435762335072,1.7431192378657314,95.00155878838174,0.01806640625,-0.2744140625,0.96044921875,2.62451171875,0.91552734375,3.84521484375,0.0,0.0,0.0,-0.016452910378575325,-0.004559091757982969,0.737258791923523,-0.6753947138786316
5.540918827056885,-0.7992614262380461,1.6395020665054647,94.96897195585161,0.00244140625,-0.20458984375,1.021484375,2.5634765625,-2.197265625,3.60107421875,0.0,0.0,0.0,-0.01525828056037426,-0.004527628421783447,0.7370684742927551,-0.6756306886672974
5.560214519500732,-0.5952680082786834,1.5776271693709076,94.96307067240872,0.0703125,-0.13916015625,0.98388671875,-2.99072265625,4.45556640625,0.54931640625,0.0,0.0,0.0,-0.013657301664352417,-0.0054755499586462975,0.7370281219482422,-0.675701916217804
5.580833911895752,-0.26061435215744616,1.663218404294453,94.97003063517296,0.0380859375,-0.2080078125,0.9921875,-5.06591796875,4.69970703125,-2.62451171875,0.0,0.0,0.0,-0.01223487313836813,-0.008131957612931728,0.7370433807373047,-0.675685703754425
5.600431203842163,-0.07699600881214633,1.749387110367982,94.9486111619358,-0.11767578125,-0.2158203125,1.0771484375,3.5400390625,-3.60107421875,0.244140625,0.0,0.0,0.0,-0.011704527772963047,-0.009823266416788101,0.7368952035903931,-0.6758342981338501
5.620029926300049,-0.01350631138375343,1.828321258728292,94.87188081679989,-0.1083984375,-0.1904296875,0.994140625,5.615234375,-3.173828125,2.62451171875,0.0,0.0,0.0,-0.011830499395728111,-0.010705005377531052,0.7364290952682495,-0.6763266324996948
5.640290021896362,0.1681565893230694,1.889596593319769,94.77890828181766,-0.1064453125,-0.14599609375,0.89794921875,-5.55419921875,-6.53076171875,3.47900390625,0.0,0.0,0.0,-0.011142165400087833,-0.012243143282830715,0.7358552813529968,-0.6769365072250366
5.66006875038147,0.423865344872139,1.7951256855883837,94.69352408700334,-0.07470703125,-0.17431640625,0.94873046875,-2.25830078125,-8.1787109375,3.7841796875,0.0,0.0,0.0,-0.00901493988931179,-0.013333852402865887,0.7353333234786987,-0.6775144934654236
5.680180549621582,0.5166278782178011,1.7539524514979006,94.66933838715232,0.09375,-0.19970703125,1.138671875,7.50732421875,5.43212890625,0.8544921875,0.0,0.0,0.0,-0.008199356496334076,-0.013687435537576675,0.7351844310760498,-0.6776793599128723
5.700683832168579,0.5145623863241069,1.7712651667748847,94.63427219595349,-0.02734375,-0.18994140625,1.01904296875,8.30078125,-1.89208984375,3.11279296875,0.0,0.0,0.0,-0.008318443782627583,-0.01377910003066063,0.7349750995635986,-0.6779029965400696
5.715811729431152,0.5779418994276238,1.7698533453291019,94.53196962256503,-0.0927734375,-0.09912109375,0.88818359375,2.8076171875,-7.080078125,6.2255859375,0.0,0.0,0.0,-0.00792178325355053,-0.014184332452714443,0.7343620657920837,-0.6785635352134705
5.741035461425781,0.8353686343159367,1.7410643114209097,94.43858044604345,-0.01220703125,-0.09619140625,0.888671875,-6.16455078125,2.74658203125,5.43212890625,0.0,0.0,0.0,-0.006200097966939211,-0.015668638050556183,0.7337791323661804,-0.6791790723800659
5.760350465774536,1.0658365058285035,1.7824370083794983,94.35639277976068,-0.07763671875,-0.1220703125,1.07568359375,-0.18310546875,-1.52587890625,5.06591796875,0.0,0.0,0.0,-0.005086622666567564,-0.017393184825778008,0.7332524657249451,-0.679715096950531
5.784674167633057,1.1371272456207462,1.6997481769663851,94.2035536367033,-0.05126953125,-0.095703125,1.09814453125,4.45556640625,-7.38525390625,5.2490234375,0.0,0.0,0.0,-0.004111341200768948,-0.017364535480737686,0.7323471903800964,-0.680697500705719
5.802555322647095,1.1614654507893232,1.5421652540870245,94.12329208376649,0.01123046875,-0.06298828125,0.98828125,4.57763671875,-6.4697265625,5.0048828125,0.0,0.0,0.0,-0.0029477663338184357,-0.016586357727646828,0.7318902611732483,-0.6812143325805664
5.8207080364227295,1.2655570001317886,1.3631853762504236,94.04295539874879,0.01611328125,-0.029296875,0.9287109375,-3.60107421875,2.44140625,4.8828125,0.0,0.0,0.0,-0.001174192875623703,-0.01618833653628826,0.7314233779907227,-0.6817304491996765
5.840470552444458,1.3100455440123724,1.2355172945535435,93.97846475260553,0.0439453125,-0.0849609375,1.0654296875,9.521484375,5.67626953125,2.99072265625,0.0,0.0,0.0,-8.558804984204471e-05,-0.015713036060333252,0.7310511469841003,-0.6821417808532715
5.867638111114502,1.1497623485333295,1.1365510551312323,93.92230693724969,-0.0078125,0.0087890625,0.97705078125,0.3662109375,2.197265625,4.2724609375,0.0,0.0,0.0,-0.00040129927219823003,-0.01410167757421732,0.7307505011558533,-0.6824989318847656
5.88123631477356,0.9975849867735048,1.1990614800237178,93.86683897100002,-0.03271484375,-0.00439453125,1.06982421875,0.0,1.52587890625,3.0517578125,0.0,0.0,0.0,-0.0016998216742649674,-0.013504290953278542,0.7304308414459229,-0.6828510761260986
5.905453681945801,0.9006862669572976,1.4745096690371093,93.8148885521729,-0.037109375,-0.01171875,1.01806640625,4.08935546875,5.92041015625,-1.8310546875,0.0,0.0,0.0,-0.004026706796139479,-0.014529523439705372,0.7300989627838135,-0.6831751465797424
5.924584865570068,1.0249832234119531,1.8206343077042657,94.08632709997838,-0.130859375,-0.07568359375,0.8671875,-2.3193359375,9.82666015625,-18.1884765625,0.0,0.0,0.0,-0.00553250964730978,-0.017371362075209618,0.7316488027572632,-0.6814379096031189
5.9461352825164795,1.1194544513084557,2.0832241319965794,94.66159295263353,-0.1240234375,-0.052734375,1.09228515625,6.7138671875,6.65283203125,-32.16552734375,0.0,0.0,0.0,-0.006745734717696905,-0.01950189657509327,0.7350020408630371,-0.677750825881958
5.9634857177734375,1.0196634665438653,2.406241493649642,95.48674810626277,-0.16064453125,-0.001953125,0.9697265625,5.859375,9.33837890625,-45.8984375,0.0,0.0,0.0,-0.009557771496474743,-0.02070324867963791,0.739822268486023,-0.6724159121513367
5.980590343475342,1.0051336264668382,2.638183832249285,96.25430427462129,-0.216796875,0.0322265625,0.8740234375,-1.220703125,4.45556640625,-54.3212890625,0.0,0.0,0.0,-0.011287885718047619,-0.021894749253988266,0.7442672252655029,-0.6674275398254395
6.002726793289185,1.0382187426412628,2.9664205256452956,97.83776752047287,-0.22021484375,0.01611328125,1.041015625,1.220703125,4.2724609375,-68.603515625,0.0,0.0,0.0,-0.013558444567024708,-0.023835372179746628,0.7533424496650696,-0.6570565700531006
6.0203235149383545,1.0347277689234458,3.1572762881795504,98.95226997791136,-0.23095703125,0.0283203125,1.052734375,0.18310546875,5.67626953125,-77.57568359375,0.0,0.0,0.0,-0.015075198374688625,-0.02476070262491703,0.7596542835235596,-0.6496807932853699
6.04159688949585,1.091464976419978,3.4193478718685895,100.6096700215283,-0.22119140625,0.02783203125,0.99072265625,-1.77001953125,2.25830078125,-87.09716796875,0.0,0.0,0.0,-0.016874872148036957,-0.026380380615592003,0.7688945531845093,-0.6386083364486694
6.060269594192505,1.18098890620157,3.6379538392269595,102.35898392080612,-0.21435546875,-0.0205078125,0.99560546875,2.38037109375,10.3759765625,-87.890625,0.0,0.0,0.0,-0.018271826207637787,-0.027922743931412697,0.7784746289253235,-0.6267884969711304
6.081001281738281,1.2186607078470695,4.1013791862045625,104.19827190202051,-0.162109375,0.01806640625,0.99072265625,-1.46484375,11.16943359375,-93.68896484375,0.0,0.0,0.0,-0.021705739200115204,-0.0303666815161705,0.7882910966873169,-0.6141692996025085
6.095797777175903,1.234113263792283,4.226752857948847,106.13200090888867,-0.29248046875,-0.01416015625,1.1142578125,8.11767578125,-2.197265625,-98.876953125,0.0,0.0,0.0,-0.023008214309811592,-0.030760394409298897,0.798499584197998,-0.6007686257362366
6.120115518569946,1.1465007197612367,4.479499312430115,108.10048191825386,-0.21923828125,-0.00146484375,1.046875,9.6435546875,9.09423828125,-97.71728515625,0.0,0.0,0.0,-0.025766611099243164,-0.031035514548420906,0.808643639087677,-0.5869143605232239
6.140351057052612,1.235954640103836,4.76106276190649,110.02705288687184,-0.29443359375,0.03369140625,0.94140625,-2.25830078125,6.8359375,-95.76416015625,0.0,0.0,0.0,-0.027849163860082626,-0.03264356404542923,0.8182759284973145,-0.5732220411300659
6.160233736038208,1.3462935713810416,4.970917762834192,111.96074091260499,-0.33251953125,-0.015625,0.98779296875,3.7841796875,2.01416015625,-95.88623046875,0.0,0.0,0.0,-0.029374362900853157,-0.03398892655968666,0.827724039554596,-0.5593343377113342
6.180140256881714,1.3537849015183705,5.196744307362324,113.87450527652919,-0.29638671875,-0.0205078125,0.98681640625,7.32421875,7.62939453125,-95.88623046875,0.0,0.0,0.0,-0.03155265003442764,-0.03462148457765579,0.8368613719940186,-0.5454070568084717
6.201264142990112,1.3428164714849762,5.4573954251474115,115.8113215289022,-0.28369140625,0.01806640625,1.00048828125,7.9345703125,4.82177734375,-96.923828125,0.0,0.0,0.0,-0.03410956263542175,-0.03520838916301727,0.8458594083786011,-0.5311486124992371
6.220454454421997,1.3475117996525368,5.566051782011267,117.7581166876526,-0.34814453125,0.01220703125,1.02001953125,8.23974609375,-2.5634765625,-96.61865234375,0.0,0.0,0.0,-0.03549261391162872,-0.03514788672327995,0.8547143936157227,-0.5166897177696228
6.235814571380615,1.436930074945405,5.685860557129284,119.71578550756165,-0.30078125,0.03662109375,0.91162109375,-0.6103515625,-0.06103515625,-97.22900390625,0.0,0.0,0.0,-0.03659943863749504,-0.03573395311832428,0.863338053226471,-0.5020269155502319
6.26039719581604,1.6619903576260258,5.7970278622867655,121.62315681442273,-0.30224609375,-0.0107421875,0.904296875,-3.23486328125,-0.244140625,-91.6748046875,0.0,0.0,0.0,-0.03707754984498024,-0.03730340301990509,0.8714544773101807,-0.48764845728874207
6.280685901641846,1.8478549594242937,6.0446299036625435,123.36169950537943,-0.24267578125,-0.037109375,0.982421875,0.30517578125,0.54931640625,-82.45849609375,0.0,0.0,0.0,-0.03876994922757149,-0.03918379917740822,0.8785768151283264,-0.4744095802307129
6.301106214523315,2.0616590903527334,6.090427175821126,124.90077335181509,-0.2802734375,-0.01123046875,1.0830078125,-1.64794921875,-6.89697265625,-73.54736328125,0.0,0.0,0.0,-0.03878356143832207,-0.04049469903111458,0.8847733736038208,-0.46263596415519714
6.32019305229187,2.1063419744595455,6.076496578122062,126.20872725711585,-0.22216796875,-0.0546875,1.14990234375,8.11767578125,-6.2255859375,-59.26513671875,0.0,0.0,0.0,-0.038958482444286346,-0.04034162685275078,0.8899872899055481,-0.45252344012260437
6.3359339237213135,2.084139377345361,6.103473690909496,127.2258926886925,-0.16015625,-0.001953125,0.98779296875,1.15966796875,-10.07080078125,-44.43359375,0.0,0.0,0.0,-0.039611831307411194,-0.03992528095841408,0.8939635753631592,-0.444596529006958
6.360472202301025,1.9139807955435375,5.914673601872003,127.93744813604609,-0.07861328125,0.0166015625,1.025390625,7.87353515625,-6.77490234375,-32.470703125,0.0,0.0,0.0,-0.03903203085064888,-0.03762629255652428,0.8968546390533447,-0.43899044394493103
6.376232147216797,1.632651813654765,5.860156312577431,128.36153458161218,-0.056640625,0.09765625,0.9765625,6.4697265625,0.67138671875,-17.4560546875,0.0,0.0,0.0,-0.03981268033385277,-0.035069070756435394,0.8985873460769653,-0.43557533621788025
6.400205135345459,1.47009790044181,5.870606502007551,128.60520841044155,-0.10498046875,0.15380859375,0.9189453125,-3.41796875,-0.67138671875,-11.5966796875,0.0,0.0,0.0,-0.04058438539505005,-0.03374772518873215,0.8995556235313416,-0.4336055815219879
6.421208620071411,1.3366527593675686,5.822994533963861,128.78206932880985,-0.11376953125,0.10498046875,0.99462890625,-4.8828125,-3.11279296875,-8.85009765625,0.0,0.0,0.0,-0.04076544567942619,-0.03245757520198822,0.9002835750579834,-0.43217402696609497
6.440178632736206,1.1148522911900423,5.766680478030753,128.95872534150305,-0.06884765625,0.091796875,1.11572265625,6.04248046875,1.953125,-10.8642578125,0.0,0.0,0.0,-0.04120618477463722,-0.030439548194408417,0.9010342359542847,-0.4307120144367218
6.460109710693359,0.8475406183862813,5.689907444212516,129.15898648796784,-0.052734375,0.1328125,0.99072265625,3.35693359375,-2.5634765625,-12.02392578125,0.0,0.0,0.0,-0.04165582358837128,-0.027976782992482185,0.9018863439559937,-0.4290492832660675
6.481656789779663,0.7673305586725009,5.639880150523581,129.34823736949056,-0.08447265625,0.158203125,0.85498046875,-7.14111328125,-1.953125,-10.25390625,0.0,0.0,0.0,-0.04160705953836441,-0.027089770883321762,0.9026337265968323,-0.42753639817237854
6.500473499298096,0.6839963811045274,5.603127756373389,129.5236776085115,-0.06884765625,0.1005859375,0.9296875,-2.8076171875,0.732421875,-8.9111328125,0.0,0.0,0.0,-0.04166858643293381,-0.026232637465000153,0.9033216834068298,-0.4261285960674286
6.520249366760254,0.6185175986874366,5.563689817218912,129.67455648727707,-0.12109375,0.1318359375,1.0556640625,-4.7607421875,-6.65283203125,-7.87353515625,0.0,0.0,0.0,-0.041634730994701385,-0.025515180081129074,0.9039127826690674,-0.42492038011550903
6.540202617645264,0.4963227396715581,5.481825731148078,129.80810034592918,-0.1025390625,0.10986328125,1.16552734375,-0.67138671875,-2.25830078125,-6.591796875,0.0,0.0,0.0,-0.04147013649344444,-0.024199705570936203,0.904466450214386,-0.4238339364528656
6.560778379440308,0.262654844491561,5.3375123717221715,129.92342125987568,-0.09228515625,0.09423828125,1.03662109375,4.57763671875,-6.9580078125,-6.103515625,0.0,0.0,0.0,-0.041216976940631866,-0.021780429407954216,0.9049950242042542,-0.4228604733943939
6.580733060836792,0.12277546511596918,5.244099289538492,130.05236157102718,-0.0458984375,0.14794921875,0.91748046875,-6.2255859375,-0.1220703125,-6.4697265625,0.0,0.0,0.0,-0.04101816937327385,-0.02028496377170086,0.905530571937561,-0.421806275844574
6.595385789871216,-0.022768242165145777,5.077536162004446,130.19925161931747,-0.03955078125,0.0859375,1.03662109375,2.38037109375,-3.84521484375,-8.7890625,0.0,0.0,0.0,-0.04026129096746445,-0.01847015507519245,0.9061547517776489,-0.4206206202507019
6.620471954345703,-0.28378077967696913,4.927836344644337,130.37354438655785,-0.00732421875,0.0712890625,1.09326171875,9.6435546875,1.89208984375,-9.27734375,0.0,0.0,0.0,-0.04005958512425423,-0.015795545652508736,0.9068834185600281,-0.41917580366134644
6.635859489440918,-0.5218573485227979,4.863341429632845,130.5211311141435,-0.04833984375,0.13671875,0.94384765625,-1.3427734375,1.28173828125,-7.75146484375,0.0,0.0,0.0,-0.040437616407871246,-0.013623218983411789,0.9074740409851074,-0.41793569922447205
6.661367893218994,-0.5988762691511542,4.868996399378793,130.66869052097243,-0.04638671875,0.119140625,0.97802734375,-4.45556640625,1.8310546875,-8.4228515625,0.0,0.0,0.0,-0.04078003391623497,-0.01298142783343792,0.9080185294151306,-0.416738361120224
6.6805431842803955,-0.7839631365185398,4.788379676605133,130.83148124965052,-0.1044921875,0.068359375,1.03271484375,2.13623046875,-6.2255859375,-7.9345703125,0.0,0.0,0.0,-0.0408303327858448,-0.011163286864757538,0.9086543321609497,-0.4153982102870941
6.7025628089904785,-1.0238122728561192,4.745080546135482,130.978057109239,-0.0556640625,0.083984375,1.02783203125,5.79833984375,1.46484375,-8.30078125,0.0,0.0,0.0,-0.04136807844042778,-0.009051291272044182,0.9092190861701965,-0.4141589105129242
6.720213174819946,-1.3202502735191946,4.617896874261144,131.14793757427555,-0.03515625,0.09716796875,1.04443359375,7.87353515625,-3.41796875,-10.19287109375,0.0,0.0,0.0,-0.04143979400396347,-0.006177252158522606,0.9098882675170898,-0.41273248195648193
6.740750789642334,-1.5244947009305552,4.539171260113932,131.32492143604892,-0.07373046875,0.1279296875,0.921875,-1.89208984375,-2.01416015625,-8.9111328125,0.0,0.0,0.0,-0.041557107120752335,-0.0042071351781487465,0.9105553030967712,-0.41127172112464905
6.760228872299194,-1.6876036737352795,4.529019464573177,131.46850567278094,-0.0634765625,0.0703125,0.9365234375,0.1220703125,0.42724609375,-7.62939453125,0.0,0.0,0.0,-0.04206540808081627,-0.002821824513375759,0.9110775589942932,-0.41007357835769653
6.780404567718506,-1.8423308304896344,4.484840093474242,131.59694054993386,-0.08837890625,0.0908203125,0.9140625,-3.662109375,-4.21142578125,-7.26318359375,0.0,0.0,0.0,-0.042269594967365265,-0.0013857415178790689,0.911550760269165,-0.40900683403015137
6.800358057022095,-1.9594707091894688,4.436037964967678,131.71543067165524,-0.08984375,0.0849609375,1.1044921875,-3.47900390625,-7.14111328125,-7.2021484375,0.0,0.0,0.0,-0.04229995608329773,-0.0002354897151235491,0.9119862914085388,-0.4080340564250946
6.820601224899292,-2.1147247510052667,4.385576954266447,131.8145640372688,-0.0830078125,0.05859375,1.12353515625,1.220703125,-1.64794921875,-4.94384765625,0.0,0.0,0.0,-0.04245036095380783,0.0012170631671324372,0.9123504757881165,-0.4072015583515167
6.8409013748168945,-2.1867123835362623,4.391455185820889,131.8919364201867,-0.10009765625,0.037109375,0.94482421875,2.8076171875,-9.6435546875,-3.11279296875,0.0,0.0,0.0,-0.0427517294883728,0.0017981266137212515,0.91262286901474,-0.4065569341182709
6.860214948654175,-2.282460750085851,4.357310643273172,131.93351861185374,-0.04345703125,0.072265625,0.92529296875,-4.638671875,1.3427734375,-2.197265625,0.0,0.0,0.0,-0.042818691581487656,0.0026977581437677145,0.912776529788971,-0.4062000513076782
6.880618333816528,-2.1927756705285297,4.108975637222087,131.98231348328432,-0.0654296875,0.0146484375,1.08154296875,1.64794921875,-6.77490234375,-1.708984375,0.0,0.0,0.0,-0.04052261635661125,0.0028838664293289185,0.9130074977874756,-0.4059150516986847
6.900354623794556,-2.1812821697026905,3.9118230806033147,132.05091590330792,-0.02392578125,-0.0078125,1.1044921875,10.68115234375,-3.173828125,-2.74658203125,0.0,0.0,0.0,-0.03890989348292351,0.003516098950058222,0.9132922291755676,-0.40542685985565186
6.920677185058594,-2.3133496402769995,3.7506374463801837,132.09370020826887,-0.01220703125,0.05810546875,0.92822265625,2.3193359375,0.91552734375,-1.28173828125,0.0,0.0,0.0,-0.03809130936861038,0.005154875572770834,0.9134703278541565,-0.4050857126712799
6.942676544189453,-2.350665951920541,3.6376127566552823,132.1061311525583,-0.0263671875,0.05908203125,0.91015625,-7.75146484375,2.99072265625,-1.3427734375,0.0,0.0,0.0,-0.03732213005423546,0.0058571347035467625,0.9135333895683289,-0.4050056040287018
6.960633993148804,-2.1885736100850908,3.4998269236417916,132.14601945731118,-0.0537109375,-0.00830078125,1.06884765625,0.9765625,-3.173828125,-1.3427734375,0.0,0.0,0.0,-0.035649556666612625,0.005065698176622391,0.9137066006660461,-0.4047761559486389
6.981272220611572,-2.0750629097120603,3.4314200177831755,132.18328496942277,-0.07861328125,0.0126953125,1.01025390625,1.89208984375,-6.4697265625,-0.9765625,0.0,0.0,0.0,-0.034701958298683167,0.004414154216647148,0.9138548970222473,-0.4045312702655792
7.001418590545654,-2.074293446213376,3.2795981460253087,132.22795440659465,0.029296875,0.02490234375,1.04736328125,4.0283203125,1.28173828125,-2.86865234375,0.0,0.0,0.0,-0.03348710015416145,0.004958345089107752,0.914038360118866,-0.4042128026485443
7.02051568031311,-2.0753803000650546,3.101577803045389,132.300805204282,-0.02783203125,0.02392578125,0.97705078125,0.0,-2.197265625,-3.662109375,0.0,0.0,0.0,-0.032068002969026566,0.005616819020360708,0.9143232703208923,-0.40367457270622253
7.041217803955078,-2.1383236949178954,2.935327796996105,132.36201735962365,-0.02734375,0.0390625,0.8916015625,-4.638671875,-0.244140625,-3.60107421875,0.0,0.0,0.0,-0.0309602040797472,0.0067225429229438305,0.914559543132782,-0.4032086133956909
7.056121110916138,-1.9740738670783675,2.8410607277227626,132.42820189268107,-0.0146484375,0.0009765625,0.9189453125,-3.11279296875,3.60107421875,-2.685546875,0.0,0.0,0.0,-0.029626837000250816,0.005761155392974615,0.9148142337799072,-0.4027455747127533
7.083982229232788,-1.8164269111755378,2.896990158628235,132.48002936810315,-0.095703125,0.029296875,1.01611328125,-3.47900390625,-5.06591796875,-1.953125,0.0,0.0,0.0,-0.02951713651418686,0.0043190219439566135,0.9149953126907349,-0.4023601710796356
7.100186109542847,-1.7440913658836947,3.0233055427043354,132.53331850400758,-0.0703125,0.03857421875,1.13916015625,-5.2490234375,-2.5634765625,-2.3193359375,0.0,0.0,0.0,-0.03026985563337803,0.003311185399070382,0.9151655435562134,-0.4019264280796051
7.120866060256958,-1.6829093060630709,3.0862333561881323,132.55846726053156,-0.068359375,0.01953125,1.10205078125,0.0,0.1220703125,-0.6103515625,0.0,0.0,0.0,-0.030557073652744293,0.002608157694339752,0.9152452349662781,-0.4017283022403717
7.1418068408966064,-1.6565122257465583,3.1363720673379034,132.54352280662758,-0.10009765625,0.01708984375,0.9384765625,1.3427734375,-8.1787109375,1.64794921875,0.0,0.0,0.0,-0.0308651402592659,0.0022172085009515285,0.9151850938796997,-0.4018441438674927
7.161736011505127,-1.7294214002069768,3.0695962960304506,132.5274172205647,0.0087890625,0.05517578125,0.9609375,-3.11279296875,3.35693359375,0.3662109375,0.0,0.0,0.0,-0.030588116496801376,0.0030297941993921995,0.9151379466056824,-0.40196743607521057
7.181113958358765,-1.6887039745218861,2.8551840648224682,132.52230823906552,-0.03271484375,0.02001953125,1.056640625,-0.732421875,-3.41796875,0.06103515625,0.0,0.0,0.0,-0.028733665123581886,0.0034568298142403364,0.915154218673706,-0.4020637571811676
7.200673818588257,-1.5748060878002808,2.7279216323292634,132.54146008949823,-0.00537109375,-0.10498046875,1.05859375,3.0517578125,0.06103515625,-0.732421875,0.0,0.0,0.0,-0.027317458763718605,0.0029990244656801224,0.9152430295944214,-0.40196406841278076
7.221248388290405,-1.380073979468632,2.7368158192890895,132.56271563819533,0.0458984375,-0.1220703125,0.90185546875,-6.04248046875,6.16455078125,-1.220703125,0.0,0.0,0.0,-0.026705097407102585,0.001417405204847455,0.9153200387954712,-0.4018385410308838
7.2352659702301025,-0.9697358509281299,2.769305961953782,132.5862251493185,-0.01611328125,-0.1845703125,0.931640625,-11.474609375,4.150390625,-0.30517578125,0.0,0.0,0.0,-0.025525875389575958,-0.001969069940969348,0.9153963327407837,-0.4017387926578522
7.2615556716918945,-0.5845327651724216,2.7615863540877865,132.5887523193114,-0.12109375,-0.26318359375,1.03271484375,-7.32421875,-6.28662109375,1.0986328125,0.0,0.0,0.0,-0.024113725870847702,-0.005018570926040411,0.9153947830200195,-0.401803195476532
7.2811102867126465,-0.29852411652641186,2.748946235255032,132.63131805821894,0.04833984375,-0.28759765625,1.08642578125,-3.35693359375,2.685546875,-2.685546875,0.0,0.0,0.0,-0.023012520745396614,-0.0072503965348005295,0.9155309796333313,-0.4015234708786011
7.299814701080322,-0.02325627385557773,2.6604754352660915,132.69645074214418,-0.0634765625,-0.24560546875,0.8720703125,-6.77490234375,-9.27734375,-0.3662109375,0.0,0.0,0.0,-0.02134629711508751,-0.009127447381615639,0.915755569934845,-0.4010644853115082
7.320227861404419,0.38754568055846395,2.478138626174135,132.47162823542402,-0.048828125,-0.251953125,0.84130859375,-16.357421875,-2.86865234375,19.95849609375,0.0,0.0,0.0,-0.01842804066836834,-0.011808399111032486,0.9149630665779114,-0.4029437303543091
7.335549592971802,0.7091952968302316,2.2352331936263865,131.9081512892763,-0.005859375,-0.341796875,1.0732421875,-1.15966796875,-18.24951171875,33.87451171875,0.0,0.0,0.0,-0.015290576033294201,-0.013598172925412655,0.9129787683486938,-0.4074937105178833
7.360552787780762,0.9625062024133771,1.7278464012730541,130.99520088405572,0.02685546875,-0.29638671875,1.08154296875,-7.14111328125,-18.1884765625,54.0771484375,0.0,0.0,0.0,-0.010236328467726707,-0.013895058073103428,0.9097558259963989,-0.41478484869003296
7.381028413772583,1.1815848402066536,1.5061299230779777,129.7147999618668,0.193359375,-0.30615234375,1.130859375,-1.64794921875,-1.3427734375,69.39697265625,0.0,0.0,0.0,-0.007516662590205669,-0.014917179942131042,0.9050692915916443,-0.42493611574172974
7.400214910507202,1.1730022806277094,1.4059727761408511,128.16707909594192,0.1572265625,-0.30126953125,1.0791015625,5.79833984375,4.21142578125,86.3037109375,0.0,0.0,0.0,-0.006561163812875748,-0.014568135142326355,0.899262547492981,-0.43711748719215393
7.420387506484985,1.2185531323676417,1.1392538890518533,126.30456847154947,0.0126953125,-0.2431640625,0.91259765625,6.65283203125,-29.60205078125,99.4873046875,0.0,0.0,0.0,-0.00406743073835969,-0.013976631686091423,0.8920677900314331,-0.45166724920272827
7.435274600982666,1.2805689021538302,0.983917458079192,124.1106843893847,0.27685546875,-0.22998046875,0.98046875,-1.03759765625,12.451171875,114.92919921875,0.0,0.0,0.0,-0.0023480320814996958,-0.013894893229007721,0.8832679986953735,-0.4686567783355713
7.455270051956177,1.4354883714220035,0.8817544233210503,121.6856667057067,0.10498046875,-0.1787109375,0.78515625,-7.6904296875,-18.00537109375,124.267578125,0.0,0.0,0.0,-0.0006162371137179434,-0.014687658287584782,0.8731452822685242,-0.4872383773326874
7.480477333068848,1.685477777356113,0.32652437030717335,119.0879955001891,0.1416015625,-0.29541015625,0.97509765625,-4.94384765625,-24.0478515625,132.2021484375,0.0,0.0,0.0,0.004999108612537384,-0.014122718945145607,0.8619006872177124,-0.506855845451355
7.500179052352905,1.8327670715477355,0.04240018352637268,116.28902495945289,0.34716796875,-0.34228515625,1.15576171875,-1.77001953125,-8.9111328125,142.63916015625,0.0,0.0,0.0,0.008126644417643547,-0.01377961877733469,0.8492701053619385,-0.5277161598205566
7.520218849182129,1.8121659403505077,-0.07001418143843136,113.33722210584848,0.3037109375,-0.32421875,1.1318359375,7.4462890625,-6.591796875,150.69580078125,0.0,0.0,0.0,0.009199615567922592,-0.012876572087407112,0.8354071378707886,-0.5494036674499512
7.541438817977905,1.8121917670033068,-0.3493199932599587,110.21412493804932,0.26904296875,-0.2587890625,0.9736328125,0.18310546875,-11.71875,158.447265625,0.0,0.0,0.0,0.01154614333063364,-0.01122709084302187,0.8201435804367065,-0.5719310641288757
7.56062388420105,1.8971482212208641,-0.2842377620211253,106.89663375628243,0.26416015625,-0.244140625,0.84765625,2.3193359375,-2.50244140625,170.47119140625,0.0,0.0,0.0,0.011851565912365913,-0.01182189118117094,0.8032318949699402,-0.5954312682151794
7.580161094665527,2.087400365787219,-0.9848460436411964,103.44712184804835,0.10693359375,-0.291015625,0.84423828125,4.82177734375,-45.654296875,174.74365234375,0.0,0.0,0.0,0.01802864857017994,-0.008975903503596783,0.784968912601471,-0.6192077398300171
7.600545883178711,2.280771345483331,-1.265426906372441,99.8451601175396,0.46826171875,-0.3095703125,1.03369140625,0.48828125,1.708984375,183.10546875,0.0,0.0,0.0,0.021260609850287437,-0.008119586855173111,0.7651184797286987,-0.6434872150421143
7.621920824050903,2.3584933487093753,-1.3713696504233914,96.14179056842367,0.36083984375,-0.36669921875,1.15380859375,6.77490234375,-15.9912109375,184.4482421875,0.0,0.0,0.0,0.022652337327599525,-0.00731516582891345,0.743925929069519,-0.6678379774093628
7.640839338302612,2.329517765259477,-1.6017815997621287,92.31214448193255,0.36083984375,-0.30859375,0.96484375,8.60595703125,-7.6904296875,192.87109375,0.0,0.0,0.0,0.024158455431461334,-0.004979020915925503,0.7212067246437073,-0.6922807097434998
7.660562515258789,2.35858000673447,-1.675983921131501,88.356454084498,0.31005859375,-0.3046875,0.9375,14.09912109375,-29.60205078125,196.533203125,0.0,0.0,0.0,0.024948671460151672,-0.0038546277210116386,0.6968863606452942,-0.7167372107505798
7.679572582244873,2.685958871059409,-2.3106559844230756,83.19376680788466,0.341796875,-0.25634765625,0.7978515625,-6.77490234375,-16.78466796875,209.228515625,0.0,0.0,0.0,0.030905812978744507,-0.0004821241309400648,0.6639216542243958,-0.7471631169319153
7.700624704360962,2.8875924586605324,-2.4653514448308136,80.02453171224205,0.47705078125,-0.3837890625,1.078125,4.94384765625,-8.30078125,212.646484375,0.0,0.0,0.0,0.033120736479759216,0.0002751387073658407,0.6430138349533081,-0.7651380896568298
7.715916395187378,3.0440486137702525,-2.3635190872780356,75.73492702666393,0.40087890625,-0.3935546875,1.05810546875,9.70458984375,-15.0146484375,216.064453125,0.0,0.0,0.0,0.033619221299886703,-2.5163737518596463e-05,0.6139223575592041,-0.7886501550674438
7.73530912399292,3.061658548997838,-2.6417293407587565,71.38902792194655,0.46435546875,-0.376953125,1.02587890625,12.02392578125,-6.65283203125,217.7734375,0.0,0.0,0.0,0.03513524681329727,0.0031312787905335426,0.5836003422737122,-0.8112745881080627
7.760326623916626,3.1518768101972436,-2.9665993912241855,67.00366398420485,0.3095703125,-0.27001953125,0.81591796875,12.3291015625,-39.85595703125,216.73583984375,0.0,0.0,0.0,0.037207718938589096,0.0064020585268735886,0.5521636009216309,-0.8328805565834045
7.780421733856201,3.2808175482355675,-3.151741913961136,62.48005018747291,0.59423828125,-0.24169921875,0.9384765625,8.23974609375,7.8125,227.35595703125,0.0,0.0,0.0,0.03872324153780937,0.00866264384239912,0.5188888907432556,-0.8539202809333801
7.800503969192505,3.296217490379831,-3.095853250747272,58.01093447012851,0.59130859375,-0.30908203125,1.119140625,18.9208984375,-19.34814453125,221.0693359375,0.0,0.0,0.0,0.03823745250701904,0.009674291126430035,0.4851951003074646,-0.8735159039497375
7.823132038116455,3.330348159105796,-3.399956111041277,53.551900111999046,0.615234375,-0.25390625,1.00244140625,12.451171875,-8.48388671875,223.57177734375,0.0,0.0,0.0,0.03929035738110542,0.013388496823608875,0.45088404417037964,-0.8916168212890625
7.842027187347412,3.509399860650388,-3.4623579999589826,49.102441679085935,0.57861328125,-0.20849609375,0.88232421875,4.8828125,-19.95849609375,221.98486328125,0.0,0.0,0.0,0.04038603603839874,0.01474878191947937,0.4159635603427887,-0.9083643555641174
7.8603620529174805,3.8110671181750484,-3.472550136304523,44.67946388958497,0.4658203125,-0.2333984375,0.74853515625,2.25830078125,-4.21142578125,222.35107421875,0.0,0.0,0.0,0.04225216060876846,0.015376432798802853,0.38064491748809814,-0.9236275553703308
7.8813512325286865,4.140017139452502,-3.408976229613925,40.287723970253055,0.58935546875,-0.322265625,0.94091796875,2.62451171875,-10.19287109375,215.75927734375,0.0,0.0,0.0,0.044132836163043976,0.015473215840756893,0.3450101613998413,-0.937433123588562
7.9003825187683105,4.286683072160655,-3.45267898157484,36.07740753565502,0.7861328125,-0.3837890625,1.2119140625,9.6435546875,-8.6669921875,206.35986328125,0.0,0.0,0.0,0.04486741125583649,0.017049061134457588,0.31037360429763794,-0.9494021534919739
7.920280933380127,4.347890531747255,-3.4492570568006635,32.01928137614321,0.67822265625,-0.302734375,1.02099609375,12.0849609375,-11.65771484375,201.23291015625,0.0,0.0,0.0,0.044740092009305954,0.01845056191086769,0.2765730917453766,-0.959773600101471
7.94061803817749,4.456567379178621,-3.2694480580318466,28.046968005816147,0.6259765625,-0.28857421875,0.95361328125,7.01904296875,-6.7138671875,195.61767578125,0.0,0.0,0.0,0.04461446404457092,0.018238486722111702,0.2431139051914215,-0.9687995910644531
7.960235118865967,4.6871771905598765,-3.2135984549622987,24.197041380131957,0.50341796875,-0.2197265625,0.75439453125,-2.50244140625,0.67138671875,189.5751953125,0.0,0.0,0.0,0.045840080827474594,0.018827209249138832,0.21045681834220886,-0.9763463139533997
7.980231046676636,5.049262167048354,-2.890089319688995,20.54247011754118,0.50244140625,-0.22216796875,0.767578125,-6.4697265625,-3.173828125,178.22265625,0.0,0.0,0.0,0.04782141372561455,0.016938121989369392,0.17917153239250183,-0.9825090169906616
8.000337362289429,5.265998583564845,-3.1979641519521396,17.256247541794604,0.7353515625,-0.31103515625,1.16845703125,2.25830078125,-14.0380859375,153.3203125,0.0,0.0,0.0,0.04958249256014824,0.02066994644701481,0.15107126533985138,-0.9870622754096985
8.020157098770142,5.304338142923419,-3.070200127441762,14.520133524442734,0.86865234375,-0.2490234375,1.24169921875,12.39013671875,-2.74658203125,126.89208984375,0.0,0.0,0.0,0.04926693066954613,0.020700586959719658,0.1274222731590271,-0.9904079437255859
8.04031252861023,5.220981233632115,-2.9744148351819724,12.24590763461839,0.623046875,-0.15576171875,0.9541015625,5.859375,2.86865234375,108.45947265625,0.0,0.0,0.0,0.04803622514009476,0.02092251367866993,0.10769117623567581,-0.9928028583526611
8.060171365737915,5.398293798259291,-2.8802290878484356,10.315229160988288,0.57080078125,-0.10693359375,0.8662109375,-4.33349609375,-1.64794921875,89.41650390625,0.0,0.0,0.0,0.049142856150865555,0.020770568400621414,0.09094645082950592,-0.9944256544113159
8.08136534690857,5.522044019415229,-3.018567098967639,8.7861965464062,0.56787109375,-0.1552734375,0.96435546875,-2.3193359375,-2.44140625,70.25146484375,0.0,0.0,0.0,0.0500272773206234,0.02254253812134266,0.07774848490953445,-0.9954618811607361
8.100160837173462,5.558679019689062,-3.045673558462481,7.554991769261579,0.515625,-0.12939453125,0.826171875,3.23486328125,-0.42724609375,56.70166015625,0.0,0.0,0.0,0.05011594668030739,0.023292994126677513,0.06706707924604416,-0.9962167143821716
8.120381355285645,5.665212468381513,-3.090528051072189,6.544445644764329,0.52685546875,-0.1162109375,0.83056640625,-1.15966796875,-3.47900390625,45.47119140625,0.0,0.0,0.0,0.050857026129961014,0.024070048704743385,0.05832001566886902,-0.9967111349105835
8.140820026397705,5.634801477988853,-3.4952212417070876,5.853581401727648,0.74169921875,-0.1552734375,1.19287109375,7.14111328125,-10.7421875,26.0009765625,0.0,0.0,0.0,0.05062144249677658,0.027911648154258728,0.05247154086828232,-0.9969478845596313
8.16121244430542,5.44763593859711,-3.5418402710001864,5.602587744542135,0.82470703125,-0.08740234375,1.21435546875,12.3291015625,5.18798828125,5.43212890625,0.0,0.0,0.0,0.04895085096359253,0.028510278090834618,0.050260622054338455,-0.9971283078193665
8.180421829223633,5.237369418771913,-3.6319385770022943,5.7222001517215135,0.638671875,-0.03857421875,1.0107421875,8.60595703125,5.67626953125,-12.26806640625,0.0,0.0,0.0,0.047189000993967056,0.029337376356124878,0.05128373205661774,-0.9971372485160828
8.20020866394043,5.0212656485272955,-3.660406805462907,6.181301135180853,0.51318359375,-0.0068359375,0.91552734375,10.07080078125,-4.5166015625,-29.78515625,0.0,0.0,0.0,0.04543905332684517,0.029500005766749382,0.05523362755775452,-0.9970026612281799
8.220349550247192,4.788464627082934,-3.88969284080565,7.0469068035090245,0.580078125,0.06787109375,0.91357421875,5.0048828125,13.85498046875,-54.99267578125,0.0,0.0,0.0,0.043755967170000076,0.03127783536911011,0.0627831444144249,-0.9965769052505493
8.241428136825562,4.4355146017225255,-3.9265092679793114,8.479083920565747,0.572265625,0.08251953125,1.08642578125,12.02392578125,5.79833984375,-79.40673828125,0.0,0.0,0.0,0.0410996749997139,0.03128012642264366,0.07514981925487518,-0.9958338141441345
8.262131452560425,4.126208204498028,-4.075577719728017,10.331712115002821,0.40380859375,0.11328125,0.9521484375,2.5634765625,14.7705078125,-98.32763671875,0.0,0.0,0.0,0.03903086856007576,0.03215186297893524,0.09119874238967896,-0.9945480227470398
8.280169010162354,3.84902119873234,-3.891785866899436,12.460928819879562,0.15576171875,0.09033203125,0.939453125,4.82177734375,23.3154296875,-107.91015625,0.0,0.0,0.0,0.037048183381557465,0.030093541368842125,0.1095377504825592,-0.992836058139801
8.30021858215332,3.400051733689657,-3.3565118390517648,14.754154588427589,-0.09375,0.13916015625,1.0029296875,8.48388671875,32.28759765625,-112.1826171875,0.0,0.0,0.0,0.03316726163029671,0.025224164128303528,0.1291489154100418,-0.9907493591308594
8.320316791534424,2.8640402588550358,-3.019518843139798,17.037925667617024,-0.2978515625,0.26416015625,1.05126953125,16.11328125,14.892578125,-111.4501953125,0.0,0.0,0.0,0.028608331456780434,0.02234761416912079,0.14869023859500885,-0.9882172346115112
8.336681604385376,2.3160870520302934,-2.7791777197385663,19.307920255250544,-0.20703125,0.314453125,0.990234375,13.73291015625,13.671875,-111.6943359375,0.0,0.0,0.0,0.023984145373106003,0.020514003932476044,0.1680968701839447,-0.9852651357650757
8.360903024673462,1.9317245597901729,-2.4247690221035363,21.554982482745746,-0.1796875,0.34228515625,0.94921875,5.9814453125,19.53125,-111.14501953125,0.0,0.0,0.0,0.02051161415874958,0.017630930989980698,0.18727733194828033,-0.9819347262382507
8.375376462936401,1.5617622407545546,-2.111964927693758,23.777157208452717,-0.2841796875,0.31298828125,1.037109375,8.23974609375,2.50244140625,-110.41259765625,0.0,0.0,0.0,0.017130186781287193,0.01522522047162056,0.20620079338550568,-0.9782412648200989
8.400243997573853,1.214680735273362,-2.02431246974475,25.969803318830426,-0.2578125,0.34228515625,1.0146484375,6.77490234375,4.638671875,-108.82568359375,0.0,0.0,0.0,0.014296128414571285,0.014830514788627625,0.2248290330171585,-0.9741805195808411
8.420571327209473,0.939412905942741,-1.770670726873682,28.130262162744454,-0.19970703125,0.34033203125,0.96630859375,1.953125,11.77978515625,-104.8583984375,0.0,0.0,0.0,0.011706058867275715,0.012995628640055656,0.24311041831970215,-0.969840943813324
8.440441846847534,0.6854770380505392,-1.7403003974509261,30.231564738257,-0.28466796875,0.3203125,0.9794921875,3.0517578125,-5.2490234375,-103.515625,0.0,0.0,0.0,0.009734339080750942,0.013100985437631607,0.26082339882850647,-0.9652485847473145
8.460486650466919,0.4134818298277064,-1.7111919454773301,32.29436041477631,-0.17626953125,0.3203125,0.95947265625,2.86865234375,1.77001953125,-102.11181640625,0.0,0.0,0.0,0.007618332281708717,0.01333986409008503,0.27812469005584717,-0.9604220986366272
8.481220245361328,0.24675800608517945,-1.440054246160451,34.26424502801593,-0.19091796875,0.3291015625,0.9775390625,-1.40380859375,7.26318359375,-96.435546875,0.0,0.0,0.0,0.005759441293776035,0.01137460209429264,0.29457801580429077,-0.9555424451828003
8.500234365463257,0.09590202579559451,-1.357221874053062,36.115410708196976,-0.29248046875,0.33935546875,1.0576171875,-2.9296875,-0.67138671875,-89.66064453125,0.0,0.0,0.0,0.004466876853257418,0.011000948958098888,0.30996227264404297,-0.9506747126579285
8.522163152694702,-0.07638924922403251,-1.2580998209403098,37.866643890631565,-0.22998046875,0.32470703125,1.08251953125,1.40380859375,-1.15966796875,-85.87646484375,0.0,0.0,0.0,0.0029317373409867287,0.010601067915558815,0.32444101572036743,-0.9458419680595398
8.536217212677002,-0.2714231531994178,-1.1739089882400287,39.51814265080562,-0.22119140625,0.31103515625,0.9716796875,1.46484375,-0.244140625,-80.74951171875,0.0,0.0,0.0,0.0012341358233243227,0.010441639460623264,0.33802419900894165,-0.9410786628723145
8.560209035873413,-0.39619683551379914,-1.0611296517167186,41.046380402123056,-0.2177734375,0.31640625,0.9501953125,-0.91552734375,-2.01416015625,-73.73046875,0.0,0.0,0.0,8.520048140781e-06,0.00988427922129631,0.35053932666778564,-0.9364959597587585
8.58207631111145,-0.5704231418119091,-1.0101466651525104,42.45334472963232,-0.21142578125,0.3154296875,1.04296875,0.732421875,-2.0751953125,-67.626953125,0.0,0.0,0.0,-0.0014484234852716327,0.01001912821084261,0.3619990944862366,-0.9321234822273254
8.600670099258423,-0.625707333284227,-0.6389284984441089,43.67328823238288,-0.2724609375,0.13720703125,1.0029296875,-0.54931640625,14.0380859375,-56.0302734375,0.0,0.0,0.0,-0.002994527807459235,0.007206521462649107,0.37192198634147644,-0.9282312393188477
8.62035584449768,-0.791137396467992,-0.5207280194322186,44.723327364434795,-0.29248046875,0.2451171875,1.01611328125,1.52587890625,1.46484375,-48.27880859375,0.0,0.0,0.0,-0.004655880853533745,0.006828955374658108,0.38040968775749207,-0.9247811436653137
8.640360116958618,-0.9315142190544443,-0.35933854675104515,45.67733403675632,-0.09326171875,0.134765625,0.9462890625,-0.42724609375,-2.62451171875,-47.54638671875,0.0,0.0,0.0,-0.006274486426264048,0.0060449945740401745,0.38809940218925476,-0.9215764403343201
8.660211086273193,-0.9825532345141877,-0.24221667733906144,46.62557261432378,-0.04248046875,0.15478515625,0.962890625,-6.53076171875,2.25830078125,-48.76708984375,0.0,0.0,0.0,-0.007037769071757793,0.005334367509931326,0.39571836590766907,-0.9183295369148254
8.681333780288696,-1.033678694555614,-0.13231405107551678,47.58391304167368,-0.05322265625,0.07275390625,1.05419921875,-3.173828125,-2.38037109375,-45.95947265625,0.0,0.0,0.0,-0.007788042072206736,0.004695477895438671,0.40339067578315735,-0.9149826169013977
8.700251579284668,-1.0525275620656163,-0.02608608826328546,48.38876545799506,-0.072265625,0.02197265625,1.06005859375,0.48828125,-4.57763671875,-36.19384765625,0.0,0.0,0.0,-0.008284815587103367,0.003971922677010298,0.40981438755989075,-0.9121226668357849
8.72019338607788,-0.9278728744531812,0.07407948468601783,48.976653500236395,-0.0517578125,-0.04443359375,0.95068359375,-7.32421875,-1.708984375,-24.59716796875,0.0,0.0,0.0,-0.007636712864041328,0.002768028760328889,0.4144989252090454,-0.9100136160850525
8.740376710891724,-0.6528626713203167,0.10159764984133807,49.411767286217476,-0.0126953125,-0.11181640625,1.03759765625,-0.3662109375,0.67138671875,-19.59228515625,0.0,0.0,0.0,-0.005546330939978361,0.0015757940709590912,0.41795799136161804,-0.9084481000900269
8.760347127914429,-0.5041760164740448,0.12496847610785897,49.745124913943705,-0.03125,-0.02685546875,1.0859375,3.23486328125,-1.3427734375,-13.916015625,0.0,0.0,0.0,-0.004450337029993534,0.0008611482917331159,0.42060142755508423,-0.9072343111038208
8.78058123588562,-0.3643615105553548,0.20438956893122345,49.97068166599962,-0.01904296875,-0.03173828125,0.9931640625,0.1220703125,-2.197265625,-10.80322265625,0.0,0.0,0.0,-0.003635458182543516,-0.0002736687602009624,0.4223886728286743,-0.9064075946807861
8.802330732345581,-0.18730302362921675,0.32389837601471505,50.116646223657376,-0.04052734375,-0.03271484375,0.94287109375,-1.708984375,-1.52587890625,-6.53076171875,0.0,0.0,0.0,-0.002677828073501587,-0.00186821143142879,0.4235425293445587,-0.9058703780174255
8.81577467918396,0.0037084467075364606,0.5116825010935946,50.20759360755068,-0.0751953125,-0.0380859375,0.95654296875,-3.72314453125,2.685546875,-2.685546875,0.0,0.0,0.0,-0.0018651223508641124,-0.004057202022522688,0.4242550730705261,-0.9055317640304565
8.840474843978882,0.14845968445850133,0.7017683732423419,50.26321866815127,-0.09521484375,-0.0400390625,0.98681640625,-2.62451171875,-1.0986328125,-2.0751953125,0.0,0.0,0.0,-0.0014279847964644432,-0.006094516720622778,0.42468342185020447,-0.9053202867507935
8.86065149307251,0.21646883851967033,0.7881397971960026,50.27631214079018,-0.12646484375,-0.0458984375,1.01953125,1.953125,-9.033203125,-0.9765625,0.0,0.0,0.0,-0.00121159793343395,-0.007028783671557903,0.4247798025608063,-0.905268669128418
8.882136583328247,0.26740521437887843,0.8810401883051079,50.301829727529345,-0.0556640625,-0.0244140625,1.0263671875,0.79345703125,-2.685546875,-2.44140625,0.0,0.0,0.0,-0.0011553677031770349,-0.007951239123940468,0.4249740540981293,-0.9051698446273804
8.90034532546997,0.3664865798413015,1.0179913508576814,50.356952769225934,-0.048828125,-0.00830078125,0.96044921875,-4.7607421875,-3.2958984375,-2.197265625,0.0,0.0,0.0,-0.0008851761813275516,-0.009400023147463799,0.4253946840763092,-0.9049587249755859
8.920785427093506,0.46613885306880243,1.1711216307284287,50.379700714256664,-0.037109375,-0.01171875,1.00830078125,-4.33349609375,-0.3662109375,0.0,0.0,0.0,0.0,-0.0006689138826914132,-0.01097908429801464,0.42555564641952515,-0.9048653841018677
8.935797929763794,0.6634945544545292,1.125625100336739,50.37947190291947,-0.02392578125,-0.02001953125,1.09375,0.48828125,-2.01416015625,0.6103515625,0.0,0.0,0.0,0.0010585113195702434,-0.011352737434208393,0.425538033246994,-0.9048687815666199
8.961974859237671,0.6399246922067259,1.2125932587082766,50.344320334356,-0.072265625,-0.001953125,1.01123046875,0.18310546875,-6.2255859375,2.0751953125,0.0,0.0,0.0,0.0005530243506655097,-0.011951743625104427,0.4252556264400482,-0.9049942493438721
8.980585098266602,0.53757569487626,1.301068967895683,50.30587661461258,-0.02392578125,0.0087890625,0.98095703125,-0.54931640625,-1.220703125,0.54931640625,0.0,0.0,0.0,-0.0005795829347334802,-0.012270817533135414,0.4249556362628937,-0.9051308631896973
9.0002920627594,0.33094411634997983,1.2275412344285555,50.29508150062937,-0.025390625,0.0107421875,1.0068359375,-0.67138671875,-2.62451171875,-0.732421875,0.0,0.0,0.0,-0.001937959692440927,-0.010923939757049084,0.4248965084552765,-0.9051739573478699
9.024092674255371,0.17903800114561208,1.0691703851954102,50.31791140793014,0.0009765625,0.0029296875,0.98193359375,-1.28173828125,-0.18310546875,-1.5869140625,0.0,0.0,0.0,-0.002552407793700695,-0.009109188802540302,0.4250987768173218,-0.9050976037979126
9.040467500686646,0.17981314757512917,0.9220597431392658,50.35462367471896,0.01611328125,-0.015625,1.0234375,3.96728515625,3.5400390625,-2.38037109375,0.0,0.0,0.0,-0.0020030620507895947,-0.007949483580887318,0.4253952205181122,-0.904970645904541
9.060410976409912,0.11708698475440638,0.8037888811624125,50.408237244608976,-0.0029296875,0.00048828125,0.9755859375,3.173828125,3.0517578125,-2.3193359375,0.0,0.0,0.0,-0.002062530955299735,-0.006781638599932194,0.42582711577415466,-0.9047768712043762
9.080402612686157,-0.009796945035267932,0.8900608404862849,50.45547824800337,-0.03369140625,0.05224609375,0.9345703125,-7.4462890625,1.708984375,-2.62451171875,0.0,0.0,0.0,-0.0033878388348966837,-0.006989903282374144,0.426205039024353,-0.904593288898468
9.100160360336304,-0.0975725206458717,0.9441559387127859,50.52034113945639,-0.0302734375,0.01318359375,1.109375,-1.0986328125,-3.90625,-3.84521484375,0.0,0.0,0.0,-0.004285951144993305,-0.007088040467351675,0.4267209768295288,-0.9043454527854919
9.120067834854126,-0.019570611398462286,0.9276761863494261,50.623463335545246,-0.01708984375,-0.00537109375,1.0849609375,2.8076171875,-5.7373046875,-5.37109375,0.0,0.0,0.0,-0.003615521127358079,-0.007245197426527739,0.4275301992893219,-0.9039648771286011
9.140236139297485,-0.16332232283479453,0.9860946875988393,50.666022244263594,-0.04248046875,0.03466796875,0.8974609375,-1.8310546875,-3.47900390625,2.25830078125,0.0,0.0,0.0,-0.004970125388354063,-0.00716786365956068,0.42787349224090576,-0.9037964940071106
9.155910730361938,-0.3357785829414531,0.8917990169083474,50.51144481806245,0.0146484375,0.01953125,1.044921875,2.62451171875,-3.60107421875,10.498046875,0.0,0.0,0.0,-0.005970433820039034,-0.0057882461696863174,0.42666491866111755,-0.9043716192245483
9.176306962966919,-0.4766724455119901,0.6741558394186844,50.18336009637547,0.00634765625,0.0322265625,1.0556640625,-0.6103515625,-3.72314453125,19.53125,0.0,0.0,0.0,-0.006261927075684071,-0.0035638734698295593,0.4240790605545044,-0.9055965542793274
9.196130990982056,-0.6828432530735589,0.4524981115226407,49.68315802269876,-0.005859375,0.02001953125,0.9912109375,0.1220703125,-9.70458984375,28.50341796875,0.0,0.0,0.0,-0.007066390011459589,-0.001079970970749855,0.42012137174606323,-0.9074398279190063
9.220250129699707,-0.817072265076765,0.1652729421524282,49.00286435117632,0.03271484375,0.03466796875,0.93359375,-0.9765625,-4.33349609375,36.865234375,0.0,0.0,0.0,-0.007086281664669514,0.0016446521040052176,0.41471436619758606,-0.9099226593971252
9.241310358047485,-0.8701218107517251,-0.10006986859211713,48.1337910811839,0.01708984375,0.03759765625,0.94921875,-4.638671875,-6.103515625,47.8515625,0.0,0.0,0.0,-0.006576981395483017,0.0038938538637012243,0.40778496861457825,-0.9130460619926453
9.260634183883667,-0.8473578574651305,-0.39294902720260516,47.10214564856683,0.0390625,-0.0107421875,1.05712890625,5.126953125,-4.7607421875,53.5888671875,0.0,0.0,0.0,-0.005408429075032473,0.006097990088164806,0.3995298743247986,-0.9166839122772217
9.28024172782898,-0.8954634133980592,-0.7157029730053729,46.028252080838655,0.04833984375,0.0380859375,0.9716796875,-1.0986328125,-5.126953125,54.0771484375,0.0,0.0,0.0,-0.0047505078837275505,0.008803379721939564,0.3908935785293579,-0.920381486415863
9.300387620925903,-0.887496638061474,-0.9397363794329645,44.95627438117266,0.09521484375,0.05029296875,1.0,-6.591796875,-0.91552734375,52.734375,0.0,0.0,0.0,-0.004020875319838524,0.010538359172642231,0.38224783539772034,-0.9239910840988159
9.3215970993042,-0.8386635068993803,-1.2019227956774243,43.89757456925317,0.08935546875,0.01513671875,1.0791015625,-1.5869140625,-2.38037109375,53.22265625,0.0,0.0,0.0,-0.002867526840418577,0.012463472783565521,0.3736759126186371,-0.9274711608886719
9.340421199798584,-0.8391437545753968,-1.4267829751597048,42.83957485172362,0.07958984375,0.02978515625,1.0205078125,0.1220703125,0.0,52.79541015625,0.0,0.0,0.0,-0.002269669668748975,0.014264507219195366,0.36507534980773926,-0.9308659434318542
9.360792398452759,-0.9198469752915932,-1.6588721628265035,41.80266334325647,0.06884765625,0.03125,1.0478515625,3.11279296875,-3.0517578125,51.57470703125,0.0,0.0,0.0,-0.002333848737180233,0.016386324539780617,0.356602281332016,-0.934109628200531
9.382549524307251,-1.0309533423550732,-1.9763180111075398,40.54224072438983,0.0771484375,0.03125,0.9716796875,2.50244140625,-3.47900390625,50.35400390625,0.0,0.0,0.0,-0.002463392447680235,0.019293516874313354,0.34625178575515747,-0.9379400014877319
9.400562047958374,-1.0705366364728244,-2.1610370621159496,39.79434525555718,0.08203125,0.01953125,1.0068359375,4.0283203125,-3.0517578125,49.4384765625,0.0,0.0,0.0,-0.00236527225933969,0.020909862592816353,0.34009212255477905,-0.9401566982269287
9.420373439788818,-1.1501490012733755,-2.3852324720929174,38.816135807911714,0.08251953125,0.0419921875,0.9716796875,0.54931640625,0.54931640625,49.01123046875,0.0,0.0,0.0,-0.002548517659306526,0.02296430990099907,0.3320081830024719,-0.9429935812950134
9.441430568695068,-1.189543611415305,-2.5412316448584815,37.853813380275696,0.07470703125,0.03515625,1.00634765625,-1.46484375,2.197265625,47.79052734375,0.0,0.0,0.0,-0.0026246747002005577,0.024340791627764702,0.3240467309951782,-0.9457242488861084
9.46059513092041,-1.071395746204365,-2.6270316274385355,36.92899552137221,0.05908203125,-0.005859375,1.00537109375,1.3427734375,4.08935546875,44.37255859375,0.0,0.0,0.0,-0.0016060719499364495,0.024702519178390503,0.3164166212081909,-0.9482972621917725
9.476004600524902,-0.9311085698507691,-2.42854291506338,36.10140882039845,0.0146484375,0.0205078125,0.87939453125,-2.99072265625,2.197265625,37.65869140625,0.0,0.0,0.0,-0.0011575886746868491,0.02266494184732437,0.30961498618125916,-0.9505912661552429
9.495663166046143,-0.9371437890344158,-2.1959809502399694,35.48494668176436,0.0390625,0.04443359375,1.037109375,-6.4697265625,11.65771484375,26.4892578125,0.0,0.0,0.0,-0.0019482879433780909,0.020742032676935196,0.3045237958431244,-0.9522768259048462
9.519185066223145,-0.9352844834762913,-1.8096345014893718,35.03930757427229,-0.064453125,0.0048828125,1.15966796875,2.3193359375,2.50244140625,12.02392578125,0.0,0.0,0.0,-0.0030286721885204315,0.017515040934085846,0.3008624315261841,-0.9535019993782043
9.540518283843994,-0.9993000045854128,-1.668669962469181,34.94334341643361,-0.083984375,0.029296875,1.00244140625,5.126953125,0.732421875,4.45556640625,0.0,0.0,0.0,-0.003945575561374426,0.01650696061551571,0.3000698387622833,-0.9537662863731384
9.56038236618042,-1.054546950182413,-1.4893305392058025,34.91359111240904,-0.099609375,0.03369140625,0.8759765625,1.46484375,-1.8310546875,-0.30517578125,0.0,0.0,0.0,-0.004879340995103121,0.015157797373831272,0.2998344302177429,-0.9538583755493164
9.580341339111328,-1.0282388757685221,-1.3550919222490758,34.92641137748115,-0.107421875,0.04052734375,0.919921875,-5.18798828125,-6.4697265625,-0.732421875,0.0,0.0,0.0,-0.005010293796658516,0.013972190208733082,0.2999589741230011,-0.9538366794586182
9.600295543670654,-0.9797782567204585,-1.295479311833674,34.89891986607185,-0.10107421875,0.00390625,1.0576171875,0.67138671875,-9.46044921875,2.685546875,0.0,0.0,0.0,-0.004766266327351332,0.013348020613193512,0.29974207282066345,-0.953914999961853
9.620322704315186,-0.9993672392600551,-1.2322340012751773,34.82409172861978,-0.03466796875,0.01416015625,1.02392578125,2.38037109375,-7.32421875,3.72314453125,0.0,0.0,0.0,-0.005103274714201689,0.012869478203356266,0.29912325739860535,-0.9541140198707581
9.640405416488647,-1.0915335984767955,-1.101491587399851,34.72380064594189,0.00634765625,0.04736328125,0.9716796875,-1.5869140625,0.9765625,5.2490234375,0.0,0.0,0.0,-0.006222679279744625,0.012016094289720058,0.2982914447784424,-0.9543789625167847
9.660142421722412,-1.17130070975073,-0.9229094613606976,34.59627759904317,-0.0458984375,0.01904296875,1.05517578125,0.91552734375,-5.79833984375,6.4697265625,0.0,0.0,0.0,-0.0073640961199998856,0.010728302411735058,0.29724010825157166,-0.9547140598297119
9.680869817733765,-1.1836576958980467,-0.8100047801939473,34.43495536103664,-0.04931640625,0.04296875,0.9873046875,-0.91552734375,-4.69970703125,7.568359375,0.0,0.0,0.0,-0.007773881778120995,0.009808803908526897,0.29590651392936707,-0.955134928226471
9.700414419174194,-1.2351128192886318,-0.7895637849162445,34.301046087263956,0.01708984375,0.021484375,1.0439453125,-0.67138671875,-1.3427734375,4.8828125,0.0,0.0,0.0,-0.008266988210380077,0.009761651046574116,0.2947879433631897,-0.9554771184921265
9.720824241638184,-1.324151698917447,-0.6140334194147645,34.1985386082004,-0.0078125,0.03955078125,1.0224609375,-0.8544921875,-1.89208984375,3.662109375,0.0,0.0,0.0,-0.009468790143728256,0.008518715389072895,0.2939451038837433,-0.9557374119758606
9.740447044372559,-1.4379372076828645,-0.4908665391026286,34.10659401668828,-0.021484375,0.03125,1.04931640625,1.40380859375,-5.615234375,3.84521484375,0.0,0.0,0.0,-0.010740106925368309,0.007774760946631432,0.29318395256996155,-0.9559641480445862
9.760630130767822,-1.6177599735517274,-0.5012329519937098,34.00250534883187,0.0087890625,0.04638671875,1.037109375,6.103515625,-10.07080078125,6.65283203125,0.0,0.0,0.0,-0.012221259996294975,0.008310208097100258,0.29230159521102905,-0.956212043762207
9.7825448513031,-1.9033594244973446,-0.646329915544317,33.71858121522361,0.01171875,0.1396484375,0.92626953125,2.38037109375,-4.69970703125,19.287109375,0.0,0.0,0.0,-0.014259487390518188,0.010214054025709629,0.2898879945278168,-0.956899881362915
