time,orientation.x,orientation.y,orientation.z,orientation.w,orientation_covariance,angular_velocity.x,angular_velocity.y,angular_velocity.z,angular_velocity_covariance,linear_acceleration.x,linear_acceleration.y,linear_acceleration.z,linear_acceleration_covariance
0.22046446800231934,-0.023747585713863373,-0.00040126690873876214,0.6930559873580933,-0.7204923033714294,[0. 0. 0. 0. 0. 0. 0. 0. 0.],-0.1220703125,-0.6103515625,0.06103515625,[0. 0. 0. 0. 0. 0. 0. 0. 0.],-0.033203125,0.0341796875,1.00244140625,[0. 0. 0. 0. 0. 0. 0. 0. 0.]
0.24576020240783691,-0.02337397262454033,0.0005765605019405484,0.6930651068687439,-0.7204956412315369,[0. 0. 0. 0. 0. 0. 0. 0. 0.],0.1220703125,-0.42724609375,0.0,[0. 0. 0. 0. 0. 0. 0. 0. 0.],-0.03173828125,0.0341796875,1.00390625,[0. 0. 0. 0. 0. 0. 0. 0. 0.]
0.25525951385498047,-0.02292829193174839,0.00040390706271864474,0.6930881142616272,-0.7204881310462952,[0. 0. 0. 0. 0. 0. 0. 0. 0.],0.0,-0.732421875,-0.18310546875,[0. 0. 0. 0. 0. 0. 0. 0. 0.],-0.03125,0.033203125,1.00537109375,[0. 0. 0. 0. 0. 0. 0. 0. 0.]
0.28079652786254883,-0.023437581956386566,0.00026836650795303285,0.6930952072143555,-0.7204648852348328,[0. 0. 0. 0. 0. 0. 0. 0. 0.],-0.30517578125,-0.54931640625,-0.18310546875,[0. 0. 0. 0. 0. 0. 0. 0. 0.],-0.0322265625,0.03466796875,1.00341796875,[0. 0. 0. 0. 0. 0. 0. 0. 0.]
0.2972862720489502,-0.023305749520659447,0.00020613905508071184,0.6931259632110596,-0.7204395532608032,[0. 0. 0. 0. 0. 0. 0. 0. 0.],-0.18310546875,-0.54931640625,-0.06103515625,[0. 0. 0. 0. 0. 0. 0. 0. 0.],-0.0322265625,0.0341796875,1.00390625,[0. 0. 0. 0. 0. 0. 0. 0. 0.]
0.3262593746185303,-0.02283603325486183,-0.0005799380596727133,0.6931743621826172,-0.7204079627990723,[0. 0. 0. 0. 0. 0. 0. 0. 0.],0.244140625,-0.6103515625,-0.18310546875,[0. 0. 0. 0. 0. 0. 0. 0. 0.],-0.03271484375,0.0322265625,1.00390625,[0. 0. 0. 0. 0. 0. 0. 0. 0.]
0.3412964344024658,-0.02149241603910923,0.00032567145535722375,0.6931963562965393,-0.7204281687736511,[0. 0. 0. 0. 0. 0. 0. 0. 0.],0.06103515625,-0.9765625,-0.244140625,[0. 0. 0. 0. 0. 0. 0. 0. 0.],-0.02978515625,0.03173828125,1.0048828125,[0. 0. 0. 0. 0. 0. 0. 0. 0.]
0.35544443130493164,-0.022801386192440987,0.0008277695160359144,0.6931812763214111,-0.720402181148529,[0. 0. 0. 0. 0. 0. 0. 0. 0.],-0.244140625,-1.03759765625,-0.1220703125,[0. 0. 0. 0. 0. 0. 0. 0. 0.],-0.03076171875,0.0341796875,1.0029296875,[0. 0. 0. 0. 0. 0. 0. 0. 0.]
0.3753840923309326,-0.023161103948950768,5.139607674209401e-05,0.6932085156440735,-0.7203649878501892,[0. 0. 0. 0. 0. 0. 0. 0. 0.],-0.06103515625,-0.732421875,-0.1220703125,[0. 0. 0. 0. 0. 0. 0. 0. 0.],-0.03173828125,0.0341796875,1.0029296875,[0. 0. 0. 0. 0. 0. 0. 0. 0.]
0.40056586265563965,-0.023400960490107536,0.0005763061344623566,0.6932150721549988,-0.7203505635261536,[0. 0. 0. 0. 0. 0. 0. 0. 0.],0.0,-0.244140625,-0.06103515625,[0. 0. 0. 0. 0. 0. 0. 0. 0.],-0.03173828125,0.03466796875,1.00341796875,[0. 0. 0. 0. 0. 0. 0. 0. 0.]
0.42122316360473633,-0.02264564111828804,0.00020777055760845542,0.6932550668716431,-0.7203364372253418,[0. 0. 0. 0. 0. 0. 0. 0. 0.],-0.244140625,-0.67138671875,-0.1220703125,[0. 0. 0. 0. 0. 0. 0. 0. 0.],-0.0322265625,0.033203125,1.0048828125,[0. 0. 0. 0. 0. 0. 0. 0. 0.]
0.4434335231781006,-0.023247143253684044,-0.0003871285589411855,0.6932743787765503,-0.7202985882759094,[0. 0. 0. 0. 0. 0. 0. 0. 0.],-0.244140625,-0.91552734375,-0.1220703125,[0. 0. 0. 0. 0. 0. 0. 0. 0.],-0.03271484375,0.03271484375,1.00341796875,[0. 0. 0. 0. 0. 0. 0. 0. 0.]
0.4572474956512451,-0.022875281050801277,0.001175763551145792,0.6932730674743652,-0.7203109860420227,[0. 0. 0. 0. 0. 0. 0. 0. 0.],0.06103515625,-0.79345703125,-0.244140625,[0. 0. 0. 0. 0. 0. 0. 0. 0.],-0.02978515625,0.03466796875,1.00341796875,[0. 0. 0. 0. 0. 0. 0. 0. 0.]
0.4808826446533203,-0.023289794102311134,0.0004533484752755612,0.6932972073554993,-0.7202752828598022,[0. 0. 0. 0. 0. 0. 0. 0. 0.],-0.06103515625,-0.48828125,-0.1220703125,[0. 0. 0. 0. 0. 0. 0. 0. 0.],-0.03173828125,0.03466796875,1.0029296875,[0. 0. 0. 0. 0. 0. 0. 0. 0.]
0.5084645748138428,-0.023708412423729897,-4.7889887355268e-05,0.6933131814002991,-0.7202463150024414,[0. 0. 0. 0. 0. 0. 0. 0. 0.],-0.3662109375,-0.732421875,-0.06103515625,[0. 0. 0. 0. 0. 0. 0. 0. 0.],-0.033203125,0.0341796875,1.0048828125,[0. 0. 0. 0. 0. 0. 0. 0. 0.]
0.5203959941864014,-0.02251564711332321,0.0005574042443186045,0.6933434009552002,-0.7202553153038025,[0. 0. 0. 0. 0. 0. 0. 0. 0.],-0.06103515625,-0.54931640625,-0.1220703125,[0. 0. 0. 0. 0. 0. 0. 0. 0.],-0.03125,0.033203125,1.0048828125,[0. 0. 0. 0. 0. 0. 0. 0. 0.]
0.5443055629730225,-0.022874468937516212,-0.0003216087643522769,0.6933855414390564,-0.7202035784721375,[0. 0. 0. 0. 0. 0. 0. 0. 0.],0.3662109375,-0.732421875,-0.42724609375,[0. 0. 0. 0. 0. 0. 0. 0. 0.],-0.03173828125,0.03271484375,1.0029296875,[0. 0. 0. 0. 0. 0. 0. 0. 0.]
0.5565671920776367,-0.023215679451823235,0.0010240055853500962,0.6933692693710327,-0.7202076315879822,[0. 0. 0. 0. 0. 0. 0. 0. 0.],-0.244140625,-0.9765625,-0.30517578125,[0. 0. 0. 0. 0. 0. 0. 0. 0.],-0.03076171875,0.0341796875,1.00390625,[0. 0. 0. 0. 0. 0. 0. 0. 0.]
0.5801808834075928,-0.023378999903798103,0.0010581830283626914,0.6933895349502563,-0.7201827764511108,[0. 0. 0. 0. 0. 0. 0. 0. 0.],-0.30517578125,-0.67138671875,-0.18310546875,[0. 0. 0. 0. 0. 0. 0. 0. 0.],-0.03125,0.03564453125,1.00634765625,[0. 0. 0. 0. 0. 0. 0. 0. 0.]
0.6001954078674316,-0.02449721097946167,0.00037399877328425646,0.6934004426002502,-0.7201359272003174,[0. 0. 0. 0. 0. 0. 0. 0. 0.],0.18310546875,-0.18310546875,0.0,[0. 0. 0. 0. 0. 0. 0. 0. 0.],-0.033203125,0.03564453125,1.00390625,[0. 0. 0. 0. 0. 0. 0. 0. 0.]
0.6201999187469482,-0.023749642074108124,-0.00012793844507541507,0.6934491991996765,-0.72011399269104,[0. 0. 0. 0. 0. 0. 0. 0. 0.],0.18310546875,-0.48828125,-0.06103515625,[0. 0. 0. 0. 0. 0. 0. 0. 0.],-0.033203125,0.03369140625,1.00146484375,[0. 0. 0. 0. 0. 0. 0. 0. 0.]
0.6362898349761963,-0.023414693772792816,0.000347140827216208,0.6934685111045837,-0.7201062440872192,[0. 0. 0. 0. 0. 0. 0. 0. 0.],-0.06103515625,-1.15966796875,-0.244140625,[0. 0. 0. 0. 0. 0. 0. 0. 0.],-0.03173828125,0.0341796875,1.00341796875,[0. 0. 0. 0. 0. 0. 0. 0. 0.]
0.6618576049804688,-0.023302366957068443,0.00023642031010240316,0.693491518497467,-0.7200878858566284,[0. 0. 0. 0. 0. 0. 0. 0. 0.],-0.30517578125,-0.8544921875,-0.30517578125,[0. 0. 0. 0. 0. 0. 0. 0. 0.],-0.0322265625,0.0341796875,1.00244140625,[0. 0. 0. 0. 0. 0. 0. 0. 0.]
0.676440954208374,-0.023324862122535706,0.00022985227406024933,0.6935110688209534,-0.7200682759284973,[0. 0. 0. 0. 0. 0. 0. 0. 0.],0.18310546875,-0.18310546875,-0.1220703125,[0. 0. 0. 0. 0. 0. 0. 0. 0.],-0.0322265625,0.0341796875,1.00537109375,[0. 0. 0. 0. 0. 0. 0. 0. 0.]
0.7018299102783203,-0.022632166743278503,0.0007184789283201098,0.6935319900512695,-0.720069944858551,[0. 0. 0. 0. 0. 0. 0. 0. 0.],0.0,-0.3662109375,0.06103515625,[0. 0. 0. 0. 0. 0. 0. 0. 0.],-0.0302734375,0.03369140625,1.00439453125,[0. 0. 0. 0. 0. 0. 0. 0. 0.]
0.7203149795532227,-0.022650448605418205,-0.00044369095121510327,0.6935744285583496,-0.7200286984443665,[0. 0. 0. 0. 0. 0. 0. 0. 0.],-0.18310546875,-0.8544921875,-0.1220703125,[0. 0. 0. 0. 0. 0. 0. 0. 0.],-0.0322265625,0.0322265625,1.00390625,[0. 0. 0. 0. 0. 0. 0. 0. 0.]
0.7400674819946289,-0.023278985172510147,0.00019842250912915915,0.6935750246047974,-0.7200081944465637,[0. 0. 0. 0. 0. 0. 0. 0. 0.],-0.1220703125,-0.91552734375,-0.1220703125,[0. 0. 0. 0. 0. 0. 0. 0. 0.],-0.0322265625,0.03369140625,1.00439453125,[0. 0. 0. 0. 0. 0. 0. 0. 0.]
0.7605438232421875,-0.023870380595326424,0.000900925777386874,0.6935667395591736,-0.7199963331222534,[0. 0. 0. 0. 0. 0. 0. 0. 0.],0.06103515625,-0.732421875,-0.244140625,[0. 0. 0. 0. 0. 0. 0. 0. 0.],-0.0322265625,0.03564453125,1.00341796875,[0. 0. 0. 0. 0. 0. 0. 0. 0.]
0.7857577800750732,-0.02297167293727398,0.0005897486116737127,0.6936125755310059,-0.7199817299842834,[0. 0. 0. 0. 0. 0. 0. 0. 0.],-0.244140625,-0.54931640625,-0.1220703125,[0. 0. 0. 0. 0. 0. 0. 0. 0.],-0.03125,0.0341796875,1.0048828125,[0. 0. 0. 0. 0. 0. 0. 0. 0.]
0.7984075546264648,-0.022797230631113052,0.00010101061343448237,0.6936454176902771,-0.7199558019638062,[0. 0. 0. 0. 0. 0. 0. 0. 0.],-0.18310546875,-0.6103515625,-0.06103515625,[0. 0. 0. 0. 0. 0. 0. 0. 0.],-0.03173828125,0.033203125,1.005859375,[0. 0. 0. 0. 0. 0. 0. 0. 0.]
0.816171407699585,-0.022990034893155098,0.0010302959708496928,0.6936485171318054,-0.7199459075927734,[0. 0. 0. 0. 0. 0. 0. 0. 0.],0.1220703125,-0.79345703125,-0.18310546875,[0. 0. 0. 0. 0. 0. 0. 0. 0.],-0.03125,0.03466796875,1.0029296875,[0. 0. 0. 0. 0. 0. 0. 0. 0.]
0.840111255645752,-0.021930253133177757,0.0004985149134881794,0.6936819553375244,-0.719947338104248,[0. 0. 0. 0. 0. 0. 0. 0. 0.],0.0,-0.8544921875,-0.06103515625,[0. 0. 0. 0. 0. 0. 0. 0. 0.],-0.0302734375,0.033203125,1.0048828125,[0. 0. 0. 0. 0. 0. 0. 0. 0.]
0.8602964878082275,-0.02312628924846649,0.00034475448774173856,0.6936820149421692,-0.7199099063873291,[0. 0. 0. 0. 0. 0. 0. 0. 0.],-0.30517578125,-1.03759765625,-0.244140625,[0. 0. 0. 0. 0. 0. 0. 0. 0.],-0.03173828125,0.0341796875,1.00537109375,[0. 0. 0. 0. 0. 0. 0. 0. 0.]
0.8798589706420898,-0.02355392463505268,0.00047382910270243883,0.6937007308006287,-0.7198779582977295,[0. 0. 0. 0. 0. 0. 0. 0. 0.],0.0,-0.91552734375,-0.244140625,[0. 0. 0. 0. 0. 0. 0. 0. 0.],-0.0322265625,0.03515625,1.00390625,[0. 0. 0. 0. 0. 0. 0. 0. 0.]
0.9004714488983154,-0.022998802363872528,0.0008155024261213839,0.6937091946601868,-0.7198874354362488,[0. 0. 0. 0. 0. 0. 0. 0. 0.],0.0,-0.06103515625,0.0,[0. 0. 0. 0. 0. 0. 0. 0. 0.],-0.03125,0.03369140625,1.0048828125,[0. 0. 0. 0. 0. 0. 0. 0. 0.]
0.9204156398773193,-0.02313910983502865,0.00024208480317611247,0.6937441229820251,-0.7198497653007507,[0. 0. 0. 0. 0. 0. 0. 0. 0.],-0.18310546875,-0.6103515625,-0.18310546875,[0. 0. 0. 0. 0. 0. 0. 0. 0.],-0.03173828125,0.03369140625,1.0029296875,[0. 0. 0. 0. 0. 0. 0. 0. 0.]
0.9379675388336182,-0.02284504659473896,-0.0005124000599607825,0.6937867999076843,-0.7198179364204407,[0. 0. 0. 0. 0. 0. 0. 0. 0.],-0.18310546875,-0.9765625,-0.244140625,[0. 0. 0. 0. 0. 0. 0. 0. 0.],-0.03271484375,0.03271484375,1.0029296875,[0. 0. 0. 0. 0. 0. 0. 0. 0.]
0.9600591659545898,-0.022315174341201782,0.0006217667832970619,0.6937859058380127,-0.7198352813720703,[0. 0. 0. 0. 0. 0. 0. 0. 0.],0.0,-0.732421875,-0.1220703125,[0. 0. 0. 0. 0. 0. 0. 0. 0.],-0.0302734375,0.033203125,1.0048828125,[0. 0. 0. 0. 0. 0. 0. 0. 0.]
0.980114221572876,-0.0226229727268219,-5.767359471064992e-05,0.6938077807426453,-0.7198048233985901,[0. 0. 0. 0. 0. 0. 0. 0. 0.],0.06103515625,-0.18310546875,-0.1220703125,[0. 0. 0. 0. 0. 0. 0. 0. 0.],-0.03125,0.033203125,1.0048828125,[0. 0. 0. 0. 0. 0. 0. 0. 0.]
1.002136468887329,-0.023404119536280632,0.0002572078083176166,0.6938081979751587,-0.719779372215271,[0. 0. 0. 0. 0. 0. 0. 0. 0.],-0.3662109375,-0.48828125,0.0,[0. 0. 0. 0. 0. 0. 0. 0. 0.],-0.0322265625,0.0341796875,1.0029296875,[0. 0. 0. 0. 0. 0. 0. 0. 0.]
1.0192158222198486,-0.02248089760541916,0.0007104849792085588,0.6938369870185852,-0.7197808623313904,[0. 0. 0. 0. 0. 0. 0. 0. 0.],-0.18310546875,-0.732421875,0.0,[0. 0. 0. 0. 0. 0. 0. 0. 0.],-0.0302734375,0.033203125,1.001953125,[0. 0. 0. 0. 0. 0. 0. 0. 0.]
1.0421690940856934,-0.022588085383176804,-0.00036065722815692425,0.6938726902008057,-0.7197432518005371,[0. 0. 0. 0. 0. 0. 0. 0. 0.],0.1220703125,-0.79345703125,-0.18310546875,[0. 0. 0. 0. 0. 0. 0. 0. 0.],-0.0322265625,0.03271484375,1.00537109375,[0. 0. 0. 0. 0. 0. 0. 0. 0.]
1.0623095035552979,-0.023883743211627007,0.00014048113371245563,0.6938514113426208,-0.7197221517562866,[0. 0. 0. 0. 0. 0. 0. 0. 0.],0.0,-0.6103515625,-0.06103515625,[0. 0. 0. 0. 0. 0. 0. 0. 0.],-0.03271484375,0.03466796875,1.00244140625,[0. 0. 0. 0. 0. 0. 0. 0. 0.]
1.076158046722412,-0.023868529126048088,0.0004327023634687066,0.6938661336898804,-0.7197082042694092,[0. 0. 0. 0. 0. 0. 0. 0. 0.],-0.18310546875,-0.48828125,-0.06103515625,[0. 0. 0. 0. 0. 0. 0. 0. 0.],-0.03271484375,0.03515625,1.00390625,[0. 0. 0. 0. 0. 0. 0. 0. 0.]
1.1001758575439453,-0.02335982955992222,-9.609584958525375e-05,0.6939035058021545,-0.7196890711784363,[0. 0. 0. 0. 0. 0. 0. 0. 0.],0.06103515625,-0.3662109375,-0.06103515625,[0. 0. 0. 0. 0. 0. 0. 0. 0.],-0.03271484375,0.03369140625,1.00390625,[0. 0. 0. 0. 0. 0. 0. 0. 0.]
1.1174771785736084,-0.023822814226150513,3.0294651878648438e-05,0.6939075589179993,-0.7196700572967529,[0. 0. 0. 0. 0. 0. 0. 0. 0.],0.06103515625,-0.54931640625,-0.244140625,[0. 0. 0. 0. 0. 0. 0. 0. 0.],-0.033203125,0.0341796875,1.0029296875,[0. 0. 0. 0. 0. 0. 0. 0. 0.]
1.1402873992919922,-0.022784557193517685,0.00111013266723603,0.6939249634742737,-0.719685971736908,[0. 0. 0. 0. 0. 0. 0. 0. 0.],-0.18310546875,-1.03759765625,-0.30517578125,[0. 0. 0. 0. 0. 0. 0. 0. 0.],-0.03076171875,0.03466796875,1.0048828125,[0. 0. 0. 0. 0. 0. 0. 0. 0.]
1.160447597503662,-0.024213964119553566,0.000714606256224215,0.6939310431480408,-0.719633936882019,[0. 0. 0. 0. 0. 0. 0. 0. 0.],-0.3662109375,-0.79345703125,-0.244140625,[0. 0. 0. 0. 0. 0. 0. 0. 0.],-0.0322265625,0.03564453125,1.005859375,[0. 0. 0. 0. 0. 0. 0. 0. 0.]
1.1774394512176514,-0.024136584252119064,0.00026647307095117867,0.693959653377533,-0.719609260559082,[0. 0. 0. 0. 0. 0. 0. 0. 0.],0.06103515625,-0.244140625,0.0,[0. 0. 0. 0. 0. 0. 0. 0. 0.],-0.033203125,0.03515625,1.00048828125,[0. 0. 0. 0. 0. 0. 0. 0. 0.]
1.2008485794067383,-0.023049358278512955,0.0006011004443280399,0.6939955949783325,-0.7196100354194641,[0. 0. 0. 0. 0. 0. 0. 0. 0.],0.06103515625,-0.3662109375,-0.1220703125,[0. 0. 0. 0. 0. 0. 0. 0. 0.],-0.03173828125,0.0341796875,1.00341796875,[0. 0. 0. 0. 0. 0. 0. 0. 0.]
1.220229148864746,-0.022642526775598526,0.00028954556910321116,0.6940359473228455,-0.7195841670036316,[0. 0. 0. 0. 0. 0. 0. 0. 0.],-0.1220703125,-1.0986328125,-0.30517578125,[0. 0. 0. 0. 0. 0. 0. 0. 0.],-0.03125,0.033203125,1.00439453125,[0. 0. 0. 0. 0. 0. 0. 0. 0.]
1.240168571472168,-0.022494100034236908,0.0008222738979384303,0.6940544247627258,-0.7195706963539124,[0. 0. 0. 0. 0. 0. 0. 0. 0.],-0.18310546875,-1.0986328125,-0.30517578125,[0. 0. 0. 0. 0. 0. 0. 0. 0.],-0.0302734375,0.03369140625,1.00390625,[0. 0. 0. 0. 0. 0. 0. 0. 0.]
1.2603082656860352,-0.024096354842185974,0.000557312392629683,0.6940492987632751,-0.7195239067077637,[0. 0. 0. 0. 0. 0. 0. 0. 0.],0.1220703125,-0.42724609375,0.0,[0. 0. 0. 0. 0. 0. 0. 0. 0.],-0.0322265625,0.03564453125,1.00439453125,[0. 0. 0. 0. 0. 0. 0. 0. 0.]
1.275252342224121,-0.02260245569050312,-0.000458581285784021,0.6941024661064148,-0.7195212244987488,[0. 0. 0. 0. 0. 0. 0. 0. 0.],-0.244140625,-0.244140625,0.0,[0. 0. 0. 0. 0. 0. 0. 0. 0.],-0.0322265625,0.0322265625,1.00439453125,[0. 0. 0. 0. 0. 0. 0. 0. 0.]
1.301440715789795,-0.023264581337571144,-0.00043057947186753154,0.6941120028495789,-0.7194908261299133,[0. 0. 0. 0. 0. 0. 0. 0. 0.],-0.1220703125,-0.30517578125,0.06103515625,[0. 0. 0. 0. 0. 0. 0. 0. 0.],-0.033203125,0.03369140625,1.00390625,[0. 0. 0. 0. 0. 0. 0. 0. 0.]
1.3205761909484863,-0.023949038237333298,0.00013585643318947405,0.6941112279891968,-0.7194693684577942,[0. 0. 0. 0. 0. 0. 0. 0. 0.],0.06103515625,-0.42724609375,0.0,[0. 0. 0. 0. 0. 0. 0. 0. 0.],-0.033203125,0.03466796875,1.0029296875,[0. 0. 0. 0. 0. 0. 0. 0. 0.]
1.342789888381958,-0.023226920515298843,0.0001226306485477835,0.6941368579864502,-0.7194682359695435,[0. 0. 0. 0. 0. 0. 0. 0. 0.],0.06103515625,-0.79345703125,-0.1220703125,[0. 0. 0. 0. 0. 0. 0. 0. 0.],-0.0322265625,0.0341796875,1.00439453125,[0. 0. 0. 0. 0. 0. 0. 0. 0.]
1.3553504943847656,-0.023324668407440186,0.001317775808274746,0.6941320300102234,-0.7194684743881226,[0. 0. 0. 0. 0. 0. 0. 0. 0.],-0.3662109375,-1.03759765625,-0.30517578125,[0. 0. 0. 0. 0. 0. 0. 0. 0.],-0.03076171875,0.03564453125,1.00390625,[0. 0. 0. 0. 0. 0. 0. 0. 0.]
1.3802602291107178,-0.02328324504196644,-0.00025688044843263924,0.6941770911216736,-0.7194276452064514,[0. 0. 0. 0. 0. 0. 0. 0. 0.],-0.30517578125,-0.732421875,-0.1220703125,[0. 0. 0. 0. 0. 0. 0. 0. 0.],-0.03271484375,0.03369140625,1.0048828125,[0. 0. 0. 0. 0. 0. 0. 0. 0.]
1.4001617431640625,-0.023113850504159927,0.00033846290898509324,0.6941840648651123,-0.7194262742996216,[0. 0. 0. 0. 0. 0. 0. 0. 0.],0.1220703125,-0.18310546875,0.0,[0. 0. 0. 0. 0. 0. 0. 0. 0.],-0.03173828125,0.0341796875,1.0048828125,[0. 0. 0. 0. 0. 0. 0. 0. 0.]
1.4202101230621338,-0.023204397410154343,0.00029136083321645856,0.6942075490951538,-0.7194007039070129,[0. 0. 0. 0. 0. 0. 0. 0. 0.],0.30517578125,-0.67138671875,-0.18310546875,[0. 0. 0. 0. 0. 0. 0. 0. 0.],-0.03173828125,0.0341796875,1.0029296875,[0. 0. 0. 0. 0. 0. 0. 0. 0.]
1.4401144981384277,-0.023066304624080658,0.0003709612356033176,0.6942357420921326,-0.7193779349327087,[0. 0. 0. 0. 0. 0. 0. 0. 0.],-0.18310546875,-1.220703125,-0.3662109375,[0. 0. 0. 0. 0. 0. 0. 0. 0.],-0.03173828125,0.03369140625,1.00390625,[0. 0. 0. 0. 0. 0. 0. 0. 0.]
1.4601447582244873,-0.022357327863574028,0.000835681043099612,0.6942594647407532,-0.7193771004676819,[0. 0. 0. 0. 0. 0. 0. 0. 0.],-0.1220703125,-0.79345703125,-0.30517578125,[0. 0. 0. 0. 0. 0. 0. 0. 0.],-0.0302734375,0.03369140625,1.00439453125,[0. 0. 0. 0. 0. 0. 0. 0. 0.]
1.4800848960876465,-0.023664439097046852,0.0004471850406844169,0.6942668557167053,-0.7193284630775452,[0. 0. 0. 0. 0. 0. 0. 0. 0.],-0.06103515625,-0.30517578125,-0.1220703125,[0. 0. 0. 0. 0. 0. 0. 0. 0.],-0.0322265625,0.03466796875,1.005859375,[0. 0. 0. 0. 0. 0. 0. 0. 0.]
1.4961521625518799,-0.023758048191666603,0.0005175169208087027,0.6942896842956543,-0.7193031907081604,[0. 0. 0. 0. 0. 0. 0. 0. 0.],-0.1220703125,-0.42724609375,-0.06103515625,[0. 0. 0. 0. 0. 0. 0. 0. 0.],-0.03271484375,0.03466796875,1.00390625,[0. 0. 0. 0. 0. 0. 0. 0. 0.]
1.5170903205871582,-0.022468196228146553,0.00034480224712751806,0.6943361759185791,-0.7192999124526978,[0. 0. 0. 0. 0. 0. 0. 0. 0.],-0.30517578125,-0.8544921875,-0.1220703125,[0. 0. 0. 0. 0. 0. 0. 0. 0.],-0.03125,0.033203125,1.00341796875,[0. 0. 0. 0. 0. 0. 0. 0. 0.]
1.5411622524261475,-0.022130005061626434,0.000146020800457336,0.6943697929382324,-0.7192780375480652,[0. 0. 0. 0. 0. 0. 0. 0. 0.],0.06103515625,-0.8544921875,-0.30517578125,[0. 0. 0. 0. 0. 0. 0. 0. 0.],-0.03076171875,0.0322265625,1.00390625,[0. 0. 0. 0. 0. 0. 0. 0. 0.]
1.5557148456573486,-0.022999033331871033,0.00021003787696827203,0.6943780779838562,-0.7192427515983582,[0. 0. 0. 0. 0. 0. 0. 0. 0.],0.0,-0.3662109375,-0.30517578125,[0. 0. 0. 0. 0. 0. 0. 0. 0.],-0.03173828125,0.033203125,1.00439453125,[0. 0. 0. 0. 0. 0. 0. 0. 0.]
1.5816693305969238,-0.024500388652086258,5.0847138481913134e-06,0.6943790912628174,-0.7191922068595886,[0. 0. 0. 0. 0. 0. 0. 0. 0.],-0.18310546875,-0.54931640625,-0.06103515625,[0. 0. 0. 0. 0. 0. 0. 0. 0.],-0.03369140625,0.03564453125,1.0048828125,[0. 0. 0. 0. 0. 0. 0. 0. 0.]
1.597125768661499,-0.0227197352796793,0.00026932964101433754,0.6944299340248108,-0.7192016243934631,[0. 0. 0. 0. 0. 0. 0. 0. 0.],-0.1220703125,-0.54931640625,0.0,[0. 0. 0. 0. 0. 0. 0. 0. 0.],-0.03125,0.033203125,1.00341796875,[0. 0. 0. 0. 0. 0. 0. 0. 0.]
1.6177794933319092,-0.02255336381494999,0.00014137942343950272,0.6944558620452881,-0.7191817760467529,[0. 0. 0. 0. 0. 0. 0. 0. 0.],0.1220703125,-0.732421875,-0.18310546875,[0. 0. 0. 0. 0. 0. 0. 0. 0.],-0.03125,0.03271484375,1.00341796875,[0. 0. 0. 0. 0. 0. 0. 0. 0.]
1.6404433250427246,-0.02433048002421856,0.00025431145331822336,0.6944409012794495,-0.7191383242607117,[0. 0. 0. 0. 0. 0. 0. 0. 0.],0.06103515625,-0.8544921875,-0.18310546875,[0. 0. 0. 0. 0. 0. 0. 0. 0.],-0.033203125,0.03515625,1.00390625,[0. 0. 0. 0. 0. 0. 0. 0. 0.]
1.6607143878936768,-0.023365214467048645,0.00043923003249801695,0.6944669485092163,-0.7191451787948608,[0. 0. 0. 0. 0. 0. 0. 0. 0.],-0.30517578125,-0.67138671875,-0.244140625,[0. 0. 0. 0. 0. 0. 0. 0. 0.],-0.0322265625,0.03466796875,1.00439453125,[0. 0. 0. 0. 0. 0. 0. 0. 0.]
1.6812872886657715,-0.023181453347206116,0.0005080628907307982,0.6944940090179443,-0.7191247344017029,[0. 0. 0. 0. 0. 0. 0. 0. 0.],-0.06103515625,-0.3662109375,0.0,[0. 0. 0. 0. 0. 0. 0. 0. 0.],-0.03173828125,0.0341796875,1.0048828125,[0. 0. 0. 0. 0. 0. 0. 0. 0.]
1.7005271911621094,-0.023661917075514793,0.0013977180933579803,0.6944887638092041,-0.7191130518913269,[0. 0. 0. 0. 0. 0. 0. 0. 0.],0.06103515625,-0.42724609375,-0.06103515625,[0. 0. 0. 0. 0. 0. 0. 0. 0.],-0.03125,0.03564453125,1.00537109375,[0. 0. 0. 0. 0. 0. 0. 0. 0.]
1.7201690673828125,-0.02302589640021324,0.000638080236967653,0.69452965259552,-0.7190952897071838,[0. 0. 0. 0. 0. 0. 0. 0. 0.],-0.06103515625,-1.0986328125,-0.244140625,[0. 0. 0. 0. 0. 0. 0. 0. 0.],-0.03125,0.0341796875,1.0029296875,[0. 0. 0. 0. 0. 0. 0. 0. 0.]
1.7400670051574707,-0.0225283931940794,0.000650397501885891,0.694552481174469,-0.7190890312194824,[0. 0. 0. 0. 0. 0. 0. 0. 0.],-0.30517578125,-1.03759765625,-0.18310546875,[0. 0. 0. 0. 0. 0. 0. 0. 0.],-0.03076171875,0.03271484375,1.00341796875,[0. 0. 0. 0. 0. 0. 0. 0. 0.]
1.7603857517242432,-0.023139750584959984,0.0007248460315167904,0.6945745944976807,-0.7190480828285217,[0. 0. 0. 0. 0. 0. 0. 0. 0.],0.06103515625,-0.732421875,-0.244140625,[0. 0. 0. 0. 0. 0. 0. 0. 0.],-0.03125,0.03466796875,1.0048828125,[0. 0. 0. 0. 0. 0. 0. 0. 0.]
1.7812085151672363,-0.024033494293689728,0.0006236606859602034,0.6945779323577881,-0.7190157175064087,[0. 0. 0. 0. 0. 0. 0. 0. 0.],-0.06103515625,-0.3662109375,-0.06103515625,[0. 0. 0. 0. 0. 0. 0. 0. 0.],-0.03271484375,0.03564453125,1.0048828125,[0. 0. 0. 0. 0. 0. 0. 0. 0.]
1.7999293804168701,-0.02404552698135376,0.0005189302028156817,0.6946037411689758,-0.7189903259277344,[0. 0. 0. 0. 0. 0. 0. 0. 0.],-0.1220703125,-0.42724609375,-0.1220703125,[0. 0. 0. 0. 0. 0. 0. 0. 0.],-0.03271484375,0.03515625,1.0048828125,[0. 0. 0. 0. 0. 0. 0. 0. 0.]
1.820129156112671,-0.02316596359014511,0.00036973581882193685,0.6946502923965454,-0.7189744114875793,[0. 0. 0. 0. 0. 0. 0. 0. 0.],0.1220703125,-0.67138671875,-0.18310546875,[0. 0. 0. 0. 0. 0. 0. 0. 0.],-0.0322265625,0.0341796875,1.00390625,[0. 0. 0. 0. 0. 0. 0. 0. 0.]
1.840447187423706,-0.022289058193564415,0.00040612707380205393,0.6946810483932495,-0.718972384929657,[0. 0. 0. 0. 0. 0. 0. 0. 0.],0.06103515625,-0.91552734375,-0.244140625,[0. 0. 0. 0. 0. 0. 0. 0. 0.],-0.03076171875,0.033203125,1.005859375,[0. 0. 0. 0. 0. 0. 0. 0. 0.]
1.8602111339569092,-0.02323347143828869,0.0011929472675547004,0.6946669220924377,-0.718955397605896,[0. 0. 0. 0. 0. 0. 0. 0. 0.],-0.1220703125,-0.8544921875,-0.244140625,[0. 0. 0. 0. 0. 0. 0. 0. 0.],-0.03076171875,0.03515625,1.001953125,[0. 0. 0. 0. 0. 0. 0. 0. 0.]
1.880333423614502,-0.023252353072166443,0.0005194921395741403,0.6946980953216553,-0.7189253568649292,[0. 0. 0. 0. 0. 0. 0. 0. 0.],-0.30517578125,-0.48828125,-0.06103515625,[0. 0. 0. 0. 0. 0. 0. 0. 0.],-0.03173828125,0.03466796875,1.00341796875,[0. 0. 0. 0. 0. 0. 0. 0. 0.]
1.900040626525879,-0.02375926449894905,-0.0001593264751136303,0.6947231292724609,-0.7188847661018372,[0. 0. 0. 0. 0. 0. 0. 0. 0.],0.06103515625,-0.18310546875,0.0,[0. 0. 0. 0. 0. 0. 0. 0. 0.],-0.033203125,0.0341796875,1.005859375,[0. 0. 0. 0. 0. 0. 0. 0. 0.]
1.9205946922302246,-0.023076916113495827,3.2937114156084135e-05,0.6947541236877441,-0.7188771367073059,[0. 0. 0. 0. 0. 0. 0. 0. 0.],0.1220703125,-0.6103515625,-0.30517578125,[0. 0. 0. 0. 0. 0. 0. 0. 0.],-0.0322265625,0.03271484375,1.00439453125,[0. 0. 0. 0. 0. 0. 0. 0. 0.]
1.9402334690093994,-0.0231936052441597,0.0009245834662579,0.69475257396698,-0.7188742160797119,[0. 0. 0. 0. 0. 0. 0. 0. 0.],-0.30517578125,-1.15966796875,-0.18310546875,[0. 0. 0. 0. 0. 0. 0. 0. 0.],-0.03125,0.03466796875,1.00537109375,[0. 0. 0. 0. 0. 0. 0. 0. 0.]
1.9602198600769043,-0.022679276764392853,-3.453956378507428e-05,0.6947862505912781,-0.7188585996627808,[0. 0. 0. 0. 0. 0. 0. 0. 0.],-0.42724609375,-0.732421875,-0.244140625,[0. 0. 0. 0. 0. 0. 0. 0. 0.],-0.03173828125,0.03271484375,1.00244140625,[0. 0. 0. 0. 0. 0. 0. 0. 0.]
1.983551263809204,-0.023340778425335884,-7.150154851842672e-05,0.6947973370552063,-0.7188267707824707,[0. 0. 0. 0. 0. 0. 0. 0. 0.],0.1220703125,-0.1220703125,-0.06103515625,[0. 0. 0. 0. 0. 0. 0. 0. 0.],-0.03271484375,0.033203125,1.0048828125,[0. 0. 0. 0. 0. 0. 0. 0. 0.]
2.0001602172851562,-0.02279287949204445,0.00031663462868891656,0.6948180198669434,-0.7188243865966797,[0. 0. 0. 0. 0. 0. 0. 0. 0.],0.18310546875,-0.3662109375,-0.06103515625,[0. 0. 0. 0. 0. 0. 0. 0. 0.],-0.03125,0.033203125,1.00390625,[0. 0. 0. 0. 0. 0. 0. 0. 0.]
2.0212626457214355,-0.022435324266552925,0.0005877962103113532,0.694846510887146,-0.7188079357147217,[0. 0. 0. 0. 0. 0. 0. 0. 0.],-0.244140625,-1.0986328125,-0.244140625,[0. 0. 0. 0. 0. 0. 0. 0. 0.],-0.03125,0.033203125,1.00439453125,[0. 0. 0. 0. 0. 0. 0. 0. 0.]
2.0401906967163086,-0.022941291332244873,0.0006405090098269284,0.6948511004447937,-0.7187873721122742,[0. 0. 0. 0. 0. 0. 0. 0. 0.],-0.18310546875,-0.9765625,-0.244140625,[0. 0. 0. 0. 0. 0. 0. 0. 0.],-0.03125,0.0341796875,1.005859375,[0. 0. 0. 0. 0. 0. 0. 0. 0.]
2.0601513385772705,-0.023660166189074516,0.0009718373185023665,0.69484943151474,-0.7187652587890625,[0. 0. 0. 0. 0. 0. 0. 0. 0.],0.0,-0.48828125,-0.1220703125,[0. 0. 0. 0. 0. 0. 0. 0. 0.],-0.03173828125,0.03515625,1.00537109375,[0. 0. 0. 0. 0. 0. 0. 0. 0.]
2.0806920528411865,-0.022809002548456192,0.0003013985406141728,0.6948943138122559,-0.7187501192092896,[0. 0. 0. 0. 0. 0. 0. 0. 0.],-0.18310546875,-0.30517578125,-0.18310546875,[0. 0. 0. 0. 0. 0. 0. 0. 0.],-0.03173828125,0.033203125,1.00341796875,[0. 0. 0. 0. 0. 0. 0. 0. 0.]
2.0958287715911865,-0.02336772158741951,0.000750786333810538,0.6949077844619751,-0.7187187671661377,[0. 0. 0. 0. 0. 0. 0. 0. 0.],-0.244140625,-0.732421875,-0.1220703125,[0. 0. 0. 0. 0. 0. 0. 0. 0.],-0.03125,0.03466796875,1.0029296875,[0. 0. 0. 0. 0. 0. 0. 0. 0.]
2.1204071044921875,-0.023051505908370018,0.0005860046949237585,0.6949349641799927,-0.7187028527259827,[0. 0. 0. 0. 0. 0. 0. 0. 0.],0.0,-0.732421875,-0.1220703125,[0. 0. 0. 0. 0. 0. 0. 0. 0.],-0.03125,0.0341796875,1.00244140625,[0. 0. 0. 0. 0. 0. 0. 0. 0.]
2.1373414993286133,-0.02309591881930828,0.0005163737223483622,0.6949607133865356,-0.7186765670776367,[0. 0. 0. 0. 0. 0. 0. 0. 0.],-0.06103515625,-0.91552734375,-0.30517578125,[0. 0. 0. 0. 0. 0. 0. 0. 0.],-0.03173828125,0.0341796875,1.0048828125,[0. 0. 0. 0. 0. 0. 0. 0. 0.]
2.1602487564086914,-0.023064669221639633,0.0002545175957493484,0.6949809789657593,-0.7186580896377563,[0. 0. 0. 0. 0. 0. 0. 0. 0.],-0.3662109375,-0.54931640625,-0.18310546875,[0. 0. 0. 0. 0. 0. 0. 0. 0.],-0.0322265625,0.03369140625,1.00439453125,[0. 0. 0. 0. 0. 0. 0. 0. 0.]
2.1801846027374268,-0.023848125711083412,0.00018981164612341672,0.6949838399887085,-0.7186297178268433,[0. 0. 0. 0. 0. 0. 0. 0. 0.],-0.244140625,-0.48828125,0.06103515625,[0. 0. 0. 0. 0. 0. 0. 0. 0.],-0.03271484375,0.03466796875,1.005859375,[0. 0. 0. 0. 0. 0. 0. 0. 0.]
2.200157880783081,-0.023398403078317642,0.0010108590358868241,0.6950028538703918,-0.718625545501709,[0. 0. 0. 0. 0. 0. 0. 0. 0.],0.30517578125,-0.54931640625,-0.06103515625,[0. 0. 0. 0. 0. 0. 0. 0. 0.],-0.03125,0.03466796875,1.00390625,[0. 0. 0. 0. 0. 0. 0. 0. 0.]
2.2246553897857666,-0.023346692323684692,8.9700122771319e-05,0.6950445175170898,-0.7185875177383423,[0. 0. 0. 0. 0. 0. 0. 0. 0.],-0.30517578125,-0.42724609375,-0.1220703125,[0. 0. 0. 0. 0. 0. 0. 0. 0.],-0.03271484375,0.03369140625,1.00390625,[0. 0. 0. 0. 0. 0. 0. 0. 0.]
2.2402303218841553,-0.02337108924984932,0.00023581794812344015,0.6950647830963135,-0.7185670733451843,[0. 0. 0. 0. 0. 0. 0. 0. 0.],-0.06103515625,-1.220703125,-0.244140625,[0. 0. 0. 0. 0. 0. 0. 0. 0.],-0.03173828125,0.03369140625,1.0048828125,[0. 0. 0. 0. 0. 0. 0. 0. 0.]
2.2603676319122314,-0.0236970204859972,0.0006685518310405314,0.6950736045837402,-0.7185477614402771,[0. 0. 0. 0. 0. 0. 0. 0. 0.],0.0,-0.54931640625,-0.1220703125,[0. 0. 0. 0. 0. 0. 0. 0. 0.],-0.0322265625,0.03515625,1.00341796875,[0. 0. 0. 0. 0. 0. 0. 0. 0.]
2.2803990840911865,-0.022630274295806885,0.00023223317111842334,0.6951097846031189,-0.7185472846031189,[0. 0. 0. 0. 0. 0. 0. 0. 0.],0.0,-0.18310546875,0.06103515625,[0. 0. 0. 0. 0. 0. 0. 0. 0.],-0.03173828125,0.033203125,1.0029296875,[0. 0. 0. 0. 0. 0. 0. 0. 0.]
2.3009088039398193,-0.022828204557299614,-4.6978064347058535e-05,0.6951293349266052,-0.7185221314430237,[0. 0. 0. 0. 0. 0. 0. 0. 0.],-0.18310546875,-0.54931640625,-0.1220703125,[0. 0. 0. 0. 0. 0. 0. 0. 0.],-0.0322265625,0.033203125,1.00390625,[0. 0. 0. 0. 0. 0. 0. 0. 0.]
2.3201842308044434,-0.023860139772295952,-0.001166142406873405,0.6951543092727661,-0.7184635400772095,[0. 0. 0. 0. 0. 0. 0. 0. 0.],-0.18310546875,-0.91552734375,-0.244140625,[0. 0. 0. 0. 0. 0. 0. 0. 0.],-0.03466796875,0.03271484375,1.0029296875,[0. 0. 0. 0. 0. 0. 0. 0. 0.]
2.336533308029175,-0.023517262190580368,8.008674922166392e-05,0.6951644420623779,-0.71846604347229,[0. 0. 0. 0. 0. 0. 0. 0. 0.],0.1220703125,-0.79345703125,-0.244140625,[0. 0. 0. 0. 0. 0. 0. 0. 0.],-0.033203125,0.0341796875,1.00341796875,[0. 0. 0. 0. 0. 0. 0. 0. 0.]
2.3607068061828613,-0.02339869737625122,0.0014712248230352998,0.6951605081558228,-0.7184721231460571,[0. 0. 0. 0. 0. 0. 0. 0. 0.],-0.1220703125,-0.54931640625,-0.06103515625,[0. 0. 0. 0. 0. 0. 0. 0. 0.],-0.02978515625,0.0361328125,1.00341796875,[0. 0. 0. 0. 0. 0. 0. 0. 0.]
2.380699872970581,-0.02350611239671707,0.00018647534307092428,0.6952024102210999,-0.7184295058250427,[0. 0. 0. 0. 0. 0. 0. 0. 0.],-0.244140625,-0.42724609375,0.0,[0. 0. 0. 0. 0. 0. 0. 0. 0.],-0.0322265625,0.0341796875,1.0029296875,[0. 0. 0. 0. 0. 0. 0. 0. 0.]
2.4005777835845947,-0.02295512706041336,0.00021978588483761996,0.6952326893806458,-0.7184181809425354,[0. 0. 0. 0. 0. 0. 0. 0. 0.],-0.06103515625,-0.54931640625,-0.1220703125,[0. 0. 0. 0. 0. 0. 0. 0. 0.],-0.03173828125,0.03369140625,1.0029296875,[0. 0. 0. 0. 0. 0. 0. 0. 0.]
2.421485662460327,-0.022933613508939743,-0.00032798488973639905,0.6952693462371826,-0.718383252620697,[0. 0. 0. 0. 0. 0. 0. 0. 0.],0.1220703125,-0.732421875,-0.244140625,[0. 0. 0. 0. 0. 0. 0. 0. 0.],-0.03173828125,0.03271484375,1.0029296875,[0. 0. 0. 0. 0. 0. 0. 0. 0.]
2.4403862953186035,-0.022411169484257698,0.0005435936618596315,0.6952918767929077,-0.7183778882026672,[0. 0. 0. 0. 0. 0. 0. 0. 0.],-0.06103515625,-0.91552734375,-0.3662109375,[0. 0. 0. 0. 0. 0. 0. 0. 0.],-0.0302734375,0.033203125,1.00390625,[0. 0. 0. 0. 0. 0. 0. 0. 0.]
2.4617035388946533,-0.023906361311674118,0.0008657568832859397,0.6952829360961914,-0.7183379530906677,[0. 0. 0. 0. 0. 0. 0. 0. 0.],-0.3662109375,-0.79345703125,-0.18310546875,[0. 0. 0. 0. 0. 0. 0. 0. 0.],-0.03271484375,0.0361328125,1.00341796875,[0. 0. 0. 0. 0. 0. 0. 0. 0.]
2.4801025390625,-0.024231964722275734,0.0006032673991285264,0.6953022480010986,-0.7183086276054382,[0. 0. 0. 0. 0. 0. 0. 0. 0.],0.06103515625,-0.30517578125,0.06103515625,[0. 0. 0. 0. 0. 0. 0. 0. 0.],-0.033203125,0.03564453125,1.0029296875,[0. 0. 0. 0. 0. 0. 0. 0. 0.]
2.500087261199951,-0.022917473688721657,0.0011901133693754673,0.695334255695343,-0.7183201313018799,[0. 0. 0. 0. 0. 0. 0. 0. 0.],0.244140625,-0.3662109375,-0.18310546875,[0. 0. 0. 0. 0. 0. 0. 0. 0.],-0.0302734375,0.03466796875,1.00244140625,[0. 0. 0. 0. 0. 0. 0. 0. 0.]
2.520179510116577,-0.022782227024435997,0.00036687799729406834,0.6953679919242859,-0.7182925939559937,[0. 0. 0. 0. 0. 0. 0. 0. 0.],-0.1220703125,-0.9765625,-0.18310546875,[0. 0. 0. 0. 0. 0. 0. 0. 0.],-0.03173828125,0.033203125,1.00390625,[0. 0. 0. 0. 0. 0. 0. 0. 0.]
2.5403807163238525,-0.023271553218364716,0.0006115431315265596,0.6953768134117126,-0.7182681560516357,[0. 0. 0. 0. 0. 0. 0. 0. 0.],-0.244140625,-0.91552734375,-0.3662109375,[0. 0. 0. 0. 0. 0. 0. 0. 0.],-0.03173828125,0.03466796875,1.00390625,[0. 0. 0. 0. 0. 0. 0. 0. 0.]
2.560065507888794,-0.02324111945927143,0.0008326212409883738,0.6953891515731812,-0.7182570099830627,[0. 0. 0. 0. 0. 0. 0. 0. 0.],0.0,-0.18310546875,-0.1220703125,[0. 0. 0. 0. 0. 0. 0. 0. 0.],-0.03125,0.03466796875,1.00244140625,[0. 0. 0. 0. 0. 0. 0. 0. 0.]
2.580261707305908,-0.021980656310915947,0.0010121542727574706,0.695426881313324,-0.7182599902153015,[0. 0. 0. 0. 0. 0. 0. 0. 0.],0.0,-0.3662109375,0.06103515625,[0. 0. 0. 0. 0. 0. 0. 0. 0.],-0.029296875,0.033203125,1.0048828125,[0. 0. 0. 0. 0. 0. 0. 0. 0.]
2.601107358932495,-0.023403843864798546,0.000253628590144217,0.6954457759857178,-0.7181973457336426,[0. 0. 0. 0. 0. 0. 0. 0. 0.],-0.244140625,-0.9765625,-0.18310546875,[0. 0. 0. 0. 0. 0. 0. 0. 0.],-0.03271484375,0.0341796875,1.00439453125,[0. 0. 0. 0. 0. 0. 0. 0. 0.]
2.620929718017578,-0.023110073059797287,0.0010532292071729898,0.6954619288444519,-0.7181905508041382,[0. 0. 0. 0. 0. 0. 0. 0. 0.],0.06103515625,-1.03759765625,-0.244140625,[0. 0. 0. 0. 0. 0. 0. 0. 0.],-0.03125,0.03466796875,1.00537109375,[0. 0. 0. 0. 0. 0. 0. 0. 0.]
2.6401283740997314,-0.022399354726076126,0.00016778403369244188,0.6954975128173828,-0.7181793451309204,[0. 0. 0. 0. 0. 0. 0. 0. 0.],0.0,-0.6103515625,-0.1220703125,[0. 0. 0. 0. 0. 0. 0. 0. 0.],-0.03173828125,0.03271484375,1.00341796875,[0. 0. 0. 0. 0. 0. 0. 0. 0.]
2.6604950428009033,-0.023702245205640793,-2.7254636734141968e-05,0.695502519607544,-0.7181326746940613,[0. 0. 0. 0. 0. 0. 0. 0. 0.],-0.1220703125,-0.48828125,-0.18310546875,[0. 0. 0. 0. 0. 0. 0. 0. 0.],-0.033203125,0.03369140625,1.00341796875,[0. 0. 0. 0. 0. 0. 0. 0. 0.]
2.680060863494873,-0.022663600742816925,-0.00028482763445936143,0.6955533027648926,-0.7181169390678406,[0. 0. 0. 0. 0. 0. 0. 0. 0.],-0.244140625,-0.48828125,-0.244140625,[0. 0. 0. 0. 0. 0. 0. 0. 0.],-0.03125,0.0322265625,1.0048828125,[0. 0. 0. 0. 0. 0. 0. 0. 0.]
2.700666666030884,-0.02312561497092247,-4.256485772202723e-05,0.6955636143684387,-0.7180922627449036,[0. 0. 0. 0. 0. 0. 0. 0. 0.],0.1220703125,-0.244140625,0.0,[0. 0. 0. 0. 0. 0. 0. 0. 0.],-0.0322265625,0.033203125,1.0048828125,[0. 0. 0. 0. 0. 0. 0. 0. 0.]
2.7199854850769043,-0.023068424314260483,9.79097058007028e-06,0.6955875754356384,-0.7180709838867188,[0. 0. 0. 0. 0. 0. 0. 0. 0.],0.06103515625,-0.79345703125,-0.06103515625,[0. 0. 0. 0. 0. 0. 0. 0. 0.],-0.03271484375,0.033203125,1.00537109375,[0. 0. 0. 0. 0. 0. 0. 0. 0.]
2.735459327697754,-0.022467464208602905,0.000538273190613836,0.6956072449684143,-0.7180708050727844,[0. 0. 0. 0. 0. 0. 0. 0. 0.],-0.18310546875,-1.0986328125,-0.244140625,[0. 0. 0. 0. 0. 0. 0. 0. 0.],-0.03076171875,0.033203125,1.00537109375,[0. 0. 0. 0. 0. 0. 0. 0. 0.]
2.760089159011841,-0.022104736417531967,0.0010436803568154573,0.6956176161766052,-0.718071460723877,[0. 0. 0. 0. 0. 0. 0. 0. 0.],-0.18310546875,-0.67138671875,-0.244140625,[0. 0. 0. 0. 0. 0. 0. 0. 0.],-0.02978515625,0.03369140625,1.00341796875,[0. 0. 0. 0. 0. 0. 0. 0. 0.]
2.780385732650757,-0.023185791447758675,5.710066034225747e-06,0.6956406831741333,-0.7180156707763672,[0. 0. 0. 0. 0. 0. 0. 0. 0.],-0.1220703125,-0.244140625,-0.18310546875,[0. 0. 0. 0. 0. 0. 0. 0. 0.],-0.0322265625,0.033203125,1.00439453125,[0. 0. 0. 0. 0. 0. 0. 0. 0.]
2.7959680557250977,-0.023021338507533073,-0.0005384969990700483,0.695675790309906,-0.7179868221282959,[0. 0. 0. 0. 0. 0. 0. 0. 0.],-0.06103515625,-0.6103515625,-0.06103515625,[0. 0. 0. 0. 0. 0. 0. 0. 0.],-0.033203125,0.03271484375,1.00634765625,[0. 0. 0. 0. 0. 0. 0. 0. 0.]
2.8206770420074463,-0.022963935509324074,0.0009945901110768318,0.6956740617752075,-0.7179898619651794,[0. 0. 0. 0. 0. 0. 0. 0. 0.],-0.244140625,-1.0986328125,-0.1220703125,[0. 0. 0. 0. 0. 0. 0. 0. 0.],-0.03125,0.03466796875,1.00537109375,[0. 0. 0. 0. 0. 0. 0. 0. 0.]
2.840181350708008,-0.02368953451514244,0.0003387772594578564,0.6956911683082581,-0.7179502248764038,[0. 0. 0. 0. 0. 0. 0. 0. 0.],-0.1220703125,-0.79345703125,-0.244140625,[0. 0. 0. 0. 0. 0. 0. 0. 0.],-0.03271484375,0.03466796875,1.00439453125,[0. 0. 0. 0. 0. 0. 0. 0. 0.]
2.8572113513946533,-0.022153077647089958,0.0007580278324894607,0.6957235336303711,-0.7179675102233887,[0. 0. 0. 0. 0. 0. 0. 0. 0.],0.0,-0.3662109375,-0.1220703125,[0. 0. 0. 0. 0. 0. 0. 0. 0.],-0.0302734375,0.033203125,1.005859375,[0. 0. 0. 0. 0. 0. 0. 0. 0.]
2.8812639713287354,-0.02297084592282772,-0.00011143030860694125,0.6957391500473022,-0.717927098274231,[0. 0. 0. 0. 0. 0. 0. 0. 0.],-0.18310546875,-0.3662109375,0.0,[0. 0. 0. 0. 0. 0. 0. 0. 0.],-0.03271484375,0.033203125,1.0048828125,[0. 0. 0. 0. 0. 0. 0. 0. 0.]
2.9013376235961914,-0.02267863042652607,0.0004058856866322458,0.6957607865333557,-0.717915415763855,[0. 0. 0. 0. 0. 0. 0. 0. 0.],-0.1220703125,-0.732421875,-0.06103515625,[0. 0. 0. 0. 0. 0. 0. 0. 0.],-0.03125,0.03271484375,1.0048828125,[0. 0. 0. 0. 0. 0. 0. 0. 0.]
2.924574375152588,-0.023309964686632156,0.0007252427749335766,0.6957631707191467,-0.7178925275802612,[0. 0. 0. 0. 0. 0. 0. 0. 0.],0.0,-0.8544921875,-0.244140625,[0. 0. 0. 0. 0. 0. 0. 0. 0.],-0.03125,0.03466796875,1.0048828125,[0. 0. 0. 0. 0. 0. 0. 0. 0.]
2.9403059482574463,-0.023331990465521812,-2.1722749806940556e-05,0.6957892179489136,-0.7178670763969421,[0. 0. 0. 0. 0. 0. 0. 0. 0.],0.0,-0.732421875,-0.06103515625,[0. 0. 0. 0. 0. 0. 0. 0. 0.],-0.03271484375,0.0341796875,1.0048828125,[0. 0. 0. 0. 0. 0. 0. 0. 0.]
2.960177183151245,-0.023695461452007294,0.0009193774894811213,0.6957927942276001,-0.7178510427474976,[0. 0. 0. 0. 0. 0. 0. 0. 0.],-0.244140625,-0.6103515625,-0.06103515625,[0. 0. 0. 0. 0. 0. 0. 0. 0.],-0.03173828125,0.03515625,1.001953125,[0. 0. 0. 0. 0. 0. 0. 0. 0.]
2.9790103435516357,-0.023911116644740105,1.7147314792964607e-05,0.695830225944519,-0.717808187007904,[0. 0. 0. 0. 0. 0. 0. 0. 0.],-0.06103515625,-0.42724609375,-0.18310546875,[0. 0. 0. 0. 0. 0. 0. 0. 0.],-0.03271484375,0.03466796875,1.0048828125,[0. 0. 0. 0. 0. 0. 0. 0. 0.]
3.000432252883911,-0.02231377735733986,0.0007280274294316769,0.6958536505699158,-0.7178364992141724,[0. 0. 0. 0. 0. 0. 0. 0. 0.],0.1220703125,-0.67138671875,-0.06103515625,[0. 0. 0. 0. 0. 0. 0. 0. 0.],-0.03076171875,0.033203125,1.0048828125,[0. 0. 0. 0. 0. 0. 0. 0. 0.]
3.0206587314605713,-0.022657379508018494,0.0010828669182956219,0.6958634853363037,-0.7178158760070801,[0. 0. 0. 0. 0. 0. 0. 0. 0.],-0.1220703125,-0.9765625,-0.244140625,[0. 0. 0. 0. 0. 0. 0. 0. 0.],-0.03076171875,0.0341796875,1.00244140625,[0. 0. 0. 0. 0. 0. 0. 0. 0.]
3.0403921604156494,-0.023217078298330307,0.0004932040465064347,0.6958744525909424,-0.7177879810333252,[0. 0. 0. 0. 0. 0. 0. 0. 0.],-0.3662109375,-0.732421875,-0.18310546875,[0. 0. 0. 0. 0. 0. 0. 0. 0.],-0.03125,0.0341796875,1.00341796875,[0. 0. 0. 0. 0. 0. 0. 0. 0.]
3.0605380535125732,-0.023955566808581352,0.00014602211012970656,0.6958879828453064,-0.7177507281303406,[0. 0. 0. 0. 0. 0. 0. 0. 0.],0.06103515625,-0.244140625,-0.06103515625,[0. 0. 0. 0. 0. 0. 0. 0. 0.],-0.0341796875,0.03515625,1.00439453125,[0. 0. 0. 0. 0. 0. 0. 0. 0.]
3.0800516605377197,-0.023472264409065247,0.00014111444761510938,0.6959205269813538,-0.717735230922699,[0. 0. 0. 0. 0. 0. 0. 0. 0.],0.18310546875,-0.30517578125,-0.06103515625,[0. 0. 0. 0. 0. 0. 0. 0. 0.],-0.03271484375,0.0341796875,1.00439453125,[0. 0. 0. 0. 0. 0. 0. 0. 0.]
3.095327138900757,-0.023608891293406487,-0.000560100597795099,0.6959571242332458,-0.7176949381828308,[0. 0. 0. 0. 0. 0. 0. 0. 0.],-0.30517578125,-0.9765625,-0.244140625,[0. 0. 0. 0. 0. 0. 0. 0. 0.],-0.03369140625,0.033203125,1.00244140625,[0. 0. 0. 0. 0. 0. 0. 0. 0.]
3.120234251022339,-0.023217177018523216,0.000191120634553954,0.6959736943244934,-0.7176918983459473,[0. 0. 0. 0. 0. 0. 0. 0. 0.],-0.30517578125,-0.9765625,-0.244140625,[0. 0. 0. 0. 0. 0. 0. 0. 0.],-0.0322265625,0.03369140625,1.0029296875,[0. 0. 0. 0. 0. 0. 0. 0. 0.]
3.1403472423553467,-0.02411792427301407,-0.0011723428033292294,0.6959950923919678,-0.7176405191421509,[0. 0. 0. 0. 0. 0. 0. 0. 0.],0.18310546875,-0.79345703125,-0.18310546875,[0. 0. 0. 0. 0. 0. 0. 0. 0.],-0.03515625,0.033203125,1.0048828125,[0. 0. 0. 0. 0. 0. 0. 0. 0.]
3.1601834297180176,-0.023112501949071884,0.0004202849231660366,0.6959949135780334,-0.7176746129989624,[0. 0. 0. 0. 0. 0. 0. 0. 0.],-0.244140625,-0.42724609375,-0.06103515625,[0. 0. 0. 0. 0. 0. 0. 0. 0.],-0.03125,0.0341796875,1.0048828125,[0. 0. 0. 0. 0. 0. 0. 0. 0.]
3.1805012226104736,-0.02316831238567829,0.0012192699359729886,0.6960020065307617,-0.7176649570465088,[0. 0. 0. 0. 0. 0. 0. 0. 0.],-0.244140625,-0.3662109375,-0.06103515625,[0. 0. 0. 0. 0. 0. 0. 0. 0.],-0.03076171875,0.03515625,1.0048828125,[0. 0. 0. 0. 0. 0. 0. 0. 0.]
3.2005250453948975,-0.022966381162405014,0.00032809830736368895,0.6960481405258179,-0.7176275849342346,[0. 0. 0. 0. 0. 0. 0. 0. 0.],0.0,-0.6103515625,-0.06103515625,[0. 0. 0. 0. 0. 0. 0. 0. 0.],-0.03125,0.03369140625,1.0048828125,[0. 0. 0. 0. 0. 0. 0. 0. 0.]
3.2182083129882812,-0.021789895370602608,0.0017435793997719884,0.6960561275482178,-0.7176546454429626,[0. 0. 0. 0. 0. 0. 0. 0. 0.],0.18310546875,-0.79345703125,-0.30517578125,[0. 0. 0. 0. 0. 0. 0. 0. 0.],-0.02880859375,0.03369140625,1.00439453125,[0. 0. 0. 0. 0. 0. 0. 0. 0.]
3.2357311248779297,-0.02312469854950905,0.000697373179718852,0.6960663199424744,-0.7176047563552856,[0. 0. 0. 0. 0. 0. 0. 0. 0.],-0.30517578125,-0.9765625,-0.30517578125,[0. 0. 0. 0. 0. 0. 0. 0. 0.],-0.0322265625,0.0341796875,1.0029296875,[0. 0. 0. 0. 0. 0. 0. 0. 0.]
3.255316972732544,-0.022387627512216568,0.00016886787489056587,0.6961023211479187,-0.7175935506820679,[0. 0. 0. 0. 0. 0. 0. 0. 0.],-0.244140625,-0.42724609375,-0.06103515625,[0. 0. 0. 0. 0. 0. 0. 0. 0.],-0.03125,0.03271484375,1.00439453125,[0. 0. 0. 0. 0. 0. 0. 0. 0.]
3.280582904815674,-0.023142488673329353,0.0002248261298518628,0.6961110830307007,-0.7175609469413757,[0. 0. 0. 0. 0. 0. 0. 0. 0.],0.30517578125,-0.1220703125,0.06103515625,[0. 0. 0. 0. 0. 0. 0. 0. 0.],-0.0322265625,0.0341796875,1.0029296875,[0. 0. 0. 0. 0. 0. 0. 0. 0.]
3.3038346767425537,-0.023166116327047348,0.0001292200613534078,0.6961328387260437,-0.7175393104553223,[0. 0. 0. 0. 0. 0. 0. 0. 0.],0.1220703125,-0.54931640625,-0.06103515625,[0. 0. 0. 0. 0. 0. 0. 0. 0.],-0.0322265625,0.0341796875,1.00439453125,[0. 0. 0. 0. 0. 0. 0. 0. 0.]
3.3200316429138184,-0.02361329458653927,9.726316784508526e-05,0.6961421370506287,-0.7175155878067017,[0. 0. 0. 0. 0. 0. 0. 0. 0.],-0.244140625,-0.9765625,-0.18310546875,[0. 0. 0. 0. 0. 0. 0. 0. 0.],-0.03271484375,0.03466796875,1.00537109375,[0. 0. 0. 0. 0. 0. 0. 0. 0.]
3.3362948894500732,-0.02309422194957733,0.0004024109512101859,0.6961544752120972,-0.7175204157829285,[0. 0. 0. 0. 0. 0. 0. 0. 0.],-0.18310546875,-0.79345703125,-0.06103515625,[0. 0. 0. 0. 0. 0. 0. 0. 0.],-0.03173828125,0.03369140625,1.00341796875,[0. 0. 0. 0. 0. 0. 0. 0. 0.]
3.360409736633301,-0.02298242785036564,0.00016940516070462763,0.6961832046508789,-0.7174961566925049,[0. 0. 0. 0. 0. 0. 0. 0. 0.],0.1220703125,-0.06103515625,-0.1220703125,[0. 0. 0. 0. 0. 0. 0. 0. 0.],-0.03173828125,0.033203125,1.00439453125,[0. 0. 0. 0. 0. 0. 0. 0. 0.]
3.3810675144195557,-0.02353239804506302,-0.0005030034808441997,0.6962050795555115,-0.7174569368362427,[0. 0. 0. 0. 0. 0. 0. 0. 0.],-0.1220703125,-0.48828125,0.06103515625,[0. 0. 0. 0. 0. 0. 0. 0. 0.],-0.03369140625,0.033203125,1.00244140625,[0. 0. 0. 0. 0. 0. 0. 0. 0.]
3.395630121231079,-0.023476189002394676,-0.000640526763163507,0.696233332157135,-0.7174312472343445,[0. 0. 0. 0. 0. 0. 0. 0. 0.],-0.30517578125,-0.8544921875,-0.1220703125,[0. 0. 0. 0. 0. 0. 0. 0. 0.],-0.033203125,0.033203125,1.0029296875,[0. 0. 0. 0. 0. 0. 0. 0. 0.]
3.4157843589782715,-0.023070352151989937,0.0006382772116921842,0.6962407231330872,-0.7174373269081116,[0. 0. 0. 0. 0. 0. 0. 0. 0.],0.0,-0.8544921875,-0.244140625,[0. 0. 0. 0. 0. 0. 0. 0. 0.],-0.03173828125,0.03466796875,1.0048828125,[0. 0. 0. 0. 0. 0. 0. 0. 0.]
3.440640449523926,-0.02303999476134777,0.0007055602036416531,0.6962612271308899,-0.7174182534217834,[0. 0. 0. 0. 0. 0. 0. 0. 0.],0.06103515625,-0.42724609375,-0.30517578125,[0. 0. 0. 0. 0. 0. 0. 0. 0.],-0.03125,0.0341796875,1.00341796875,[0. 0. 0. 0. 0. 0. 0. 0. 0.]
3.4624617099761963,-0.023157015442848206,-0.00017786677926778793,0.696287214756012,-0.7173896431922913,[0. 0. 0. 0. 0. 0. 0. 0. 0.],-0.18310546875,-0.42724609375,-0.06103515625,[0. 0. 0. 0. 0. 0. 0. 0. 0.],-0.03271484375,0.033203125,1.00390625,[0. 0. 0. 0. 0. 0. 0. 0. 0.]
3.4801197052001953,-0.023510858416557312,0.000503558840136975,0.696295976638794,-0.7173694968223572,[0. 0. 0. 0. 0. 0. 0. 0. 0.],-0.1220703125,-0.48828125,-0.1220703125,[0. 0. 0. 0. 0. 0. 0. 0. 0.],-0.0322265625,0.03466796875,1.00634765625,[0. 0. 0. 0. 0. 0. 0. 0. 0.]
3.501194477081299,-0.024039490148425102,-1.9022147625946673e-06,0.6963137984275818,-0.7173348069190979,[0. 0. 0. 0. 0. 0. 0. 0. 0.],0.06103515625,-0.6103515625,-0.1220703125,[0. 0. 0. 0. 0. 0. 0. 0. 0.],-0.03369140625,0.03466796875,1.00390625,[0. 0. 0. 0. 0. 0. 0. 0. 0.]
3.5201706886291504,-0.02389259822666645,4.641911436920054e-05,0.6963403820991516,-0.7173139452934265,[0. 0. 0. 0. 0. 0. 0. 0. 0.],-0.06103515625,-0.79345703125,-0.244140625,[0. 0. 0. 0. 0. 0. 0. 0. 0.],-0.033203125,0.03466796875,1.00390625,[0. 0. 0. 0. 0. 0. 0. 0. 0.]
3.5401480197906494,-0.023672746494412422,0.0008157221018336713,0.6963483691215515,-0.7173130512237549,[0. 0. 0. 0. 0. 0. 0. 0. 0.],-0.30517578125,-0.79345703125,-0.1220703125,[0. 0. 0. 0. 0. 0. 0. 0. 0.],-0.03173828125,0.03515625,1.0029296875,[0. 0. 0. 0. 0. 0. 0. 0. 0.]
3.5620710849761963,-0.023541759699583054,7.556716445833445e-05,0.6963807940483093,-0.717286229133606,[0. 0. 0. 0. 0. 0. 0. 0. 0.],-0.1220703125,-0.3662109375,-0.06103515625,[0. 0. 0. 0. 0. 0. 0. 0. 0.],-0.0322265625,0.03466796875,1.00439453125,[0. 0. 0. 0. 0. 0. 0. 0. 0.]
3.5801968574523926,-0.022695615887641907,0.000448405189672485,0.6964076161384583,-0.7172874212265015,[0. 0. 0. 0. 0. 0. 0. 0. 0.],0.1220703125,-0.42724609375,-0.06103515625,[0. 0. 0. 0. 0. 0. 0. 0. 0.],-0.03125,0.033203125,1.00341796875,[0. 0. 0. 0. 0. 0. 0. 0. 0.]
3.600109100341797,-0.023355035111308098,0.00029170745983719826,0.6964151859283447,-0.7172589898109436,[0. 0. 0. 0. 0. 0. 0. 0. 0.],-0.18310546875,-0.6103515625,-0.1220703125,[0. 0. 0. 0. 0. 0. 0. 0. 0.],-0.03173828125,0.0341796875,1.0048828125,[0. 0. 0. 0. 0. 0. 0. 0. 0.]
3.620452642440796,-0.023366257548332214,0.0007299142307601869,0.6964267492294312,-0.7172471284866333,[0. 0. 0. 0. 0. 0. 0. 0. 0.],-0.18310546875,-1.03759765625,-0.244140625,[0. 0. 0. 0. 0. 0. 0. 0. 0.],-0.03125,0.0341796875,1.00537109375,[0. 0. 0. 0. 0. 0. 0. 0. 0.]
3.6402084827423096,-0.02408384345471859,0.00025666618603281677,0.6964327096939087,-0.7172178030014038,[0. 0. 0. 0. 0. 0. 0. 0. 0.],0.1220703125,-0.6103515625,-0.18310546875,[0. 0. 0. 0. 0. 0. 0. 0. 0.],-0.03271484375,0.03466796875,1.00439453125,[0. 0. 0. 0. 0. 0. 0. 0. 0.]
3.6606760025024414,-0.023350810632109642,-0.00013953683082945645,0.6964690089225769,-0.7172069549560547,[0. 0. 0. 0. 0. 0. 0. 0. 0.],0.06103515625,-0.30517578125,-0.06103515625,[0. 0. 0. 0. 0. 0. 0. 0. 0.],-0.03271484375,0.0341796875,1.00341796875,[0. 0. 0. 0. 0. 0. 0. 0. 0.]
3.6804752349853516,-0.023991642519831657,0.00046942016342654824,0.6964735984802246,-0.7171810865402222,[0. 0. 0. 0. 0. 0. 0. 0. 0.],-0.244140625,-0.42724609375,-0.1220703125,[0. 0. 0. 0. 0. 0. 0. 0. 0.],-0.03271484375,0.03466796875,1.00439453125,[0. 0. 0. 0. 0. 0. 0. 0. 0.]
3.7003090381622314,-0.022388789802789688,6.159404438221827e-05,0.6965315937995911,-0.7171767354011536,[0. 0. 0. 0. 0. 0. 0. 0. 0.],-0.06103515625,-0.79345703125,-0.18310546875,[0. 0. 0. 0. 0. 0. 0. 0. 0.],-0.03125,0.0322265625,1.0029296875,[0. 0. 0. 0. 0. 0. 0. 0. 0.]
3.7202067375183105,-0.022003795951604843,3.9909424231154844e-05,0.6965587735176086,-0.7171623110771179,[0. 0. 0. 0. 0. 0. 0. 0. 0.],0.1220703125,-0.79345703125,-0.30517578125,[0. 0. 0. 0. 0. 0. 0. 0. 0.],-0.03076171875,0.0322265625,1.0048828125,[0. 0. 0. 0. 0. 0. 0. 0. 0.]
3.7408244609832764,-0.02242348901927471,-0.0005682799383066595,0.6965788006782532,-0.7171297669410706,[0. 0. 0. 0. 0. 0. 0. 0. 0.],-0.06103515625,-0.67138671875,-0.18310546875,[0. 0. 0. 0. 0. 0. 0. 0. 0.],-0.0322265625,0.03173828125,1.00439453125,[0. 0. 0. 0. 0. 0. 0. 0. 0.]
3.760180950164795,-0.022953439503908157,0.000656013609841466,0.6965675950050354,-0.7171237468719482,[0. 0. 0. 0. 0. 0. 0. 0. 0.],-0.3662109375,-0.3662109375,-0.06103515625,[0. 0. 0. 0. 0. 0. 0. 0. 0.],-0.03125,0.0341796875,1.0048828125,[0. 0. 0. 0. 0. 0. 0. 0. 0.]
3.7817721366882324,-0.023234810680150986,0.00026585679734125733,0.6965908408164978,-0.7170922756195068,[0. 0. 0. 0. 0. 0. 0. 0. 0.],0.0,-0.244140625,-0.06103515625,[0. 0. 0. 0. 0. 0. 0. 0. 0.],-0.03173828125,0.03369140625,1.00390625,[0. 0. 0. 0. 0. 0. 0. 0. 0.]
3.8003406524658203,-0.022350581362843513,0.0002542391011957079,0.6966294050216675,-0.7170830368995667,[0. 0. 0. 0. 0. 0. 0. 0. 0.],0.30517578125,-0.67138671875,-0.18310546875,[0. 0. 0. 0. 0. 0. 0. 0. 0.],-0.03125,0.03271484375,1.0048828125,[0. 0. 0. 0. 0. 0. 0. 0. 0.]
3.8202221393585205,-0.022106196731328964,0.00045145981130190194,0.6966450810432434,-0.7170751690864563,[0. 0. 0. 0. 0. 0. 0. 0. 0.],-0.18310546875,-1.28173828125,-0.244140625,[0. 0. 0. 0. 0. 0. 0. 0. 0.],-0.0302734375,0.03271484375,1.0048828125,[0. 0. 0. 0. 0. 0. 0. 0. 0.]
3.8405277729034424,-0.023756396025419235,0.0006907434435561299,0.6966288685798645,-0.7170379161834717,[0. 0. 0. 0. 0. 0. 0. 0. 0.],-0.30517578125,-0.8544921875,-0.18310546875,[0. 0. 0. 0. 0. 0. 0. 0. 0.],-0.0322265625,0.03515625,1.00439453125,[0. 0. 0. 0. 0. 0. 0. 0. 0.]
3.8610575199127197,-0.0229889377951622,0.0006708743167109787,0.6966612339019775,-0.7170315384864807,[0. 0. 0. 0. 0. 0. 0. 0. 0.],-0.06103515625,-0.06103515625,-0.06103515625,[0. 0. 0. 0. 0. 0. 0. 0. 0.],-0.03173828125,0.0341796875,1.0048828125,[0. 0. 0. 0. 0. 0. 0. 0. 0.]
3.8802013397216797,-0.022992685437202454,-0.0003016201371792704,0.6967004537582397,-0.7169935703277588,[0. 0. 0. 0. 0. 0. 0. 0. 0.],0.18310546875,-0.42724609375,0.0,[0. 0. 0. 0. 0. 0. 0. 0. 0.],-0.0322265625,0.03271484375,1.00341796875,[0. 0. 0. 0. 0. 0. 0. 0. 0.]
3.9012606143951416,-0.023953085765242577,0.0004061014042235911,0.6966950297355652,-0.7169673442840576,[0. 0. 0. 0. 0. 0. 0. 0. 0.],-0.30517578125,-1.220703125,-0.244140625,[0. 0. 0. 0. 0. 0. 0. 0. 0.],-0.03271484375,0.03515625,1.00341796875,[0. 0. 0. 0. 0. 0. 0. 0. 0.]
3.9201459884643555,-0.022979948669672012,0.0009744809940457344,0.696725070476532,-0.7169694900512695,[0. 0. 0. 0. 0. 0. 0. 0. 0.],-0.244140625,-0.9765625,-0.30517578125,[0. 0. 0. 0. 0. 0. 0. 0. 0.],-0.03076171875,0.0341796875,1.005859375,[0. 0. 0. 0. 0. 0. 0. 0. 0.]
3.9456188678741455,-0.02320917882025242,-0.00017934621428139508,0.696751594543457,-0.7169368863105774,[0. 0. 0. 0. 0. 0. 0. 0. 0.],0.0,-0.3662109375,-0.18310546875,[0. 0. 0. 0. 0. 0. 0. 0. 0.],-0.03271484375,0.033203125,1.00390625,[0. 0. 0. 0. 0. 0. 0. 0. 0.]
3.9604101181030273,-0.023005157709121704,5.657630754285492e-05,0.6967710256576538,-0.7169246673583984,[0. 0. 0. 0. 0. 0. 0. 0. 0.],-0.06103515625,-0.3662109375,-0.06103515625,[0. 0. 0. 0. 0. 0. 0. 0. 0.],-0.03173828125,0.03271484375,1.0029296875,[0. 0. 0. 0. 0. 0. 0. 0. 0.]
3.9805753231048584,-0.023612946271896362,-1.0435383046569768e-06,0.6967898607254028,-0.7168866395950317,[0. 0. 0. 0. 0. 0. 0. 0. 0.],-0.1220703125,-0.67138671875,-0.1220703125,[0. 0. 0. 0. 0. 0. 0. 0. 0.],-0.033203125,0.0341796875,1.0048828125,[0. 0. 0. 0. 0. 0. 0. 0. 0.]
4.000434875488281,-0.023692352697253227,0.0006729319575242698,0.6968060731887817,-0.7168678641319275,[0. 0. 0. 0. 0. 0. 0. 0. 0.],0.06103515625,-0.3662109375,-0.48828125,[0. 0. 0. 0. 0. 0. 0. 0. 0.],-0.03173828125,0.03466796875,1.00390625,[0. 0. 0. 0. 0. 0. 0. 0. 0.]
4.0206074714660645,-0.023626137524843216,-0.0010269018821418285,0.6968384981155396,-0.7168381214141846,[0. 0. 0. 0. 0. 0. 0. 0. 0.],-2.9296875,1.64794921875,0.06103515625,[0. 0. 0. 0. 0. 0. 0. 0. 0.],-0.03173828125,0.0087890625,1.001953125,[0. 0. 0. 0. 0. 0. 0. 0. 0.]
4.04062819480896,-0.020888695493340492,-0.0051616462878882885,0.6967213153839111,-0.717019259929657,[0. 0. 0. 0. 0. 0. 0. 0. 0.],-22.705078125,17.39501953125,2.685546875,[0. 0. 0. 0. 0. 0. 0. 0. 0.],-0.052734375,-0.3037109375,0.83935546875,[0. 0. 0. 0. 0. 0. 0. 0. 0.]
4.060581922531128,-0.019072918221354485,-0.008099419996142387,0.6969306468963623,-0.7168391942977905,[0. 0. 0. 0. 0. 0. 0. 0. 0.],2.8076171875,5.126953125,-5.126953125,[0. 0. 0. 0. 0. 0. 0. 0. 0.],0.0341796875,-0.2587890625,1.19287109375,[0. 0. 0. 0. 0. 0. 0. 0. 0.]
4.0752480030059814,-0.018218614161014557,-0.008588138036429882,0.6978298425674438,-0.7159804105758667,[0. 0. 0. 0. 0. 0. 0. 0. 0.],-0.6103515625,0.79345703125,-5.18798828125,[0. 0. 0. 0. 0. 0. 0. 0. 0.],-0.04052734375,-0.08203125,0.98193359375,[0. 0. 0. 0. 0. 0. 0. 0. 0.]
4.101156949996948,-0.016976794227957726,-0.011570644564926624,0.6983956098556519,-0.7154170870780945,[0. 0. 0. 0. 0. 0. 0. 0. 0.],-5.55419921875,4.0283203125,-5.67626953125,[0. 0. 0. 0. 0. 0. 0. 0. 0.],-0.046875,-0.23779296875,0.97216796875,[0. 0. 0. 0. 0. 0. 0. 0. 0.]
4.120331287384033,-0.016444096341729164,-0.013419045135378838,0.6994754672050476,-0.7143413424491882,[0. 0. 0. 0. 0. 0. 0. 0. 0.],0.244140625,6.04248046875,-8.9111328125,[0. 0. 0. 0. 0. 0. 0. 0. 0.],-0.05908203125,-0.1044921875,0.99951171875,[0. 0. 0. 0. 0. 0. 0. 0. 0.]
4.140090465545654,-0.015832673758268356,-0.014980873093008995,0.7007346749305725,-0.7130890488624573,[0. 0. 0. 0. 0. 0. 0. 0. 0.],2.197265625,3.47900390625,-8.6669921875,[0. 0. 0. 0. 0. 0. 0. 0. 0.],-0.09326171875,-0.115234375,1.0078125,[0. 0. 0. 0. 0. 0. 0. 0. 0.]
4.16051983833313,-0.015238871797919273,-0.01682276651263237,0.7019187808036804,-0.7118952870368958,[0. 0. 0. 0. 0. 0. 0. 0. 0.],0.79345703125,-0.9765625,-11.53564453125,[0. 0. 0. 0. 0. 0. 0. 0. 0.],-0.07177734375,-0.1142578125,1.00048828125,[0. 0. 0. 0. 0. 0. 0. 0. 0.]
4.180377721786499,-0.013982285745441914,-0.018212923780083656,0.7034787535667419,-0.7103453278541565,[0. 0. 0. 0. 0. 0. 0. 0. 0.],0.48828125,1.89208984375,-13.36669921875,[0. 0. 0. 0. 0. 0. 0. 0. 0.],-0.0390625,-0.06005859375,0.9794921875,[0. 0. 0. 0. 0. 0. 0. 0. 0.]
4.200805425643921,-0.012720361351966858,-0.019829632714390755,0.7052102088928223,-0.7086067795753479,[0. 0. 0. 0. 0. 0. 0. 0. 0.],-0.244140625,0.732421875,-14.2822265625,[0. 0. 0. 0. 0. 0. 0. 0. 0.],-0.05810546875,-0.07568359375,0.99609375,[0. 0. 0. 0. 0. 0. 0. 0. 0.]
4.222763299942017,-0.011875598691403866,-0.021647799760103226,0.7072235941886902,-0.7065587639808655,[0. 0. 0. 0. 0. 0. 0. 0. 0.],2.0751953125,1.220703125,-18.06640625,[0. 0. 0. 0. 0. 0. 0. 0. 0.],-0.048828125,-0.048828125,1.021484375,[0. 0. 0. 0. 0. 0. 0. 0. 0.]
4.235513687133789,-0.012869877740740776,-0.02256990596652031,0.7096192836761475,-0.7041061520576477,[0. 0. 0. 0. 0. 0. 0. 0. 0.],0.1220703125,2.62451171875,-19.775390625,[0. 0. 0. 0. 0. 0. 0. 0. 0.],-0.07666015625,-0.01416015625,1.015625,[0. 0. 0. 0. 0. 0. 0. 0. 0.]
4.260143995285034,-0.013631626032292843,-0.023843325674533844,0.7121371626853943,-0.7015029191970825,[0. 0. 0. 0. 0. 0. 0. 0. 0.],2.0751953125,-2.3193359375,-20.751953125,[0. 0. 0. 0. 0. 0. 0. 0. 0.],-0.0791015625,-0.0126953125,1.02783203125,[0. 0. 0. 0. 0. 0. 0. 0. 0.]
4.280832290649414,-0.014259119518101215,-0.022774748504161835,0.7147850394248962,-0.698827862739563,[0. 0. 0. 0. 0. 0. 0. 0. 0.],-0.42724609375,0.244140625,-22.0947265625,[0. 0. 0. 0. 0. 0. 0. 0. 0.],-0.0380859375,-0.0078125,0.9970703125,[0. 0. 0. 0. 0. 0. 0. 0. 0.]
4.300307750701904,-0.01417479757219553,-0.02353527583181858,0.7173736691474915,-0.6961467266082764,[0. 0. 0. 0. 0. 0. 0. 0. 0.],1.5869140625,-1.40380859375,-21.42333984375,[0. 0. 0. 0. 0. 0. 0. 0. 0.],-0.06201171875,-0.00927734375,0.986328125,[0. 0. 0. 0. 0. 0. 0. 0. 0.]
4.324198246002197,-0.015944013372063637,-0.02361622266471386,0.7204390168190002,-0.692932665348053,[0. 0. 0. 0. 0. 0. 0. 0. 0.],1.5869140625,-3.47900390625,-19.775390625,[0. 0. 0. 0. 0. 0. 0. 0. 0.],-0.06494140625,-0.01513671875,0.99267578125,[0. 0. 0. 0. 0. 0. 0. 0. 0.]
4.335433721542358,-0.0166816096752882,-0.022714706137776375,0.722168505191803,-0.6911428570747375,[0. 0. 0. 0. 0. 0. 0. 0. 0.],1.28173828125,0.30517578125,-19.34814453125,[0. 0. 0. 0. 0. 0. 0. 0. 0.],-0.041015625,0.0107421875,1.009765625,[0. 0. 0. 0. 0. 0. 0. 0. 0.]
4.360431432723999,-0.017325839027762413,-0.02127467654645443,0.7244018912315369,-0.6888317465782166,[0. 0. 0. 0. 0. 0. 0. 0. 0.],-1.52587890625,-1.8310546875,-16.78466796875,[0. 0. 0. 0. 0. 0. 0. 0. 0.],-0.05908203125,-0.00341796875,0.9833984375,[0. 0. 0. 0. 0. 0. 0. 0. 0.]
4.380522727966309,-0.015442832373082638,-0.021509122103452682,0.7261031866073608,-0.6870758533477783,[0. 0. 0. 0. 0. 0. 0. 0. 0.],-0.244140625,-4.39453125,-10.986328125,[0. 0. 0. 0. 0. 0. 0. 0. 0.],-0.04638671875,-0.0107421875,0.99951171875,[0. 0. 0. 0. 0. 0. 0. 0. 0.]
4.39593243598938,-0.013285653665661812,-0.01976480707526207,0.7272494435310364,-0.685960054397583,[0. 0. 0. 0. 0. 0. 0. 0. 0.],0.79345703125,-5.4931640625,-8.056640625,[0. 0. 0. 0. 0. 0. 0. 0. 0.],-0.0009765625,-0.01806640625,1.01416015625,[0. 0. 0. 0. 0. 0. 0. 0. 0.]
4.420378684997559,-0.01218334212899208,-0.01765289716422558,0.7279407978057861,-0.6853044033050537,[0. 0. 0. 0. 0. 0. 0. 0. 0.],1.89208984375,-2.50244140625,-3.84521484375,[0. 0. 0. 0. 0. 0. 0. 0. 0.],-0.00732421875,0.01318359375,1.02099609375,[0. 0. 0. 0. 0. 0. 0. 0. 0.]
4.440591812133789,-0.011625322513282299,-0.015794532373547554,0.7283714413642883,-0.6849018931388855,[0. 0. 0. 0. 0. 0. 0. 0. 0.],2.0751953125,-0.30517578125,-4.33349609375,[0. 0. 0. 0. 0. 0. 0. 0. 0.],0.015625,0.01513671875,1.03955078125,[0. 0. 0. 0. 0. 0. 0. 0. 0.]
4.460379123687744,-0.012065351009368896,-0.014146284200251102,0.7288883328437805,-0.6843801736831665,[0. 0. 0. 0. 0. 0. 0. 0. 0.],0.244140625,4.33349609375,-4.7607421875,[0. 0. 0. 0. 0. 0. 0. 0. 0.],-0.00634765625,0.0380859375,1.0048828125,[0. 0. 0. 0. 0. 0. 0. 0. 0.]
4.480222940444946,-0.01370995119214058,-0.013400908559560776,0.7294211387634277,-0.6837962865829468,[0. 0. 0. 0. 0. 0. 0. 0. 0.],1.3427734375,2.50244140625,-4.8828125,[0. 0. 0. 0. 0. 0. 0. 0. 0.],-0.0556640625,0.02587890625,1.0009765625,[0. 0. 0. 0. 0. 0. 0. 0. 0.]
4.50023889541626,-0.015659427270293236,-0.013105793856084347,0.7299753427505493,-0.683168351650238,[0. 0. 0. 0. 0. 0. 0. 0. 0.],-1.46484375,0.6103515625,-4.8828125,[0. 0. 0. 0. 0. 0. 0. 0. 0.],-0.052734375,0.02099609375,0.9794921875,[0. 0. 0. 0. 0. 0. 0. 0. 0.]
4.516037225723267,-0.017431681975722313,-0.012577109970152378,0.7305127382278442,-0.6825606822967529,[0. 0. 0. 0. 0. 0. 0. 0. 0.],-0.06103515625,-0.67138671875,-4.2724609375,[0. 0. 0. 0. 0. 0. 0. 0. 0.],-0.06396484375,0.0302734375,0.994140625,[0. 0. 0. 0. 0. 0. 0. 0. 0.]
4.543048143386841,-0.018919650465250015,-0.013493292964994907,0.730871319770813,-0.6821195483207703,[0. 0. 0. 0. 0. 0. 0. 0. 0.],1.64794921875,-2.8076171875,-3.662109375,[0. 0. 0. 0. 0. 0. 0. 0. 0.],-0.06591796875,0.00927734375,1.0322265625,[0. 0. 0. 0. 0. 0. 0. 0. 0.]
4.56394624710083,-0.020449688658118248,-0.012685481458902359,0.7311897277832031,-0.6817496418952942,[0. 0. 0. 0. 0. 0. 0. 0. 0.],-1.52587890625,-1.52587890625,-2.86865234375,[0. 0. 0. 0. 0. 0. 0. 0. 0.],-0.05712890625,0.02880859375,0.97705078125,[0. 0. 0. 0. 0. 0. 0. 0. 0.]
4.580137252807617,-0.021860063076019287,-0.013257037848234177,0.7314522862434387,-0.6814132928848267,[0. 0. 0. 0. 0. 0. 0. 0. 0.],0.732421875,-0.42724609375,-1.953125,[0. 0. 0. 0. 0. 0. 0. 0. 0.],-0.06005859375,0.0166015625,0.9853515625,[0. 0. 0. 0. 0. 0. 0. 0. 0.]
4.601881980895996,-0.0211375392973423,-0.012296763248741627,0.7317947149276733,-0.6810862421989441,[0. 0. 0. 0. 0. 0. 0. 0. 0.],-1.708984375,0.8544921875,-2.44140625,[0. 0. 0. 0. 0. 0. 0. 0. 0.],-0.04150390625,0.0068359375,0.97509765625,[0. 0. 0. 0. 0. 0. 0. 0. 0.]
4.620061635971069,-0.022594459354877472,-0.011648591607809067,0.7322320342063904,-0.6805806756019592,[0. 0. 0. 0. 0. 0. 0. 0. 0.],-0.42724609375,2.25830078125,-5.31005859375,[0. 0. 0. 0. 0. 0. 0. 0. 0.],-0.052734375,0.03125,1.013671875,[0. 0. 0. 0. 0. 0. 0. 0. 0.]
4.640558958053589,-0.02412644773721695,-0.011061019264161587,0.7332484722137451,-0.6794427037239075,[0. 0. 0. 0. 0. 0. 0. 0. 0.],-0.1220703125,2.01416015625,-10.986328125,[0. 0. 0. 0. 0. 0. 0. 0. 0.],-0.06201171875,0.02587890625,1.015625,[0. 0. 0. 0. 0. 0. 0. 0. 0.]
4.660623073577881,-0.026052292436361313,-0.011458924040198326,0.7347941994667053,-0.6776928305625916,[0. 0. 0. 0. 0. 0. 0. 0. 0.],-1.28173828125,3.0517578125,-15.68603515625,[0. 0. 0. 0. 0. 0. 0. 0. 0.],-0.087890625,0.05224609375,1.01806640625,[0. 0. 0. 0. 0. 0. 0. 0. 0.]
4.680356740951538,-0.027893289923667908,-0.011704940348863602,0.7368621230125427,-0.6753661036491394,[0. 0. 0. 0. 0. 0. 0. 0. 0.],-0.67138671875,3.35693359375,-20.263671875,[0. 0. 0. 0. 0. 0. 0. 0. 0.],-0.06201171875,0.04638671875,1.03515625,[0. 0. 0. 0. 0. 0. 0. 0. 0.]
4.700433254241943,-0.029700420796871185,-0.011943417601287365,0.7392891049385071,-0.6726269125938416,[0. 0. 0. 0. 0. 0. 0. 0. 0.],-1.0986328125,4.2724609375,-21.240234375,[0. 0. 0. 0. 0. 0. 0. 0. 0.],-0.09130859375,0.0322265625,0.99462890625,[0. 0. 0. 0. 0. 0. 0. 0. 0.]
4.7201948165893555,-0.03142595663666725,-0.013106036931276321,0.7418497204780579,-0.6697012186050415,[0. 0. 0. 0. 0. 0. 0. 0. 0.],1.3427734375,0.42724609375,-23.01025390625,[0. 0. 0. 0. 0. 0. 0. 0. 0.],-0.10888671875,0.0341796875,0.99560546875,[0. 0. 0. 0. 0. 0. 0. 0. 0.]
4.740121126174927,-0.03275199979543686,-0.014319667592644691,0.7445763945579529,-0.66657954454422,[0. 0. 0. 0. 0. 0. 0. 0. 0.],1.953125,-3.11279296875,-23.62060546875,[0. 0. 0. 0. 0. 0. 0. 0. 0.],-0.09423828125,0.0087890625,0.98583984375,[0. 0. 0. 0. 0. 0. 0. 0. 0.]
4.760300636291504,-0.03345261514186859,-0.013730854727327824,0.7472965717315674,-0.663506031036377,[0. 0. 0. 0. 0. 0. 0. 0. 0.],-0.6103515625,-5.06591796875,-23.0712890625,[0. 0. 0. 0. 0. 0. 0. 0. 0.],-0.0634765625,0.03662109375,0.994140625,[0. 0. 0. 0. 0. 0. 0. 0. 0.]
4.780447959899902,-0.03158967196941376,-0.012253864668309689,0.7501107454299927,-0.6604437828063965,[0. 0. 0. 0. 0. 0. 0. 0. 0.],0.06103515625,-2.8076171875,-24.23095703125,[0. 0. 0. 0. 0. 0. 0. 0. 0.],-0.0185546875,0.02734375,1.044921875,[0. 0. 0. 0. 0. 0. 0. 0. 0.]
4.800383806228638,-0.029639845713973045,-0.01222934015095234,0.7529250979423523,-0.6573247313499451,[0. 0. 0. 0. 0. 0. 0. 0. 0.],-4.638671875,0.79345703125,-22.5830078125,[0. 0. 0. 0. 0. 0. 0. 0. 0.],-0.03759765625,-0.0576171875,0.99951171875,[0. 0. 0. 0. 0. 0. 0. 0. 0.]
4.823684215545654,-0.027864348143339157,-0.013951091095805168,0.7555107474327087,-0.6543947458267212,[0. 0. 0. 0. 0. 0. 0. 0. 0.],0.67138671875,-7.50732421875,-22.216796875,[0. 0. 0. 0. 0. 0. 0. 0. 0.],-0.06396484375,-0.10302734375,0.98974609375,[0. 0. 0. 0. 0. 0. 0. 0. 0.]
4.840233325958252,-0.025883518159389496,-0.014894993975758553,0.7576189637184143,-0.6520135998725891,[0. 0. 0. 0. 0. 0. 0. 0. 0.],-0.48828125,-2.01416015625,-15.44189453125,[0. 0. 0. 0. 0. 0. 0. 0. 0.],-0.02294921875,-0.06884765625,0.96728515625,[0. 0. 0. 0. 0. 0. 0. 0. 0.]
4.862518787384033,-0.02376578561961651,-0.015359586104750633,0.7588913440704346,-0.6506022810935974,[0. 0. 0. 0. 0. 0. 0. 0. 0.],0.79345703125,-3.90625,-8.11767578125,[0. 0. 0. 0. 0. 0. 0. 0. 0.],-0.02734375,-0.05078125,1.0126953125,[0. 0. 0. 0. 0. 0. 0. 0. 0.]
4.880461692810059,-0.021839765831828117,-0.014800111763179302,0.7596482038497925,-0.6497989892959595,[0. 0. 0. 0. 0. 0. 0. 0. 0.],1.8310546875,-0.6103515625,-4.08935546875,[0. 0. 0. 0. 0. 0. 0. 0. 0.],0.01123046875,-0.01904296875,1.06201171875,[0. 0. 0. 0. 0. 0. 0. 0. 0.]
4.900564193725586,-0.020285040140151978,-0.014318651519715786,0.7600217461585999,-0.6494233012199402,[0. 0. 0. 0. 0. 0. 0. 0. 0.],-0.8544921875,-0.06103515625,-2.25830078125,[0. 0. 0. 0. 0. 0. 0. 0. 0.],0.00634765625,-0.021484375,0.98779296875,[0. 0. 0. 0. 0. 0. 0. 0. 0.]
4.92075777053833,-0.01850179210305214,-0.013716387562453747,0.7603709697723389,-0.6490806341171265,[0. 0. 0. 0. 0. 0. 0. 0. 0.],-0.244140625,-1.3427734375,-3.41796875,[0. 0. 0. 0. 0. 0. 0. 0. 0.],0.00732421875,-0.0185546875,0.95654296875,[0. 0. 0. 0. 0. 0. 0. 0. 0.]
4.940501928329468,-0.01725354790687561,-0.01288611814379692,0.7609033584594727,-0.648507833480835,[0. 0. 0. 0. 0. 0. 0. 0. 0.],0.18310546875,1.28173828125,-5.06591796875,[0. 0. 0. 0. 0. 0. 0. 0. 0.],0.00830078125,0.00390625,1.0087890625,[0. 0. 0. 0. 0. 0. 0. 0. 0.]
4.960465431213379,-0.016964023932814598,-0.011336403898894787,0.7616156339645386,-0.6477078795433044,[0. 0. 0. 0. 0. 0. 0. 0. 0.],3.96728515625,2.62451171875,-7.01904296875,[0. 0. 0. 0. 0. 0. 0. 0. 0.],-0.0107421875,0.04833984375,1.05908203125,[0. 0. 0. 0. 0. 0. 0. 0. 0.]
4.9806060791015625,-0.01876441016793251,-0.01011008583009243,0.7623437643051147,-0.646821141242981,[0. 0. 0. 0. 0. 0. 0. 0. 0.],2.13623046875,-0.06103515625,-6.16455078125,[0. 0. 0. 0. 0. 0. 0. 0. 0.],-0.07080078125,0.125,1.03515625,[0. 0. 0. 0. 0. 0. 0. 0. 0.]
5.000532388687134,-0.019976606592535973,-0.00888010486960411,0.7629793882369995,-0.64605313539505,[0. 0. 0. 0. 0. 0. 0. 0. 0.],1.8310546875,-3.84521484375,-5.31005859375,[0. 0. 0. 0. 0. 0. 0. 0. 0.],-0.07177734375,0.09619140625,0.99560546875,[0. 0. 0. 0. 0. 0. 0. 0. 0.]
5.021495819091797,-0.021068517118692398,-0.007368730381131172,0.7633568644523621,-0.6455913782119751,[0. 0. 0. 0. 0. 0. 0. 0. 0.],1.8310546875,-2.01416015625,-2.01416015625,[0. 0. 0. 0. 0. 0. 0. 0. 0.],-0.0537109375,0.0810546875,0.98095703125,[0. 0. 0. 0. 0. 0. 0. 0. 0.]
5.040545225143433,-0.02224547602236271,-0.00510939909145236,0.7633118629455566,-0.6456268429756165,[0. 0. 0. 0. 0. 0. 0. 0. 0.],3.60107421875,-5.18798828125,2.3193359375,[0. 0. 0. 0. 0. 0. 0. 0. 0.],-0.05224609375,0.08154296875,1.0009765625,[0. 0. 0. 0. 0. 0. 0. 0. 0.]
5.06056022644043,-0.023083563894033432,-0.002639598911628127,0.7623781561851501,-0.6467145085334778,[0. 0. 0. 0. 0. 0. 0. 0. 0.],3.72314453125,-5.2490234375,10.92529296875,[0. 0. 0. 0. 0. 0. 0. 0. 0.],-0.021484375,0.1025390625,1.02685546875,[0. 0. 0. 0. 0. 0. 0. 0. 0.]
5.081285238265991,-0.0234269667416811,6.815214146627113e-05,0.7608642578125,-0.6484881043434143,[0. 0. 0. 0. 0. 0. 0. 0. 0.],4.08935546875,-4.08935546875,13.916015625,[0. 0. 0. 0. 0. 0. 0. 0. 0.],0.0283203125,0.138671875,1.0341796875,[0. 0. 0. 0. 0. 0. 0. 0. 0.]
5.095975637435913,-0.023746658116579056,0.00216234871186316,0.7589531540870667,-0.6507085561752319,[0. 0. 0. 0. 0. 0. 0. 0. 0.],1.0986328125,-4.7607421875,17.7001953125,[0. 0. 0. 0. 0. 0. 0. 0. 0.],-0.00244140625,0.1337890625,0.98193359375,[0. 0. 0. 0. 0. 0. 0. 0. 0.]
5.12101149559021,-0.02447930909693241,0.004234011285007,0.7567300200462341,-0.6532554626464844,[0. 0. 0. 0. 0. 0. 0. 0. 0.],0.30517578125,-0.42724609375,19.6533203125,[0. 0. 0. 0. 0. 0. 0. 0. 0.],-0.0107421875,0.1494140625,0.9912109375,[0. 0. 0. 0. 0. 0. 0. 0. 0.]
5.140109539031982,-0.025091877207159996,0.0059180427342653275,0.7543721199035645,-0.655940592288971,[0. 0. 0. 0. 0. 0. 0. 0. 0.],-0.6103515625,-3.72314453125,20.3857421875,[0. 0. 0. 0. 0. 0. 0. 0. 0.],-0.033203125,0.130859375,0.97265625,[0. 0. 0. 0. 0. 0. 0. 0. 0.]
5.160327672958374,-0.025993723422288895,0.007554477546364069,0.7519201040267944,-0.6586983799934387,[0. 0. 0. 0. 0. 0. 0. 0. 0.],-1.64794921875,-0.79345703125,21.1181640625,[0. 0. 0. 0. 0. 0. 0. 0. 0.],-0.03759765625,0.1279296875,0.99072265625,[0. 0. 0. 0. 0. 0. 0. 0. 0.]
5.180168151855469,-0.026791613548994064,0.009226957336068153,0.7496845126152039,-0.661188542842865,[0. 0. 0. 0. 0. 0. 0. 0. 0.],-0.30517578125,-3.23486328125,18.00537109375,[0. 0. 0. 0. 0. 0. 0. 0. 0.],-0.025390625,0.11279296875,1.0234375,[0. 0. 0. 0. 0. 0. 0. 0. 0.]
5.2008140087127686,-0.027999883517622948,0.010730696842074394,0.7476544380187988,-0.6634107828140259,[0. 0. 0. 0. 0. 0. 0. 0. 0.],1.3427734375,0.0,16.78466796875,[0. 0. 0. 0. 0. 0. 0. 0. 0.],-0.0322265625,0.1220703125,1.04931640625,[0. 0. 0. 0. 0. 0. 0. 0. 0.]
5.220618724822998,-0.029357362538576126,0.011996994726359844,0.7457609176635742,-0.6654583215713501,[0. 0. 0. 0. 0. 0. 0. 0. 0.],-0.1220703125,1.5869140625,15.13671875,[0. 0. 0. 0. 0. 0. 0. 0. 0.],-0.02197265625,0.125,1.0185546875,[0. 0. 0. 0. 0. 0. 0. 0. 0.]
5.240935802459717,-0.030514974147081375,0.013442006893455982,0.7439914345741272,-0.6673567295074463,[0. 0. 0. 0. 0. 0. 0. 0. 0.],1.40380859375,0.9765625,14.83154296875,[0. 0. 0. 0. 0. 0. 0. 0. 0.],-0.02880859375,0.13134765625,1.00048828125,[0. 0. 0. 0. 0. 0. 0. 0. 0.]
5.262389183044434,-0.032485608011484146,0.014415602199733257,0.741881787776947,-0.6695881485939026,[0. 0. 0. 0. 0. 0. 0. 0. 0.],-0.79345703125,2.99072265625,13.36669921875,[0. 0. 0. 0. 0. 0. 0. 0. 0.],-0.04541015625,0.10693359375,0.97998046875,[0. 0. 0. 0. 0. 0. 0. 0. 0.]
5.280424118041992,-0.03386584296822548,0.014600529335439205,0.7408807873725891,-0.6706234216690063,[0. 0. 0. 0. 0. 0. 0. 0. 0.],-1.28173828125,1.64794921875,9.09423828125,[0. 0. 0. 0. 0. 0. 0. 0. 0.],-0.0439453125,0.09326171875,0.99853515625,[0. 0. 0. 0. 0. 0. 0. 0. 0.]
5.298107862472534,-0.03548537567257881,0.015247033908963203,0.7400920987129211,-0.6713956594467163,[0. 0. 0. 0. 0. 0. 0. 0. 0.],-1.46484375,3.5400390625,5.0048828125,[0. 0. 0. 0. 0. 0. 0. 0. 0.],-0.0400390625,0.08935546875,1.02587890625,[0. 0. 0. 0. 0. 0. 0. 0. 0.]
5.320783376693726,-0.034466784447431564,0.01242697611451149,0.73974609375,-0.6718878746032715,[0. 0. 0. 0. 0. 0. 0. 0. 0.],-8.4228515625,2.25830078125,3.23486328125,[0. 0. 0. 0. 0. 0. 0. 0. 0.],-0.0693359375,-0.109375,0.9248046875,[0. 0. 0. 0. 0. 0. 0. 0. 0.]
5.34537148475647,-0.0325806550681591,0.009550606831908226,0.7398695945739746,-0.6718931198120117,[0. 0. 0. 0. 0. 0. 0. 0. 0.],-3.60107421875,0.79345703125,-0.9765625,[0. 0. 0. 0. 0. 0. 0. 0. 0.],-0.0556640625,-0.17724609375,1.06396484375,[0. 0. 0. 0. 0. 0. 0. 0. 0.]
5.3560028076171875,-0.0313216932117939,0.008448646403849125,0.7400505542755127,-0.6717683672904968,[0. 0. 0. 0. 0. 0. 0. 0. 0.],-3.5400390625,-1.89208984375,-0.244140625,[0. 0. 0. 0. 0. 0. 0. 0. 0.],-0.06982421875,-0.205078125,0.98974609375,[0. 0. 0. 0. 0. 0. 0. 0. 0.]
5.3826375007629395,-0.02998489700257778,0.007010059431195259,0.740051805973053,-0.6718446612358093,[0. 0. 0. 0. 0. 0. 0. 0. 0.],-0.06103515625,-2.38037109375,-0.06103515625,[0. 0. 0. 0. 0. 0. 0. 0. 0.],-0.052734375,-0.16845703125,1.0185546875,[0. 0. 0. 0. 0. 0. 0. 0. 0.]
5.400611162185669,-0.028075240552425385,0.0049178446643054485,0.7398138046264648,-0.6722076535224915,[0. 0. 0. 0. 0. 0. 0. 0. 0.],-7.26318359375,0.3662109375,3.662109375,[0. 0. 0. 0. 0. 0. 0. 0. 0.],-0.0546875,-0.2158203125,0.89013671875,[0. 0. 0. 0. 0. 0. 0. 0. 0.]
5.420203447341919,-0.025590350851416588,0.0023177333641797304,0.7394771575927734,-0.6726912260055542,[0. 0. 0. 0. 0. 0. 0. 0. 0.],-10.07080078125,4.45556640625,5.37109375,[0. 0. 0. 0. 0. 0. 0. 0. 0.],-0.0341796875,-0.28076171875,0.9375,[0. 0. 0. 0. 0. 0. 0. 0. 0.]
5.4402756690979,-0.02354496903717518,-8.820220682537183e-05,0.7390594482421875,-0.6732286214828491,[0. 0. 0. 0. 0. 0. 0. 0. 0.],-2.99072265625,2.99072265625,5.615234375,[0. 0. 0. 0. 0. 0. 0. 0. 0.],-0.02587890625,-0.3212890625,1.0537109375,[0. 0. 0. 0. 0. 0. 0. 0. 0.]
5.455795049667358,-0.021439502015709877,-0.0014635755214840174,0.7386066317558289,-0.673794150352478,[0. 0. 0. 0. 0. 0. 0. 0. 0.],-4.5166015625,-8.23974609375,3.90625,[0. 0. 0. 0. 0. 0. 0. 0. 0.],-0.06591796875,-0.30078125,1.00537109375,[0. 0. 0. 0. 0. 0. 0. 0. 0.]
5.480376958847046,-0.019384782761335373,-0.002575566526502371,0.7381904721260071,-0.6743088960647583,[0. 0. 0. 0. 0. 0. 0. 0. 0.],-2.99072265625,-1.15966796875,4.0283203125,[0. 0. 0. 0. 0. 0. 0. 0. 0.],-0.0146484375,-0.29736328125,1.04296875,[0. 0. 0. 0. 0. 0. 0. 0. 0.]
5.500504493713379,-0.017654409632086754,-0.003611582098528743,0.7377218008041382,-0.6748643517494202,[0. 0. 0. 0. 0. 0. 0. 0. 0.],-1.28173828125,-6.34765625,3.60107421875,[0. 0. 0. 0. 0. 0. 0. 0. 0.],-0.0224609375,-0.2939453125,0.9931640625,[0. 0. 0. 0. 0. 0. 0. 0. 0.]
5.520390272140503,-0.016452910378575325,-0.004559091757982969,0.737258791923523,-0.6753947138786316,[0. 0. 0. 0. 0. 0. 0. 0. 0.],2.62451171875,0.91552734375,3.84521484375,[0. 0. 0. 0. 0. 0. 0. 0. 0.],0.01806640625,-0.2744140625,0.96044921875,[0. 0. 0. 0. 0. 0. 0. 0. 0.]
5.540920972824097,-0.01525828056037426,-0.004527628421783447,0.7370684742927551,-0.6756306886672974,[0. 0. 0. 0. 0. 0. 0. 0. 0.],2.5634765625,-2.197265625,3.60107421875,[0. 0. 0. 0. 0. 0. 0. 0. 0.],0.00244140625,-0.20458984375,1.021484375,[0. 0. 0. 0. 0. 0. 0. 0. 0.]
5.56021523475647,-0.013657301664352417,-0.0054755499586462975,0.7370281219482422,-0.675701916217804,[0. 0. 0. 0. 0. 0. 0. 0. 0.],-2.99072265625,4.45556640625,0.54931640625,[0. 0. 0. 0. 0. 0. 0. 0. 0.],0.0703125,-0.13916015625,0.98388671875,[0. 0. 0. 0. 0. 0. 0. 0. 0.]
5.580835580825806,-0.01223487313836813,-0.008131957612931728,0.7370433807373047,-0.675685703754425,[0. 0. 0. 0. 0. 0. 0. 0. 0.],-5.06591796875,4.69970703125,-2.62451171875,[0. 0. 0. 0. 0. 0. 0. 0. 0.],0.0380859375,-0.2080078125,0.9921875,[0. 0. 0. 0. 0. 0. 0. 0. 0.]
5.600459098815918,-0.011704527772963047,-0.009823266416788101,0.7368952035903931,-0.6758342981338501,[0. 0. 0. 0. 0. 0. 0. 0. 0.],3.5400390625,-3.60107421875,0.244140625,[0. 0. 0. 0. 0. 0. 0. 0. 0.],-0.11767578125,-0.2158203125,1.0771484375,[0. 0. 0. 0. 0. 0. 0. 0. 0.]
5.620030879974365,-0.011830499395728111,-0.010705005377531052,0.7364290952682495,-0.6763266324996948,[0. 0. 0. 0. 0. 0. 0. 0. 0.],5.615234375,-3.173828125,2.62451171875,[0. 0. 0. 0. 0. 0. 0. 0. 0.],-0.1083984375,-0.1904296875,0.994140625,[0. 0. 0. 0. 0. 0. 0. 0. 0.]
5.640290975570679,-0.011142165400087833,-0.012243143282830715,0.7358552813529968,-0.6769365072250366,[0. 0. 0. 0. 0. 0. 0. 0. 0.],-5.55419921875,-6.53076171875,3.47900390625,[0. 0. 0. 0. 0. 0. 0. 0. 0.],-0.1064453125,-0.14599609375,0.89794921875,[0. 0. 0. 0. 0. 0. 0. 0. 0.]
5.660069704055786,-0.00901493988931179,-0.013333852402865887,0.7353333234786987,-0.6775144934654236,[0. 0. 0. 0. 0. 0. 0. 0. 0.],-2.25830078125,-8.1787109375,3.7841796875,[0. 0. 0. 0. 0. 0. 0. 0. 0.],-0.07470703125,-0.17431640625,0.94873046875,[0. 0. 0. 0. 0. 0. 0. 0. 0.]
5.680181503295898,-0.008199356496334076,-0.013687435537576675,0.7351844310760498,-0.6776793599128723,[0. 0. 0. 0. 0. 0. 0. 0. 0.],7.50732421875,5.43212890625,0.8544921875,[0. 0. 0. 0. 0. 0. 0. 0. 0.],0.09375,-0.19970703125,1.138671875,[0. 0. 0. 0. 0. 0. 0. 0. 0.]
5.700685977935791,-0.008318443782627583,-0.01377910003066063,0.7349750995635986,-0.6779029965400696,[0. 0. 0. 0. 0. 0. 0. 0. 0.],8.30078125,-1.89208984375,3.11279296875,[0. 0. 0. 0. 0. 0. 0. 0. 0.],-0.02734375,-0.18994140625,1.01904296875,[0. 0. 0. 0. 0. 0. 0. 0. 0.]
5.715812683105469,-0.00792178325355053,-0.014184332452714443,0.7343620657920837,-0.6785635352134705,[0. 0. 0. 0. 0. 0. 0. 0. 0.],2.8076171875,-7.080078125,6.2255859375,[0. 0. 0. 0. 0. 0. 0. 0. 0.],-0.0927734375,-0.09912109375,0.88818359375,[0. 0. 0. 0. 0. 0. 0. 0. 0.]
5.741037607192993,-0.006200097966939211,-0.015668638050556183,0.7337791323661804,-0.6791790723800659,[0. 0. 0. 0. 0. 0. 0. 0. 0.],-6.16455078125,2.74658203125,5.43212890625,[0. 0. 0. 0. 0. 0. 0. 0. 0.],-0.01220703125,-0.09619140625,0.888671875,[0. 0. 0. 0. 0. 0. 0. 0. 0.]
5.760351657867432,-0.005086622666567564,-0.017393184825778008,0.7332524657249451,-0.679715096950531,[0. 0. 0. 0. 0. 0. 0. 0. 0.],-0.18310546875,-1.52587890625,5.06591796875,[0. 0. 0. 0. 0. 0. 0. 0. 0.],-0.07763671875,-0.1220703125,1.07568359375,[0. 0. 0. 0. 0. 0. 0. 0. 0.]
5.7846763134002686,-0.004111341200768948,-0.017364535480737686,0.7323471903800964,-0.680697500705719,[0. 0. 0. 0. 0. 0. 0. 0. 0.],4.45556640625,-7.38525390625,5.2490234375,[0. 0. 0. 0. 0. 0. 0. 0. 0.],-0.05126953125,-0.095703125,1.09814453125,[0. 0. 0. 0. 0. 0. 0. 0. 0.]
5.802557706832886,-0.0029477663338184357,-0.016586357727646828,0.7318902611732483,-0.6812143325805664,[0. 0. 0. 0. 0. 0. 0. 0. 0.],4.57763671875,-6.4697265625,5.0048828125,[0. 0. 0. 0. 0. 0. 0. 0. 0.],0.01123046875,-0.06298828125,0.98828125,[0. 0. 0. 0. 0. 0. 0. 0. 0.]
5.820708990097046,-0.001174192875623703,-0.01618833653628826,0.7314233779907227,-0.6817304491996765,[0. 0. 0. 0. 0. 0. 0. 0. 0.],-3.60107421875,2.44140625,4.8828125,[0. 0. 0. 0. 0. 0. 0. 0. 0.],0.01611328125,-0.029296875,0.9287109375,[0. 0. 0. 0. 0. 0. 0. 0. 0.]
5.840472936630249,-8.558804984204471e-05,-0.015713036060333252,0.7310511469841003,-0.6821417808532715,[0. 0. 0. 0. 0. 0. 0. 0. 0.],9.521484375,5.67626953125,2.99072265625,[0. 0. 0. 0. 0. 0. 0. 0. 0.],0.0439453125,-0.0849609375,1.0654296875,[0. 0. 0. 0. 0. 0. 0. 0. 0.]
5.867640256881714,-0.00040129927219823003,-0.01410167757421732,0.7307505011558533,-0.6824989318847656,[0. 0. 0. 0. 0. 0. 0. 0. 0.],0.3662109375,2.197265625,4.2724609375,[0. 0. 0. 0. 0. 0. 0. 0. 0.],-0.0078125,0.0087890625,0.97705078125,[0. 0. 0. 0. 0. 0. 0. 0. 0.]
5.881237268447876,-0.0016998216742649674,-0.013504290953278542,0.7304308414459229,-0.6828510761260986,[0. 0. 0. 0. 0. 0. 0. 0. 0.],0.0,1.52587890625,3.0517578125,[0. 0. 0. 0. 0. 0. 0. 0. 0.],-0.03271484375,-0.00439453125,1.06982421875,[0. 0. 0. 0. 0. 0. 0. 0. 0.]
5.905454397201538,-0.004026706796139479,-0.014529523439705372,0.7300989627838135,-0.6831751465797424,[0. 0. 0. 0. 0. 0. 0. 0. 0.],4.08935546875,5.92041015625,-1.8310546875,[0. 0. 0. 0. 0. 0. 0. 0. 0.],-0.037109375,-0.01171875,1.01806640625,[0. 0. 0. 0. 0. 0. 0. 0. 0.]
5.924585580825806,-0.00553250964730978,-0.017371362075209618,0.7316488027572632,-0.6814379096031189,[0. 0. 0. 0. 0. 0. 0. 0. 0.],-2.3193359375,9.82666015625,-18.1884765625,[0. 0. 0. 0. 0. 0. 0. 0. 0.],-0.130859375,-0.07568359375,0.8671875,[0. 0. 0. 0. 0. 0. 0. 0. 0.]
5.946136236190796,-0.006745734717696905,-0.01950189657509327,0.7350020408630371,-0.677750825881958,[0. 0. 0. 0. 0. 0. 0. 0. 0.],6.7138671875,6.65283203125,-32.16552734375,[0. 0. 0. 0. 0. 0. 0. 0. 0.],-0.1240234375,-0.052734375,1.09228515625,[0. 0. 0. 0. 0. 0. 0. 0. 0.]
5.963488340377808,-0.009557771496474743,-0.02070324867963791,0.739822268486023,-0.6724159121513367,[0. 0. 0. 0. 0. 0. 0. 0. 0.],5.859375,9.33837890625,-45.8984375,[0. 0. 0. 0. 0. 0. 0. 0. 0.],-0.16064453125,-0.001953125,0.9697265625,[0. 0. 0. 0. 0. 0. 0. 0. 0.]
5.9805920124053955,-0.011287885718047619,-0.021894749253988266,0.7442672252655029,-0.6674275398254395,[0. 0. 0. 0. 0. 0. 0. 0. 0.],-1.220703125,4.45556640625,-54.3212890625,[0. 0. 0. 0. 0. 0. 0. 0. 0.],-0.216796875,0.0322265625,0.8740234375,[0. 0. 0. 0. 0. 0. 0. 0. 0.]
6.002728462219238,-0.013558444567024708,-0.023835372179746628,0.7533424496650696,-0.6570565700531006,[0. 0. 0. 0. 0. 0. 0. 0. 0.],1.220703125,4.2724609375,-68.603515625,[0. 0. 0. 0. 0. 0. 0. 0. 0.],-0.22021484375,0.01611328125,1.041015625,[0. 0. 0. 0. 0. 0. 0. 0. 0.]
6.020324468612671,-0.015075198374688625,-0.02476070262491703,0.7596542835235596,-0.6496807932853699,[0. 0. 0. 0. 0. 0. 0. 0. 0.],0.18310546875,5.67626953125,-77.57568359375,[0. 0. 0. 0. 0. 0. 0. 0. 0.],-0.23095703125,0.0283203125,1.052734375,[0. 0. 0. 0. 0. 0. 0. 0. 0.]
6.0415990352630615,-0.016874872148036957,-0.026380380615592003,0.7688945531845093,-0.6386083364486694,[0. 0. 0. 0. 0. 0. 0. 0. 0.],-1.77001953125,2.25830078125,-87.09716796875,[0. 0. 0. 0. 0. 0. 0. 0. 0.],-0.22119140625,0.02783203125,0.99072265625,[0. 0. 0. 0. 0. 0. 0. 0. 0.]
6.060270309448242,-0.018271826207637787,-0.027922743931412697,0.7784746289253235,-0.6267884969711304,[0. 0. 0. 0. 0. 0. 0. 0. 0.],2.38037109375,10.3759765625,-87.890625,[0. 0. 0. 0. 0. 0. 0. 0. 0.],-0.21435546875,-0.0205078125,0.99560546875,[0. 0. 0. 0. 0. 0. 0. 0. 0.]
6.081003427505493,-0.021705739200115204,-0.0303666815161705,0.7882910966873169,-0.6141692996025085,[0. 0. 0. 0. 0. 0. 0. 0. 0.],-1.46484375,11.16943359375,-93.68896484375,[0. 0. 0. 0. 0. 0. 0. 0. 0.],-0.162109375,0.01806640625,0.99072265625,[0. 0. 0. 0. 0. 0. 0. 0. 0.]
6.095799684524536,-0.023008214309811592,-0.030760394409298897,0.798499584197998,-0.6007686257362366,[0. 0. 0. 0. 0. 0. 0. 0. 0.],8.11767578125,-2.197265625,-98.876953125,[0. 0. 0. 0. 0. 0. 0. 0. 0.],-0.29248046875,-0.01416015625,1.1142578125,[0. 0. 0. 0. 0. 0. 0. 0. 0.]
6.120116233825684,-0.025766611099243164,-0.031035514548420906,0.808643639087677,-0.5869143605232239,[0. 0. 0. 0. 0. 0. 0. 0. 0.],9.6435546875,9.09423828125,-97.71728515625,[0. 0. 0. 0. 0. 0. 0. 0. 0.],-0.21923828125,-0.00146484375,1.046875,[0. 0. 0. 0. 0. 0. 0. 0. 0.]
6.14035177230835,-0.027849163860082626,-0.03264356404542923,0.8182759284973145,-0.5732220411300659,[0. 0. 0. 0. 0. 0. 0. 0. 0.],-2.25830078125,6.8359375,-95.76416015625,[0. 0. 0. 0. 0. 0. 0. 0. 0.],-0.29443359375,0.03369140625,0.94140625,[0. 0. 0. 0. 0. 0. 0. 0. 0.]
6.160234451293945,-0.029374362900853157,-0.03398892655968666,0.827724039554596,-0.5593343377113342,[0. 0. 0. 0. 0. 0. 0. 0. 0.],3.7841796875,2.01416015625,-95.88623046875,[0. 0. 0. 0. 0. 0. 0. 0. 0.],-0.33251953125,-0.015625,0.98779296875,[0. 0. 0. 0. 0. 0. 0. 0. 0.]
6.18014121055603,-0.03155265003442764,-0.03462148457765579,0.8368613719940186,-0.5454070568084717,[0. 0. 0. 0. 0. 0. 0. 0. 0.],7.32421875,7.62939453125,-95.88623046875,[0. 0. 0. 0. 0. 0. 0. 0. 0.],-0.29638671875,-0.0205078125,0.98681640625,[0. 0. 0. 0. 0. 0. 0. 0. 0.]
6.20126485824585,-0.03410956263542175,-0.03520838916301727,0.8458594083786011,-0.5311486124992371,[0. 0. 0. 0. 0. 0. 0. 0. 0.],7.9345703125,4.82177734375,-96.923828125,[0. 0. 0. 0. 0. 0. 0. 0. 0.],-0.28369140625,0.01806640625,1.00048828125,[0. 0. 0. 0. 0. 0. 0. 0. 0.]
6.2204554080963135,-0.03549261391162872,-0.03514788672327995,0.8547143936157227,-0.5166897177696228,[0. 0. 0. 0. 0. 0. 0. 0. 0.],8.23974609375,-2.5634765625,-96.61865234375,[0. 0. 0. 0. 0. 0. 0. 0. 0.],-0.34814453125,0.01220703125,1.02001953125,[0. 0. 0. 0. 0. 0. 0. 0. 0.]
6.2358152866363525,-0.03659943863749504,-0.03573395311832428,0.863338053226471,-0.5020269155502319,[0. 0. 0. 0. 0. 0. 0. 0. 0.],-0.6103515625,-0.06103515625,-97.22900390625,[0. 0. 0. 0. 0. 0. 0. 0. 0.],-0.30078125,0.03662109375,0.91162109375,[0. 0. 0. 0. 0. 0. 0. 0. 0.]
6.260397911071777,-0.03707754984498024,-0.03730340301990509,0.8714544773101807,-0.48764845728874207,[0. 0. 0. 0. 0. 0. 0. 0. 0.],-3.23486328125,-0.244140625,-91.6748046875,[0. 0. 0. 0. 0. 0. 0. 0. 0.],-0.30224609375,-0.0107421875,0.904296875,[0. 0. 0. 0. 0. 0. 0. 0. 0.]
6.280688285827637,-0.03876994922757149,-0.03918379917740822,0.8785768151283264,-0.4744095802307129,[0. 0. 0. 0. 0. 0. 0. 0. 0.],0.30517578125,0.54931640625,-82.45849609375,[0. 0. 0. 0. 0. 0. 0. 0. 0.],-0.24267578125,-0.037109375,0.982421875,[0. 0. 0. 0. 0. 0. 0. 0. 0.]
6.301108360290527,-0.03878356143832207,-0.04049469903111458,0.8847733736038208,-0.46263596415519714,[0. 0. 0. 0. 0. 0. 0. 0. 0.],-1.64794921875,-6.89697265625,-73.54736328125,[0. 0. 0. 0. 0. 0. 0. 0. 0.],-0.2802734375,-0.01123046875,1.0830078125,[0. 0. 0. 0. 0. 0. 0. 0. 0.]
6.320193767547607,-0.038958482444286346,-0.04034162685275078,0.8899872899055481,-0.45252344012260437,[0. 0. 0. 0. 0. 0. 0. 0. 0.],8.11767578125,-6.2255859375,-59.26513671875,[0. 0. 0. 0. 0. 0. 0. 0. 0.],-0.22216796875,-0.0546875,1.14990234375,[0. 0. 0. 0. 0. 0. 0. 0. 0.]
6.33593487739563,-0.039611831307411194,-0.03992528095841408,0.8939635753631592,-0.444596529006958,[0. 0. 0. 0. 0. 0. 0. 0. 0.],1.15966796875,-10.07080078125,-44.43359375,[0. 0. 0. 0. 0. 0. 0. 0. 0.],-0.16015625,-0.001953125,0.98779296875,[0. 0. 0. 0. 0. 0. 0. 0. 0.]
6.360473155975342,-0.03903203085064888,-0.03762629255652428,0.8968546390533447,-0.43899044394493103,[0. 0. 0. 0. 0. 0. 0. 0. 0.],7.87353515625,-6.77490234375,-32.470703125,[0. 0. 0. 0. 0. 0. 0. 0. 0.],-0.07861328125,0.0166015625,1.025390625,[0. 0. 0. 0. 0. 0. 0. 0. 0.]
6.376232862472534,-0.03981268033385277,-0.035069070756435394,0.8985873460769653,-0.43557533621788025,[0. 0. 0. 0. 0. 0. 0. 0. 0.],6.4697265625,0.67138671875,-17.4560546875,[0. 0. 0. 0. 0. 0. 0. 0. 0.],-0.056640625,0.09765625,0.9765625,[0. 0. 0. 0. 0. 0. 0. 0. 0.]
6.400205850601196,-0.04058438539505005,-0.03374772518873215,0.8995556235313416,-0.4336055815219879,[0. 0. 0. 0. 0. 0. 0. 0. 0.],-3.41796875,-0.67138671875,-11.5966796875,[0. 0. 0. 0. 0. 0. 0. 0. 0.],-0.10498046875,0.15380859375,0.9189453125,[0. 0. 0. 0. 0. 0. 0. 0. 0.]
6.421210289001465,-0.04076544567942619,-0.03245757520198822,0.9002835750579834,-0.43217402696609497,[0. 0. 0. 0. 0. 0. 0. 0. 0.],-4.8828125,-3.11279296875,-8.85009765625,[0. 0. 0. 0. 0. 0. 0. 0. 0.],-0.11376953125,0.10498046875,0.99462890625,[0. 0. 0. 0. 0. 0. 0. 0. 0.]
6.440179347991943,-0.04120618477463722,-0.030439548194408417,0.9010342359542847,-0.4307120144367218,[0. 0. 0. 0. 0. 0. 0. 0. 0.],6.04248046875,1.953125,-10.8642578125,[0. 0. 0. 0. 0. 0. 0. 0. 0.],-0.06884765625,0.091796875,1.11572265625,[0. 0. 0. 0. 0. 0. 0. 0. 0.]
6.460110664367676,-0.04165582358837128,-0.027976782992482185,0.9018863439559937,-0.4290492832660675,[0. 0. 0. 0. 0. 0. 0. 0. 0.],3.35693359375,-2.5634765625,-12.02392578125,[0. 0. 0. 0. 0. 0. 0. 0. 0.],-0.052734375,0.1328125,0.99072265625,[0. 0. 0. 0. 0. 0. 0. 0. 0.]
6.481659412384033,-0.04160705953836441,-0.027089770883321762,0.9026337265968323,-0.42753639817237854,[0. 0. 0. 0. 0. 0. 0. 0. 0.],-7.14111328125,-1.953125,-10.25390625,[0. 0. 0. 0. 0. 0. 0. 0. 0.],-0.08447265625,0.158203125,0.85498046875,[0. 0. 0. 0. 0. 0. 0. 0. 0.]
6.500474452972412,-0.04166858643293381,-0.026232637465000153,0.9033216834068298,-0.4261285960674286,[0. 0. 0. 0. 0. 0. 0. 0. 0.],-2.8076171875,0.732421875,-8.9111328125,[0. 0. 0. 0. 0. 0. 0. 0. 0.],-0.06884765625,0.1005859375,0.9296875,[0. 0. 0. 0. 0. 0. 0. 0. 0.]
6.520250082015991,-0.041634730994701385,-0.025515180081129074,0.9039127826690674,-0.42492038011550903,[0. 0. 0. 0. 0. 0. 0. 0. 0.],-4.7607421875,-6.65283203125,-7.87353515625,[0. 0. 0. 0. 0. 0. 0. 0. 0.],-0.12109375,0.1318359375,1.0556640625,[0. 0. 0. 0. 0. 0. 0. 0. 0.]
6.540203332901001,-0.04147013649344444,-0.024199705570936203,0.904466450214386,-0.4238339364528656,[0. 0. 0. 0. 0. 0. 0. 0. 0.],-0.67138671875,-2.25830078125,-6.591796875,[0. 0. 0. 0. 0. 0. 0. 0. 0.],-0.1025390625,0.10986328125,1.16552734375,[0. 0. 0. 0. 0. 0. 0. 0. 0.]
6.56078028678894,-0.041216976940631866,-0.021780429407954216,0.9049950242042542,-0.4228604733943939,[0. 0. 0. 0. 0. 0. 0. 0. 0.],4.57763671875,-6.9580078125,-6.103515625,[0. 0. 0. 0. 0. 0. 0. 0. 0.],-0.09228515625,0.09423828125,1.03662109375,[0. 0. 0. 0. 0. 0. 0. 0. 0.]
6.580734014511108,-0.04101816937327385,-0.02028496377170086,0.905530571937561,-0.421806275844574,[0. 0. 0. 0. 0. 0. 0. 0. 0.],-6.2255859375,-0.1220703125,-6.4697265625,[0. 0. 0. 0. 0. 0. 0. 0. 0.],-0.0458984375,0.14794921875,0.91748046875,[0. 0. 0. 0. 0. 0. 0. 0. 0.]
6.595386505126953,-0.04026129096746445,-0.01847015507519245,0.9061547517776489,-0.4206206202507019,[0. 0. 0. 0. 0. 0. 0. 0. 0.],2.38037109375,-3.84521484375,-8.7890625,[0. 0. 0. 0. 0. 0. 0. 0. 0.],-0.03955078125,0.0859375,1.03662109375,[0. 0. 0. 0. 0. 0. 0. 0. 0.]
6.620502710342407,-0.04005958512425423,-0.015795545652508736,0.9068834185600281,-0.41917580366134644,[0. 0. 0. 0. 0. 0. 0. 0. 0.],9.6435546875,1.89208984375,-9.27734375,[0. 0. 0. 0. 0. 0. 0. 0. 0.],-0.00732421875,0.0712890625,1.09326171875,[0. 0. 0. 0. 0. 0. 0. 0. 0.]
6.635860204696655,-0.040437616407871246,-0.013623218983411789,0.9074740409851074,-0.41793569922447205,[0. 0. 0. 0. 0. 0. 0. 0. 0.],-1.3427734375,1.28173828125,-7.75146484375,[0. 0. 0. 0. 0. 0. 0. 0. 0.],-0.04833984375,0.13671875,0.94384765625,[0. 0. 0. 0. 0. 0. 0. 0. 0.]
6.661370038986206,-0.04078003391623497,-0.01298142783343792,0.9080185294151306,-0.416738361120224,[0. 0. 0. 0. 0. 0. 0. 0. 0.],-4.45556640625,1.8310546875,-8.4228515625,[0. 0. 0. 0. 0. 0. 0. 0. 0.],-0.04638671875,0.119140625,0.97802734375,[0. 0. 0. 0. 0. 0. 0. 0. 0.]
6.680543899536133,-0.0408303327858448,-0.011163286864757538,0.9086543321609497,-0.4153982102870941,[0. 0. 0. 0. 0. 0. 0. 0. 0.],2.13623046875,-6.2255859375,-7.9345703125,[0. 0. 0. 0. 0. 0. 0. 0. 0.],-0.1044921875,0.068359375,1.03271484375,[0. 0. 0. 0. 0. 0. 0. 0. 0.]
6.702563762664795,-0.04136807844042778,-0.009051291272044182,0.9092190861701965,-0.4141589105129242,[0. 0. 0. 0. 0. 0. 0. 0. 0.],5.79833984375,1.46484375,-8.30078125,[0. 0. 0. 0. 0. 0. 0. 0. 0.],-0.0556640625,0.083984375,1.02783203125,[0. 0. 0. 0. 0. 0. 0. 0. 0.]
6.72021484375,-0.04143979400396347,-0.006177252158522606,0.9098882675170898,-0.41273248195648193,[0. 0. 0. 0. 0. 0. 0. 0. 0.],7.87353515625,-3.41796875,-10.19287109375,[0. 0. 0. 0. 0. 0. 0. 0. 0.],-0.03515625,0.09716796875,1.04443359375,[0. 0. 0. 0. 0. 0. 0. 0. 0.]
6.740752696990967,-0.041557107120752335,-0.0042071351781487465,0.9105553030967712,-0.41127172112464905,[0. 0. 0. 0. 0. 0. 0. 0. 0.],-1.89208984375,-2.01416015625,-8.9111328125,[0. 0. 0. 0. 0. 0. 0. 0. 0.],-0.07373046875,0.1279296875,0.921875,[0. 0. 0. 0. 0. 0. 0. 0. 0.]
6.760229825973511,-0.04206540808081627,-0.002821824513375759,0.9110775589942932,-0.41007357835769653,[0. 0. 0. 0. 0. 0. 0. 0. 0.],0.1220703125,0.42724609375,-7.62939453125,[0. 0. 0. 0. 0. 0. 0. 0. 0.],-0.0634765625,0.0703125,0.9365234375,[0. 0. 0. 0. 0. 0. 0. 0. 0.]
6.780405282974243,-0.042269594967365265,-0.0013857415178790689,0.911550760269165,-0.40900683403015137,[0. 0. 0. 0. 0. 0. 0. 0. 0.],-3.662109375,-4.21142578125,-7.26318359375,[0. 0. 0. 0. 0. 0. 0. 0. 0.],-0.08837890625,0.0908203125,0.9140625,[0. 0. 0. 0. 0. 0. 0. 0. 0.]
6.800359010696411,-0.04229995608329773,-0.0002354897151235491,0.9119862914085388,-0.4080340564250946,[0. 0. 0. 0. 0. 0. 0. 0. 0.],-3.47900390625,-7.14111328125,-7.2021484375,[0. 0. 0. 0. 0. 0. 0. 0. 0.],-0.08984375,0.0849609375,1.1044921875,[0. 0. 0. 0. 0. 0. 0. 0. 0.]
6.820602178573608,-0.04245036095380783,0.0012170631671324372,0.9123504757881165,-0.4072015583515167,[0. 0. 0. 0. 0. 0. 0. 0. 0.],1.220703125,-1.64794921875,-4.94384765625,[0. 0. 0. 0. 0. 0. 0. 0. 0.],-0.0830078125,0.05859375,1.12353515625,[0. 0. 0. 0. 0. 0. 0. 0. 0.]
6.8409035205841064,-0.0427517294883728,0.0017981266137212515,0.91262286901474,-0.4065569341182709,[0. 0. 0. 0. 0. 0. 0. 0. 0.],2.8076171875,-9.6435546875,-3.11279296875,[0. 0. 0. 0. 0. 0. 0. 0. 0.],-0.10009765625,0.037109375,0.94482421875,[0. 0. 0. 0. 0. 0. 0. 0. 0.]
6.860215663909912,-0.042818691581487656,0.0026977581437677145,0.912776529788971,-0.4062000513076782,[0. 0. 0. 0. 0. 0. 0. 0. 0.],-4.638671875,1.3427734375,-2.197265625,[0. 0. 0. 0. 0. 0. 0. 0. 0.],-0.04345703125,0.072265625,0.92529296875,[0. 0. 0. 0. 0. 0. 0. 0. 0.]
6.880619287490845,-0.04052261635661125,0.0028838664293289185,0.9130074977874756,-0.4059150516986847,[0. 0. 0. 0. 0. 0. 0. 0. 0.],1.64794921875,-6.77490234375,-1.708984375,[0. 0. 0. 0. 0. 0. 0. 0. 0.],-0.0654296875,0.0146484375,1.08154296875,[0. 0. 0. 0. 0. 0. 0. 0. 0.]
6.900355339050293,-0.03890989348292351,0.003516098950058222,0.9132922291755676,-0.40542685985565186,[0. 0. 0. 0. 0. 0. 0. 0. 0.],10.68115234375,-3.173828125,-2.74658203125,[0. 0. 0. 0. 0. 0. 0. 0. 0.],-0.02392578125,-0.0078125,1.1044921875,[0. 0. 0. 0. 0. 0. 0. 0. 0.]
6.920679330825806,-0.03809130936861038,0.005154875572770834,0.9134703278541565,-0.4050857126712799,[0. 0. 0. 0. 0. 0. 0. 0. 0.],2.3193359375,0.91552734375,-1.28173828125,[0. 0. 0. 0. 0. 0. 0. 0. 0.],-0.01220703125,0.05810546875,0.92822265625,[0. 0. 0. 0. 0. 0. 0. 0. 0.]
6.942678451538086,-0.03732213005423546,0.0058571347035467625,0.9135333895683289,-0.4050056040287018,[0. 0. 0. 0. 0. 0. 0. 0. 0.],-7.75146484375,2.99072265625,-1.3427734375,[0. 0. 0. 0. 0. 0. 0. 0. 0.],-0.0263671875,0.05908203125,0.91015625,[0. 0. 0. 0. 0. 0. 0. 0. 0.]
6.960636377334595,-0.035649556666612625,0.005065698176622391,0.9137066006660461,-0.4047761559486389,[0. 0. 0. 0. 0. 0. 0. 0. 0.],0.9765625,-3.173828125,-1.3427734375,[0. 0. 0. 0. 0. 0. 0. 0. 0.],-0.0537109375,-0.00830078125,1.06884765625,[0. 0. 0. 0. 0. 0. 0. 0. 0.]
6.981273889541626,-0.034701958298683167,0.004414154216647148,0.9138548970222473,-0.4045312702655792,[0. 0. 0. 0. 0. 0. 0. 0. 0.],1.89208984375,-6.4697265625,-0.9765625,[0. 0. 0. 0. 0. 0. 0. 0. 0.],-0.07861328125,0.0126953125,1.01025390625,[0. 0. 0. 0. 0. 0. 0. 0. 0.]
7.001420497894287,-0.03348710015416145,0.004958345089107752,0.914038360118866,-0.4042128026485443,[0. 0. 0. 0. 0. 0. 0. 0. 0.],4.0283203125,1.28173828125,-2.86865234375,[0. 0. 0. 0. 0. 0. 0. 0. 0.],0.029296875,0.02490234375,1.04736328125,[0. 0. 0. 0. 0. 0. 0. 0. 0.]
7.020518064498901,-0.032068002969026566,0.005616819020360708,0.9143232703208923,-0.40367457270622253,[0. 0. 0. 0. 0. 0. 0. 0. 0.],0.0,-2.197265625,-3.662109375,[0. 0. 0. 0. 0. 0. 0. 0. 0.],-0.02783203125,0.02392578125,0.97705078125,[0. 0. 0. 0. 0. 0. 0. 0. 0.]
7.041218519210815,-0.0309602040797472,0.0067225429229438305,0.914559543132782,-0.4032086133956909,[0. 0. 0. 0. 0. 0. 0. 0. 0.],-4.638671875,-0.244140625,-3.60107421875,[0. 0. 0. 0. 0. 0. 0. 0. 0.],-0.02734375,0.0390625,0.8916015625,[0. 0. 0. 0. 0. 0. 0. 0. 0.]
7.056122064590454,-0.029626837000250816,0.005761155392974615,0.9148142337799072,-0.4027455747127533,[0. 0. 0. 0. 0. 0. 0. 0. 0.],-3.11279296875,3.60107421875,-2.685546875,[0. 0. 0. 0. 0. 0. 0. 0. 0.],-0.0146484375,0.0009765625,0.9189453125,[0. 0. 0. 0. 0. 0. 0. 0. 0.]
7.083985090255737,-0.02951713651418686,0.0043190219439566135,0.9149953126907349,-0.4023601710796356,[0. 0. 0. 0. 0. 0. 0. 0. 0.],-3.47900390625,-5.06591796875,-1.953125,[0. 0. 0. 0. 0. 0. 0. 0. 0.],-0.095703125,0.029296875,1.01611328125,[0. 0. 0. 0. 0. 0. 0. 0. 0.]
7.100187301635742,-0.03026985563337803,0.003311185399070382,0.9151655435562134,-0.4019264280796051,[0. 0. 0. 0. 0. 0. 0. 0. 0.],-5.2490234375,-2.5634765625,-2.3193359375,[0. 0. 0. 0. 0. 0. 0. 0. 0.],-0.0703125,0.03857421875,1.13916015625,[0. 0. 0. 0. 0. 0. 0. 0. 0.]
7.120866775512695,-0.030557073652744293,0.002608157694339752,0.9152452349662781,-0.4017283022403717,[0. 0. 0. 0. 0. 0. 0. 0. 0.],0.0,0.1220703125,-0.6103515625,[0. 0. 0. 0. 0. 0. 0. 0. 0.],-0.068359375,0.01953125,1.10205078125,[0. 0. 0. 0. 0. 0. 0. 0. 0.]
7.1418092250823975,-0.0308651402592659,0.0022172085009515285,0.9151850938796997,-0.4018441438674927,[0. 0. 0. 0. 0. 0. 0. 0. 0.],1.3427734375,-8.1787109375,1.64794921875,[0. 0. 0. 0. 0. 0. 0. 0. 0.],-0.10009765625,0.01708984375,0.9384765625,[0. 0. 0. 0. 0. 0. 0. 0. 0.]
7.161738157272339,-0.030588116496801376,0.0030297941993921995,0.9151379466056824,-0.40196743607521057,[0. 0. 0. 0. 0. 0. 0. 0. 0.],-3.11279296875,3.35693359375,0.3662109375,[0. 0. 0. 0. 0. 0. 0. 0. 0.],0.0087890625,0.05517578125,0.9609375,[0. 0. 0. 0. 0. 0. 0. 0. 0.]
7.181116104125977,-0.028733665123581886,0.0034568298142403364,0.915154218673706,-0.4020637571811676,[0. 0. 0. 0. 0. 0. 0. 0. 0.],-0.732421875,-3.41796875,0.06103515625,[0. 0. 0. 0. 0. 0. 0. 0. 0.],-0.03271484375,0.02001953125,1.056640625,[0. 0. 0. 0. 0. 0. 0. 0. 0.]
7.200674772262573,-0.027317458763718605,0.0029990244656801224,0.9152430295944214,-0.40196406841278076,[0. 0. 0. 0. 0. 0. 0. 0. 0.],3.0517578125,0.06103515625,-0.732421875,[0. 0. 0. 0. 0. 0. 0. 0. 0.],-0.00537109375,-0.10498046875,1.05859375,[0. 0. 0. 0. 0. 0. 0. 0. 0.]
7.221250772476196,-0.026705097407102585,0.001417405204847455,0.9153200387954712,-0.4018385410308838,[0. 0. 0. 0. 0. 0. 0. 0. 0.],-6.04248046875,6.16455078125,-1.220703125,[0. 0. 0. 0. 0. 0. 0. 0. 0.],0.0458984375,-0.1220703125,0.90185546875,[0. 0. 0. 0. 0. 0. 0. 0. 0.]
7.23526668548584,-0.025525875389575958,-0.001969069940969348,0.9153963327407837,-0.4017387926578522,[0. 0. 0. 0. 0. 0. 0. 0. 0.],-11.474609375,4.150390625,-0.30517578125,[0. 0. 0. 0. 0. 0. 0. 0. 0.],-0.01611328125,-0.1845703125,0.931640625,[0. 0. 0. 0. 0. 0. 0. 0. 0.]
7.261557102203369,-0.024113725870847702,-0.005018570926040411,0.9153947830200195,-0.401803195476532,[0. 0. 0. 0. 0. 0. 0. 0. 0.],-7.32421875,-6.28662109375,1.0986328125,[0. 0. 0. 0. 0. 0. 0. 0. 0.],-0.12109375,-0.26318359375,1.03271484375,[0. 0. 0. 0. 0. 0. 0. 0. 0.]
7.2811126708984375,-0.023012520745396614,-0.0072503965348005295,0.9155309796333313,-0.4015234708786011,[0. 0. 0. 0. 0. 0. 0. 0. 0.],-3.35693359375,2.685546875,-2.685546875,[0. 0. 0. 0. 0. 0. 0. 0. 0.],0.04833984375,-0.28759765625,1.08642578125,[0. 0. 0. 0. 0. 0. 0. 0. 0.]
7.29981541633606,-0.02134629711508751,-0.009127447381615639,0.915755569934845,-0.4010644853115082,[0. 0. 0. 0. 0. 0. 0. 0. 0.],-6.77490234375,-9.27734375,-0.3662109375,[0. 0. 0. 0. 0. 0. 0. 0. 0.],-0.0634765625,-0.24560546875,0.8720703125,[0. 0. 0. 0. 0. 0. 0. 0. 0.]
7.320228815078735,-0.01842804066836834,-0.011808399111032486,0.9149630665779114,-0.4029437303543091,[0. 0. 0. 0. 0. 0. 0. 0. 0.],-16.357421875,-2.86865234375,19.95849609375,[0. 0. 0. 0. 0. 0. 0. 0. 0.],-0.048828125,-0.251953125,0.84130859375,[0. 0. 0. 0. 0. 0. 0. 0. 0.]
7.335550546646118,-0.015290576033294201,-0.013598172925412655,0.9129787683486938,-0.4074937105178833,[0. 0. 0. 0. 0. 0. 0. 0. 0.],-1.15966796875,-18.24951171875,33.87451171875,[0. 0. 0. 0. 0. 0. 0. 0. 0.],-0.005859375,-0.341796875,1.0732421875,[0. 0. 0. 0. 0. 0. 0. 0. 0.]
7.360555171966553,-0.010236328467726707,-0.013895058073103428,0.9097558259963989,-0.41478484869003296,[0. 0. 0. 0. 0. 0. 0. 0. 0.],-7.14111328125,-18.1884765625,54.0771484375,[0. 0. 0. 0. 0. 0. 0. 0. 0.],0.02685546875,-0.29638671875,1.08154296875,[0. 0. 0. 0. 0. 0. 0. 0. 0.]
7.381030797958374,-0.007516662590205669,-0.014917179942131042,0.9050692915916443,-0.42493611574172974,[0. 0. 0. 0. 0. 0. 0. 0. 0.],-1.64794921875,-1.3427734375,69.39697265625,[0. 0. 0. 0. 0. 0. 0. 0. 0.],0.193359375,-0.30615234375,1.130859375,[0. 0. 0. 0. 0. 0. 0. 0. 0.]
7.4002156257629395,-0.006561163812875748,-0.014568135142326355,0.899262547492981,-0.43711748719215393,[0. 0. 0. 0. 0. 0. 0. 0. 0.],5.79833984375,4.21142578125,86.3037109375,[0. 0. 0. 0. 0. 0. 0. 0. 0.],0.1572265625,-0.30126953125,1.0791015625,[0. 0. 0. 0. 0. 0. 0. 0. 0.]
7.420389890670776,-0.00406743073835969,-0.013976631686091423,0.8920677900314331,-0.45166724920272827,[0. 0. 0. 0. 0. 0. 0. 0. 0.],6.65283203125,-29.60205078125,99.4873046875,[0. 0. 0. 0. 0. 0. 0. 0. 0.],0.0126953125,-0.2431640625,0.91259765625,[0. 0. 0. 0. 0. 0. 0. 0. 0.]
7.435275554656982,-0.0023480320814996958,-0.013894893229007721,0.8832679986953735,-0.4686567783355713,[0. 0. 0. 0. 0. 0. 0. 0. 0.],-1.03759765625,12.451171875,114.92919921875,[0. 0. 0. 0. 0. 0. 0. 0. 0.],0.27685546875,-0.22998046875,0.98046875,[0. 0. 0. 0. 0. 0. 0. 0. 0.]
7.455270767211914,-0.0006162371137179434,-0.014687658287584782,0.8731452822685242,-0.4872383773326874,[0. 0. 0. 0. 0. 0. 0. 0. 0.],-7.6904296875,-18.00537109375,124.267578125,[0. 0. 0. 0. 0. 0. 0. 0. 0.],0.10498046875,-0.1787109375,0.78515625,[0. 0. 0. 0. 0. 0. 0. 0. 0.]
7.48047947883606,0.004999108612537384,-0.014122718945145607,0.8619006872177124,-0.506855845451355,[0. 0. 0. 0. 0. 0. 0. 0. 0.],-4.94384765625,-24.0478515625,132.2021484375,[0. 0. 0. 0. 0. 0. 0. 0. 0.],0.1416015625,-0.29541015625,0.97509765625,[0. 0. 0. 0. 0. 0. 0. 0. 0.]
7.500180006027222,0.008126644417643547,-0.01377961877733469,0.8492701053619385,-0.5277161598205566,[0. 0. 0. 0. 0. 0. 0. 0. 0.],-1.77001953125,-8.9111328125,142.63916015625,[0. 0. 0. 0. 0. 0. 0. 0. 0.],0.34716796875,-0.34228515625,1.15576171875,[0. 0. 0. 0. 0. 0. 0. 0. 0.]
7.520219564437866,0.009199615567922592,-0.012876572087407112,0.8354071378707886,-0.5494036674499512,[0. 0. 0. 0. 0. 0. 0. 0. 0.],7.4462890625,-6.591796875,150.69580078125,[0. 0. 0. 0. 0. 0. 0. 0. 0.],0.3037109375,-0.32421875,1.1318359375,[0. 0. 0. 0. 0. 0. 0. 0. 0.]
7.541441202163696,0.01154614333063364,-0.01122709084302187,0.8201435804367065,-0.5719310641288757,[0. 0. 0. 0. 0. 0. 0. 0. 0.],0.18310546875,-11.71875,158.447265625,[0. 0. 0. 0. 0. 0. 0. 0. 0.],0.26904296875,-0.2587890625,0.9736328125,[0. 0. 0. 0. 0. 0. 0. 0. 0.]
7.560624599456787,0.011851565912365913,-0.01182189118117094,0.8032318949699402,-0.5954312682151794,[0. 0. 0. 0. 0. 0. 0. 0. 0.],2.3193359375,-2.50244140625,170.47119140625,[0. 0. 0. 0. 0. 0. 0. 0. 0.],0.26416015625,-0.244140625,0.84765625,[0. 0. 0. 0. 0. 0. 0. 0. 0.]
7.580161809921265,0.01802864857017994,-0.008975903503596783,0.784968912601471,-0.6192077398300171,[0. 0. 0. 0. 0. 0. 0. 0. 0.],4.82177734375,-45.654296875,174.74365234375,[0. 0. 0. 0. 0. 0. 0. 0. 0.],0.10693359375,-0.291015625,0.84423828125,[0. 0. 0. 0. 0. 0. 0. 0. 0.]
7.6005470752716064,0.021260609850287437,-0.008119586855173111,0.7651184797286987,-0.6434872150421143,[0. 0. 0. 0. 0. 0. 0. 0. 0.],0.48828125,1.708984375,183.10546875,[0. 0. 0. 0. 0. 0. 0. 0. 0.],0.46826171875,-0.3095703125,1.03369140625,[0. 0. 0. 0. 0. 0. 0. 0. 0.]
7.621922969818115,0.022652337327599525,-0.00731516582891345,0.743925929069519,-0.6678379774093628,[0. 0. 0. 0. 0. 0. 0. 0. 0.],6.77490234375,-15.9912109375,184.4482421875,[0. 0. 0. 0. 0. 0. 0. 0. 0.],0.36083984375,-0.36669921875,1.15380859375,[0. 0. 0. 0. 0. 0. 0. 0. 0.]
7.640841484069824,0.024158455431461334,-0.004979020915925503,0.7212067246437073,-0.6922807097434998,[0. 0. 0. 0. 0. 0. 0. 0. 0.],8.60595703125,-7.6904296875,192.87109375,[0. 0. 0. 0. 0. 0. 0. 0. 0.],0.36083984375,-0.30859375,0.96484375,[0. 0. 0. 0. 0. 0. 0. 0. 0.]
7.660564422607422,0.024948671460151672,-0.0038546277210116386,0.6968863606452942,-0.7167372107505798,[0. 0. 0. 0. 0. 0. 0. 0. 0.],14.09912109375,-29.60205078125,196.533203125,[0. 0. 0. 0. 0. 0. 0. 0. 0.],0.31005859375,-0.3046875,0.9375,[0. 0. 0. 0. 0. 0. 0. 0. 0.]
7.67957329750061,0.030905812978744507,-0.0004821241309400648,0.6639216542243958,-0.7471631169319153,[0. 0. 0. 0. 0. 0. 0. 0. 0.],-6.77490234375,-16.78466796875,209.228515625,[0. 0. 0. 0. 0. 0. 0. 0. 0.],0.341796875,-0.25634765625,0.7978515625,[0. 0. 0. 0. 0. 0. 0. 0. 0.]
7.700625419616699,0.033120736479759216,0.0002751387073658407,0.6430138349533081,-0.7651380896568298,[0. 0. 0. 0. 0. 0. 0. 0. 0.],4.94384765625,-8.30078125,212.646484375,[0. 0. 0. 0. 0. 0. 0. 0. 0.],0.47705078125,-0.3837890625,1.078125,[0. 0. 0. 0. 0. 0. 0. 0. 0.]
7.715917348861694,0.033619221299886703,-2.5163737518596463e-05,0.6139223575592041,-0.7886501550674438,[0. 0. 0. 0. 0. 0. 0. 0. 0.],9.70458984375,-15.0146484375,216.064453125,[0. 0. 0. 0. 0. 0. 0. 0. 0.],0.40087890625,-0.3935546875,1.05810546875,[0. 0. 0. 0. 0. 0. 0. 0. 0.]
7.735309839248657,0.03513524681329727,0.0031312787905335426,0.5836003422737122,-0.8112745881080627,[0. 0. 0. 0. 0. 0. 0. 0. 0.],12.02392578125,-6.65283203125,217.7734375,[0. 0. 0. 0. 0. 0. 0. 0. 0.],0.46435546875,-0.376953125,1.02587890625,[0. 0. 0. 0. 0. 0. 0. 0. 0.]
7.760327339172363,0.037207718938589096,0.0064020585268735886,0.5521636009216309,-0.8328805565834045,[0. 0. 0. 0. 0. 0. 0. 0. 0.],12.3291015625,-39.85595703125,216.73583984375,[0. 0. 0. 0. 0. 0. 0. 0. 0.],0.3095703125,-0.27001953125,0.81591796875,[0. 0. 0. 0. 0. 0. 0. 0. 0.]
7.7804224491119385,0.03872324153780937,0.00866264384239912,0.5188888907432556,-0.8539202809333801,[0. 0. 0. 0. 0. 0. 0. 0. 0.],8.23974609375,7.8125,227.35595703125,[0. 0. 0. 0. 0. 0. 0. 0. 0.],0.59423828125,-0.24169921875,0.9384765625,[0. 0. 0. 0. 0. 0. 0. 0. 0.]
7.8005051612854,0.03823745250701904,0.009674291126430035,0.4851951003074646,-0.8735159039497375,[0. 0. 0. 0. 0. 0. 0. 0. 0.],18.9208984375,-19.34814453125,221.0693359375,[0. 0. 0. 0. 0. 0. 0. 0. 0.],0.59130859375,-0.30908203125,1.119140625,[0. 0. 0. 0. 0. 0. 0. 0. 0.]
7.823133230209351,0.03929035738110542,0.013388496823608875,0.45088404417037964,-0.8916168212890625,[0. 0. 0. 0. 0. 0. 0. 0. 0.],12.451171875,-8.48388671875,223.57177734375,[0. 0. 0. 0. 0. 0. 0. 0. 0.],0.615234375,-0.25390625,1.00244140625,[0. 0. 0. 0. 0. 0. 0. 0. 0.]
7.842027902603149,0.04038603603839874,0.01474878191947937,0.4159635603427887,-0.9083643555641174,[0. 0. 0. 0. 0. 0. 0. 0. 0.],4.8828125,-19.95849609375,221.98486328125,[0. 0. 0. 0. 0. 0. 0. 0. 0.],0.57861328125,-0.20849609375,0.88232421875,[0. 0. 0. 0. 0. 0. 0. 0. 0.]
7.860363245010376,0.04225216060876846,0.015376432798802853,0.38064491748809814,-0.9236275553703308,[0. 0. 0. 0. 0. 0. 0. 0. 0.],2.25830078125,-4.21142578125,222.35107421875,[0. 0. 0. 0. 0. 0. 0. 0. 0.],0.4658203125,-0.2333984375,0.74853515625,[0. 0. 0. 0. 0. 0. 0. 0. 0.]
7.8813536167144775,0.044132836163043976,0.015473215840756893,0.3450101613998413,-0.937433123588562,[0. 0. 0. 0. 0. 0. 0. 0. 0.],2.62451171875,-10.19287109375,215.75927734375,[0. 0. 0. 0. 0. 0. 0. 0. 0.],0.58935546875,-0.322265625,0.94091796875,[0. 0. 0. 0. 0. 0. 0. 0. 0.]
7.900383710861206,0.04486741125583649,0.017049061134457588,0.31037360429763794,-0.9494021534919739,[0. 0. 0. 0. 0. 0. 0. 0. 0.],9.6435546875,-8.6669921875,206.35986328125,[0. 0. 0. 0. 0. 0. 0. 0. 0.],0.7861328125,-0.3837890625,1.2119140625,[0. 0. 0. 0. 0. 0. 0. 0. 0.]
7.920281648635864,0.044740092009305954,0.01845056191086769,0.2765730917453766,-0.959773600101471,[0. 0. 0. 0. 0. 0. 0. 0. 0.],12.0849609375,-11.65771484375,201.23291015625,[0. 0. 0. 0. 0. 0. 0. 0. 0.],0.67822265625,-0.302734375,1.02099609375,[0. 0. 0. 0. 0. 0. 0. 0. 0.]
7.940619230270386,0.04461446404457092,0.018238486722111702,0.2431139051914215,-0.9687995910644531,[0. 0. 0. 0. 0. 0. 0. 0. 0.],7.01904296875,-6.7138671875,195.61767578125,[0. 0. 0. 0. 0. 0. 0. 0. 0.],0.6259765625,-0.28857421875,0.95361328125,[0. 0. 0. 0. 0. 0. 0. 0. 0.]
7.960354804992676,0.045840080827474594,0.018827209249138832,0.21045681834220886,-0.9763463139533997,[0. 0. 0. 0. 0. 0. 0. 0. 0.],-2.50244140625,0.67138671875,189.5751953125,[0. 0. 0. 0. 0. 0. 0. 0. 0.],0.50341796875,-0.2197265625,0.75439453125,[0. 0. 0. 0. 0. 0. 0. 0. 0.]
7.980232000350952,0.04782141372561455,0.016938121989369392,0.17917153239250183,-0.9825090169906616,[0. 0. 0. 0. 0. 0. 0. 0. 0.],-6.4697265625,-3.173828125,178.22265625,[0. 0. 0. 0. 0. 0. 0. 0. 0.],0.50244140625,-0.22216796875,0.767578125,[0. 0. 0. 0. 0. 0. 0. 0. 0.]
8.00033974647522,0.04958249256014824,0.02066994644701481,0.15107126533985138,-0.9870622754096985,[0. 0. 0. 0. 0. 0. 0. 0. 0.],2.25830078125,-14.0380859375,153.3203125,[0. 0. 0. 0. 0. 0. 0. 0. 0.],0.7353515625,-0.31103515625,1.16845703125,[0. 0. 0. 0. 0. 0. 0. 0. 0.]
8.020157814025879,0.04926693066954613,0.020700586959719658,0.1274222731590271,-0.9904079437255859,[0. 0. 0. 0. 0. 0. 0. 0. 0.],12.39013671875,-2.74658203125,126.89208984375,[0. 0. 0. 0. 0. 0. 0. 0. 0.],0.86865234375,-0.2490234375,1.24169921875,[0. 0. 0. 0. 0. 0. 0. 0. 0.]
8.040313482284546,0.04803622514009476,0.02092251367866993,0.10769117623567581,-0.9928028583526611,[0. 0. 0. 0. 0. 0. 0. 0. 0.],5.859375,2.86865234375,108.45947265625,[0. 0. 0. 0. 0. 0. 0. 0. 0.],0.623046875,-0.15576171875,0.9541015625,[0. 0. 0. 0. 0. 0. 0. 0. 0.]
8.060172080993652,0.049142856150865555,0.020770568400621414,0.09094645082950592,-0.9944256544113159,[0. 0. 0. 0. 0. 0. 0. 0. 0.],-4.33349609375,-1.64794921875,89.41650390625,[0. 0. 0. 0. 0. 0. 0. 0. 0.],0.57080078125,-0.10693359375,0.8662109375,[0. 0. 0. 0. 0. 0. 0. 0. 0.]
8.081366300582886,0.0500272773206234,0.02254253812134266,0.07774848490953445,-0.9954618811607361,[0. 0. 0. 0. 0. 0. 0. 0. 0.],-2.3193359375,-2.44140625,70.25146484375,[0. 0. 0. 0. 0. 0. 0. 0. 0.],0.56787109375,-0.1552734375,0.96435546875,[0. 0. 0. 0. 0. 0. 0. 0. 0.]
8.10016131401062,0.05011594668030739,0.023292994126677513,0.06706707924604416,-0.9962167143821716,[0. 0. 0. 0. 0. 0. 0. 0. 0.],3.23486328125,-0.42724609375,56.70166015625,[0. 0. 0. 0. 0. 0. 0. 0. 0.],0.515625,-0.12939453125,0.826171875,[0. 0. 0. 0. 0. 0. 0. 0. 0.]
8.120382070541382,0.050857026129961014,0.024070048704743385,0.05832001566886902,-0.9967111349105835,[0. 0. 0. 0. 0. 0. 0. 0. 0.],-1.15966796875,-3.47900390625,45.47119140625,[0. 0. 0. 0. 0. 0. 0. 0. 0.],0.52685546875,-0.1162109375,0.83056640625,[0. 0. 0. 0. 0. 0. 0. 0. 0.]
8.140820741653442,0.05062144249677658,0.027911648154258728,0.05247154086828232,-0.9969478845596313,[0. 0. 0. 0. 0. 0. 0. 0. 0.],7.14111328125,-10.7421875,26.0009765625,[0. 0. 0. 0. 0. 0. 0. 0. 0.],0.74169921875,-0.1552734375,1.19287109375,[0. 0. 0. 0. 0. 0. 0. 0. 0.]
8.161214590072632,0.04895085096359253,0.028510278090834618,0.050260622054338455,-0.9971283078193665,[0. 0. 0. 0. 0. 0. 0. 0. 0.],12.3291015625,5.18798828125,5.43212890625,[0. 0. 0. 0. 0. 0. 0. 0. 0.],0.82470703125,-0.08740234375,1.21435546875,[0. 0. 0. 0. 0. 0. 0. 0. 0.]
8.18042254447937,0.047189000993967056,0.029337376356124878,0.05128373205661774,-0.9971372485160828,[0. 0. 0. 0. 0. 0. 0. 0. 0.],8.60595703125,5.67626953125,-12.26806640625,[0. 0. 0. 0. 0. 0. 0. 0. 0.],0.638671875,-0.03857421875,1.0107421875,[0. 0. 0. 0. 0. 0. 0. 0. 0.]
8.200209617614746,0.04543905332684517,0.029500005766749382,0.05523362755775452,-0.9970026612281799,[0. 0. 0. 0. 0. 0. 0. 0. 0.],10.07080078125,-4.5166015625,-29.78515625,[0. 0. 0. 0. 0. 0. 0. 0. 0.],0.51318359375,-0.0068359375,0.91552734375,[0. 0. 0. 0. 0. 0. 0. 0. 0.]
8.22035026550293,0.043755967170000076,0.03127783536911011,0.0627831444144249,-0.9965769052505493,[0. 0. 0. 0. 0. 0. 0. 0. 0.],5.0048828125,13.85498046875,-54.99267578125,[0. 0. 0. 0. 0. 0. 0. 0. 0.],0.580078125,0.06787109375,0.91357421875,[0. 0. 0. 0. 0. 0. 0. 0. 0.]
8.241430044174194,0.0410996749997139,0.03128012642264366,0.07514981925487518,-0.9958338141441345,[0. 0. 0. 0. 0. 0. 0. 0. 0.],12.02392578125,5.79833984375,-79.40673828125,[0. 0. 0. 0. 0. 0. 0. 0. 0.],0.572265625,0.08251953125,1.08642578125,[0. 0. 0. 0. 0. 0. 0. 0. 0.]
8.2621328830719,0.03903086856007576,0.03215186297893524,0.09119874238967896,-0.9945480227470398,[0. 0. 0. 0. 0. 0. 0. 0. 0.],2.5634765625,14.7705078125,-98.32763671875,[0. 0. 0. 0. 0. 0. 0. 0. 0.],0.40380859375,0.11328125,0.9521484375,[0. 0. 0. 0. 0. 0. 0. 0. 0.]
8.28016972541809,0.037048183381557465,0.030093541368842125,0.1095377504825592,-0.992836058139801,[0. 0. 0. 0. 0. 0. 0. 0. 0.],4.82177734375,23.3154296875,-107.91015625,[0. 0. 0. 0. 0. 0. 0. 0. 0.],0.15576171875,0.09033203125,0.939453125,[0. 0. 0. 0. 0. 0. 0. 0. 0.]
8.300219535827637,0.03316726163029671,0.025224164128303528,0.1291489154100418,-0.9907493591308594,[0. 0. 0. 0. 0. 0. 0. 0. 0.],8.48388671875,32.28759765625,-112.1826171875,[0. 0. 0. 0. 0. 0. 0. 0. 0.],-0.09375,0.13916015625,1.0029296875,[0. 0. 0. 0. 0. 0. 0. 0. 0.]
8.320317506790161,0.028608331456780434,0.02234761416912079,0.14869023859500885,-0.9882172346115112,[0. 0. 0. 0. 0. 0. 0. 0. 0.],16.11328125,14.892578125,-111.4501953125,[0. 0. 0. 0. 0. 0. 0. 0. 0.],-0.2978515625,0.26416015625,1.05126953125,[0. 0. 0. 0. 0. 0. 0. 0. 0.]
8.336682319641113,0.023984145373106003,0.020514003932476044,0.1680968701839447,-0.9852651357650757,[0. 0. 0. 0. 0. 0. 0. 0. 0.],13.73291015625,13.671875,-111.6943359375,[0. 0. 0. 0. 0. 0. 0. 0. 0.],-0.20703125,0.314453125,0.990234375,[0. 0. 0. 0. 0. 0. 0. 0. 0.]
8.360904932022095,0.02051161415874958,0.017630930989980698,0.18727733194828033,-0.9819347262382507,[0. 0. 0. 0. 0. 0. 0. 0. 0.],5.9814453125,19.53125,-111.14501953125,[0. 0. 0. 0. 0. 0. 0. 0. 0.],-0.1796875,0.34228515625,0.94921875,[0. 0. 0. 0. 0. 0. 0. 0. 0.]
8.375377178192139,0.017130186781287193,0.01522522047162056,0.20620079338550568,-0.9782412648200989,[0. 0. 0. 0. 0. 0. 0. 0. 0.],8.23974609375,2.50244140625,-110.41259765625,[0. 0. 0. 0. 0. 0. 0. 0. 0.],-0.2841796875,0.31298828125,1.037109375,[0. 0. 0. 0. 0. 0. 0. 0. 0.]
8.40024471282959,0.014296128414571285,0.014830514788627625,0.2248290330171585,-0.9741805195808411,[0. 0. 0. 0. 0. 0. 0. 0. 0.],6.77490234375,4.638671875,-108.82568359375,[0. 0. 0. 0. 0. 0. 0. 0. 0.],-0.2578125,0.34228515625,1.0146484375,[0. 0. 0. 0. 0. 0. 0. 0. 0.]
8.420573949813843,0.011706058867275715,0.012995628640055656,0.24311041831970215,-0.969840943813324,[0. 0. 0. 0. 0. 0. 0. 0. 0.],1.953125,11.77978515625,-104.8583984375,[0. 0. 0. 0. 0. 0. 0. 0. 0.],-0.19970703125,0.34033203125,0.96630859375,[0. 0. 0. 0. 0. 0. 0. 0. 0.]
8.440442562103271,0.009734339080750942,0.013100985437631607,0.26082339882850647,-0.9652485847473145,[0. 0. 0. 0. 0. 0. 0. 0. 0.],3.0517578125,-5.2490234375,-103.515625,[0. 0. 0. 0. 0. 0. 0. 0. 0.],-0.28466796875,0.3203125,0.9794921875,[0. 0. 0. 0. 0. 0. 0. 0. 0.]
8.460487365722656,0.007618332281708717,0.01333986409008503,0.27812469005584717,-0.9604220986366272,[0. 0. 0. 0. 0. 0. 0. 0. 0.],2.86865234375,1.77001953125,-102.11181640625,[0. 0. 0. 0. 0. 0. 0. 0. 0.],-0.17626953125,0.3203125,0.95947265625,[0. 0. 0. 0. 0. 0. 0. 0. 0.]
8.481220960617065,0.005759441293776035,0.01137460209429264,0.29457801580429077,-0.9555424451828003,[0. 0. 0. 0. 0. 0. 0. 0. 0.],-1.40380859375,7.26318359375,-96.435546875,[0. 0. 0. 0. 0. 0. 0. 0. 0.],-0.19091796875,0.3291015625,0.9775390625,[0. 0. 0. 0. 0. 0. 0. 0. 0.]
8.500235080718994,0.004466876853257418,0.011000948958098888,0.30996227264404297,-0.9506747126579285,[0. 0. 0. 0. 0. 0. 0. 0. 0.],-2.9296875,-0.67138671875,-89.66064453125,[0. 0. 0. 0. 0. 0. 0. 0. 0.],-0.29248046875,0.33935546875,1.0576171875,[0. 0. 0. 0. 0. 0. 0. 0. 0.]
8.522165298461914,0.0029317373409867287,0.010601067915558815,0.32444101572036743,-0.9458419680595398,[0. 0. 0. 0. 0. 0. 0. 0. 0.],1.40380859375,-1.15966796875,-85.87646484375,[0. 0. 0. 0. 0. 0. 0. 0. 0.],-0.22998046875,0.32470703125,1.08251953125,[0. 0. 0. 0. 0. 0. 0. 0. 0.]
8.536218166351318,0.0012341358233243227,0.010441639460623264,0.33802419900894165,-0.9410786628723145,[0. 0. 0. 0. 0. 0. 0. 0. 0.],1.46484375,-0.244140625,-80.74951171875,[0. 0. 0. 0. 0. 0. 0. 0. 0.],-0.22119140625,0.31103515625,0.9716796875,[0. 0. 0. 0. 0. 0. 0. 0. 0.]
8.56020975112915,8.520048140781e-06,0.00988427922129631,0.35053932666778564,-0.9364959597587585,[0. 0. 0. 0. 0. 0. 0. 0. 0.],-0.91552734375,-2.01416015625,-73.73046875,[0. 0. 0. 0. 0. 0. 0. 0. 0.],-0.2177734375,0.31640625,0.9501953125,[0. 0. 0. 0. 0. 0. 0. 0. 0.]
8.582078218460083,-0.0014484234852716327,0.01001912821084261,0.3619990944862366,-0.9321234822273254,[0. 0. 0. 0. 0. 0. 0. 0. 0.],0.732421875,-2.0751953125,-67.626953125,[0. 0. 0. 0. 0. 0. 0. 0. 0.],-0.21142578125,0.3154296875,1.04296875,[0. 0. 0. 0. 0. 0. 0. 0. 0.]
8.600672006607056,-0.002994527807459235,0.007206521462649107,0.37192198634147644,-0.9282312393188477,[0. 0. 0. 0. 0. 0. 0. 0. 0.],-0.54931640625,14.0380859375,-56.0302734375,[0. 0. 0. 0. 0. 0. 0. 0. 0.],-0.2724609375,0.13720703125,1.0029296875,[0. 0. 0. 0. 0. 0. 0. 0. 0.]
8.620356798171997,-0.004655880853533745,0.006828955374658108,0.38040968775749207,-0.9247811436653137,[0. 0. 0. 0. 0. 0. 0. 0. 0.],1.52587890625,1.46484375,-48.27880859375,[0. 0. 0. 0. 0. 0. 0. 0. 0.],-0.29248046875,0.2451171875,1.01611328125,[0. 0. 0. 0. 0. 0. 0. 0. 0.]
8.640360832214355,-0.006274486426264048,0.0060449945740401745,0.38809940218925476,-0.9215764403343201,[0. 0. 0. 0. 0. 0. 0. 0. 0.],-0.42724609375,-2.62451171875,-47.54638671875,[0. 0. 0. 0. 0. 0. 0. 0. 0.],-0.09326171875,0.134765625,0.9462890625,[0. 0. 0. 0. 0. 0. 0. 0. 0.]
8.66021180152893,-0.007037769071757793,0.005334367509931326,0.39571836590766907,-0.9183295369148254,[0. 0. 0. 0. 0. 0. 0. 0. 0.],-6.53076171875,2.25830078125,-48.76708984375,[0. 0. 0. 0. 0. 0. 0. 0. 0.],-0.04248046875,0.15478515625,0.962890625,[0. 0. 0. 0. 0. 0. 0. 0. 0.]
8.681335687637329,-0.007788042072206736,0.004695477895438671,0.40339067578315735,-0.9149826169013977,[0. 0. 0. 0. 0. 0. 0. 0. 0.],-3.173828125,-2.38037109375,-45.95947265625,[0. 0. 0. 0. 0. 0. 0. 0. 0.],-0.05322265625,0.07275390625,1.05419921875,[0. 0. 0. 0. 0. 0. 0. 0. 0.]
8.700252294540405,-0.008284815587103367,0.003971922677010298,0.40981438755989075,-0.9121226668357849,[0. 0. 0. 0. 0. 0. 0. 0. 0.],0.48828125,-4.57763671875,-36.19384765625,[0. 0. 0. 0. 0. 0. 0. 0. 0.],-0.072265625,0.02197265625,1.06005859375,[0. 0. 0. 0. 0. 0. 0. 0. 0.]
8.720194578170776,-0.007636712864041328,0.002768028760328889,0.4144989252090454,-0.9100136160850525,[0. 0. 0. 0. 0. 0. 0. 0. 0.],-7.32421875,-1.708984375,-24.59716796875,[0. 0. 0. 0. 0. 0. 0. 0. 0.],-0.0517578125,-0.04443359375,0.95068359375,[0. 0. 0. 0. 0. 0. 0. 0. 0.]
8.740377426147461,-0.005546330939978361,0.0015757940709590912,0.41795799136161804,-0.9084481000900269,[0. 0. 0. 0. 0. 0. 0. 0. 0.],-0.3662109375,0.67138671875,-19.59228515625,[0. 0. 0. 0. 0. 0. 0. 0. 0.],-0.0126953125,-0.11181640625,1.03759765625,[0. 0. 0. 0. 0. 0. 0. 0. 0.]
8.760348081588745,-0.004450337029993534,0.0008611482917331159,0.42060142755508423,-0.9072343111038208,[0. 0. 0. 0. 0. 0. 0. 0. 0.],3.23486328125,-1.3427734375,-13.916015625,[0. 0. 0. 0. 0. 0. 0. 0. 0.],-0.03125,-0.02685546875,1.0859375,[0. 0. 0. 0. 0. 0. 0. 0. 0.]
8.780582904815674,-0.003635458182543516,-0.0002736687602009624,0.4223886728286743,-0.9064075946807861,[0. 0. 0. 0. 0. 0. 0. 0. 0.],0.1220703125,-2.197265625,-10.80322265625,[0. 0. 0. 0. 0. 0. 0. 0. 0.],-0.01904296875,-0.03173828125,0.9931640625,[0. 0. 0. 0. 0. 0. 0. 0. 0.]
8.802332401275635,-0.002677828073501587,-0.00186821143142879,0.4235425293445587,-0.9058703780174255,[0. 0. 0. 0. 0. 0. 0. 0. 0.],-1.708984375,-1.52587890625,-6.53076171875,[0. 0. 0. 0. 0. 0. 0. 0. 0.],-0.04052734375,-0.03271484375,0.94287109375,[0. 0. 0. 0. 0. 0. 0. 0. 0.]
8.815775394439697,-0.0018651223508641124,-0.004057202022522688,0.4242550730705261,-0.9055317640304565,[0. 0. 0. 0. 0. 0. 0. 0. 0.],-3.72314453125,2.685546875,-2.685546875,[0. 0. 0. 0. 0. 0. 0. 0. 0.],-0.0751953125,-0.0380859375,0.95654296875,[0. 0. 0. 0. 0. 0. 0. 0. 0.]
8.840476989746094,-0.0014279847964644432,-0.006094516720622778,0.42468342185020447,-0.9053202867507935,[0. 0. 0. 0. 0. 0. 0. 0. 0.],-2.62451171875,-1.0986328125,-2.0751953125,[0. 0. 0. 0. 0. 0. 0. 0. 0.],-0.09521484375,-0.0400390625,0.98681640625,[0. 0. 0. 0. 0. 0. 0. 0. 0.]
8.860652685165405,-0.00121159793343395,-0.007028783671557903,0.4247798025608063,-0.905268669128418,[0. 0. 0. 0. 0. 0. 0. 0. 0.],1.953125,-9.033203125,-0.9765625,[0. 0. 0. 0. 0. 0. 0. 0. 0.],-0.12646484375,-0.0458984375,1.01953125,[0. 0. 0. 0. 0. 0. 0. 0. 0.]
8.882137775421143,-0.0011553677031770349,-0.007951239123940468,0.4249740540981293,-0.9051698446273804,[0. 0. 0. 0. 0. 0. 0. 0. 0.],0.79345703125,-2.685546875,-2.44140625,[0. 0. 0. 0. 0. 0. 0. 0. 0.],-0.0556640625,-0.0244140625,1.0263671875,[0. 0. 0. 0. 0. 0. 0. 0. 0.]
8.900346279144287,-0.0008851761813275516,-0.009400023147463799,0.4253946840763092,-0.9049587249755859,[0. 0. 0. 0. 0. 0. 0. 0. 0.],-4.7607421875,-3.2958984375,-2.197265625,[0. 0. 0. 0. 0. 0. 0. 0. 0.],-0.048828125,-0.00830078125,0.96044921875,[0. 0. 0. 0. 0. 0. 0. 0. 0.]
8.920786380767822,-0.0006689138826914132,-0.01097908429801464,0.42555564641952515,-0.9048653841018677,[0. 0. 0. 0. 0. 0. 0. 0. 0.],-4.33349609375,-0.3662109375,0.0,[0. 0. 0. 0. 0. 0. 0. 0. 0.],-0.037109375,-0.01171875,1.00830078125,[0. 0. 0. 0. 0. 0. 0. 0. 0.]
8.935798645019531,0.0010585113195702434,-0.011352737434208393,0.425538033246994,-0.9048687815666199,[0. 0. 0. 0. 0. 0. 0. 0. 0.],0.48828125,-2.01416015625,0.6103515625,[0. 0. 0. 0. 0. 0. 0. 0. 0.],-0.02392578125,-0.02001953125,1.09375,[0. 0. 0. 0. 0. 0. 0. 0. 0.]
8.961975812911987,0.0005530243506655097,-0.011951743625104427,0.4252556264400482,-0.9049942493438721,[0. 0. 0. 0. 0. 0. 0. 0. 0.],0.18310546875,-6.2255859375,2.0751953125,[0. 0. 0. 0. 0. 0. 0. 0. 0.],-0.072265625,-0.001953125,1.01123046875,[0. 0. 0. 0. 0. 0. 0. 0. 0.]
8.980585813522339,-0.0005795829347334802,-0.012270817533135414,0.4249556362628937,-0.9051308631896973,[0. 0. 0. 0. 0. 0. 0. 0. 0.],-0.54931640625,-1.220703125,0.54931640625,[0. 0. 0. 0. 0. 0. 0. 0. 0.],-0.02392578125,0.0087890625,0.98095703125,[0. 0. 0. 0. 0. 0. 0. 0. 0.]
9.000292539596558,-0.001937959692440927,-0.010923939757049084,0.4248965084552765,-0.9051739573478699,[0. 0. 0. 0. 0. 0. 0. 0. 0.],-0.67138671875,-2.62451171875,-0.732421875,[0. 0. 0. 0. 0. 0. 0. 0. 0.],-0.025390625,0.0107421875,1.0068359375,[0. 0. 0. 0. 0. 0. 0. 0. 0.]
9.024093627929688,-0.002552407793700695,-0.009109188802540302,0.4250987768173218,-0.9050976037979126,[0. 0. 0. 0. 0. 0. 0. 0. 0.],-1.28173828125,-0.18310546875,-1.5869140625,[0. 0. 0. 0. 0. 0. 0. 0. 0.],0.0009765625,0.0029296875,0.98193359375,[0. 0. 0. 0. 0. 0. 0. 0. 0.]
9.040468215942383,-0.0020030620507895947,-0.007949483580887318,0.4253952205181122,-0.904970645904541,[0. 0. 0. 0. 0. 0. 0. 0. 0.],3.96728515625,3.5400390625,-2.38037109375,[0. 0. 0. 0. 0. 0. 0. 0. 0.],0.01611328125,-0.015625,1.0234375,[0. 0. 0. 0. 0. 0. 0. 0. 0.]
9.060413360595703,-0.002062530955299735,-0.006781638599932194,0.42582711577415466,-0.9047768712043762,[0. 0. 0. 0. 0. 0. 0. 0. 0.],3.173828125,3.0517578125,-2.3193359375,[0. 0. 0. 0. 0. 0. 0. 0. 0.],-0.0029296875,0.00048828125,0.9755859375,[0. 0. 0. 0. 0. 0. 0. 0. 0.]
9.080403566360474,-0.0033878388348966837,-0.006989903282374144,0.426205039024353,-0.904593288898468,[0. 0. 0. 0. 0. 0. 0. 0. 0.],-7.4462890625,1.708984375,-2.62451171875,[0. 0. 0. 0. 0. 0. 0. 0. 0.],-0.03369140625,0.05224609375,0.9345703125,[0. 0. 0. 0. 0. 0. 0. 0. 0.]
9.100161075592041,-0.004285951144993305,-0.007088040467351675,0.4267209768295288,-0.9043454527854919,[0. 0. 0. 0. 0. 0. 0. 0. 0.],-1.0986328125,-3.90625,-3.84521484375,[0. 0. 0. 0. 0. 0. 0. 0. 0.],-0.0302734375,0.01318359375,1.109375,[0. 0. 0. 0. 0. 0. 0. 0. 0.]
