time,orientation.x,orientation.y,orientation.z,orientation.w,orientation_covariance,angular_velocity.x,angular_velocity.y,angular_velocity.z,angular_velocity_covariance,linear_acceleration.x,linear_acceleration.y,linear_acceleration.z,linear_acceleration_covariance
0.1555933952331543,0.016653405502438545,0.016205180436372757,-0.09041962027549744,0.9956326484680176,[0. 0. 0. 0. 0. 0. 0. 0. 0.],-0.18310546875,-0.54931640625,-0.18310546875,[0. 0. 0. 0. 0. 0. 0. 0. 0.],-0.03515625,0.0302734375,1.00244140625,[0. 0. 0. 0. 0. 0. 0. 0. 0.]
0.17559528350830078,0.016617190092802048,0.015313096344470978,-0.09043657034635544,0.9956458210945129,[0. 0. 0. 0. 0. 0. 0. 0. 0.],-0.06103515625,-0.3662109375,-0.1220703125,[0. 0. 0. 0. 0. 0. 0. 0. 0.],-0.0341796875,0.03076171875,1.00244140625,[0. 0. 0. 0. 0. 0. 0. 0. 0.]
0.19304680824279785,0.017119433730840683,0.01588721014559269,-0.0904749184846878,0.9956248998641968,[0. 0. 0. 0. 0. 0. 0. 0. 0.],0.0,-0.6103515625,0.0,[0. 0. 0. 0. 0. 0. 0. 0. 0.],-0.03515625,0.03125,1.001953125,[0. 0. 0. 0. 0. 0. 0. 0. 0.]
0.21521759033203125,0.016307545825839043,0.015188178978860378,-0.0905076116323471,0.9956464171409607,[0. 0. 0. 0. 0. 0. 0. 0. 0.],0.0,-1.03759765625,-0.18310546875,[0. 0. 0. 0. 0. 0. 0. 0. 0.],-0.03369140625,0.0302734375,1.001953125,[0. 0. 0. 0. 0. 0. 0. 0. 0.]
0.23261737823486328,0.016279343515634537,0.01590173877775669,-0.09053431451320648,0.9956333041191101,[0. 0. 0. 0. 0. 0. 0. 0. 0.],0.0,-0.732421875,-0.18310546875,[0. 0. 0. 0. 0. 0. 0. 0. 0.],-0.03466796875,0.02978515625,1.00341796875,[0. 0. 0. 0. 0. 0. 0. 0. 0.]
0.25118494033813477,0.01638907939195633,0.015921160578727722,-0.09055693447589874,0.9956291317939758,[0. 0. 0. 0. 0. 0. 0. 0. 0.],-0.1220703125,-0.48828125,-0.1220703125,[0. 0. 0. 0. 0. 0. 0. 0. 0.],-0.0341796875,0.0302734375,1.00048828125,[0. 0. 0. 0. 0. 0. 0. 0. 0.]
0.27031970024108887,0.01632261462509632,0.015758128836750984,-0.09058830887079239,0.9956299662590027,[0. 0. 0. 0. 0. 0. 0. 0. 0.],0.06103515625,-0.42724609375,-0.1220703125,[0. 0. 0. 0. 0. 0. 0. 0. 0.],-0.03515625,0.029296875,1.00146484375,[0. 0. 0. 0. 0. 0. 0. 0. 0.]
0.2953000068664551,0.01706158183515072,0.01623731292784214,-0.0906149372458458,0.9956074357032776,[0. 0. 0. 0. 0. 0. 0. 0. 0.],0.06103515625,-0.67138671875,-0.06103515625,[0. 0. 0. 0. 0. 0. 0. 0. 0.],-0.03564453125,0.03076171875,1.0029296875,[0. 0. 0. 0. 0. 0. 0. 0. 0.]
0.31057167053222656,0.015969809144735336,0.01608322747051716,-0.09065824002027512,0.9956241250038147,[0. 0. 0. 0. 0. 0. 0. 0. 0.],-0.06103515625,-0.91552734375,-0.18310546875,[0. 0. 0. 0. 0. 0. 0. 0. 0.],-0.03515625,0.029296875,1.0029296875,[0. 0. 0. 0. 0. 0. 0. 0. 0.]
0.33052968978881836,0.016301946714520454,0.014867075718939304,-0.0906662866473198,0.9956369400024414,[0. 0. 0. 0. 0. 0. 0. 0. 0.],-0.18310546875,-0.732421875,-0.244140625,[0. 0. 0. 0. 0. 0. 0. 0. 0.],-0.033203125,0.029296875,1.0029296875,[0. 0. 0. 0. 0. 0. 0. 0. 0.]
0.36209821701049805,0.016550501808524132,0.014626248739659786,-0.09069428592920303,0.9956338405609131,[0. 0. 0. 0. 0. 0. 0. 0. 0.],-0.18310546875,-0.79345703125,-0.244140625,[0. 0. 0. 0. 0. 0. 0. 0. 0.],-0.0322265625,0.0302734375,1.00244140625,[0. 0. 0. 0. 0. 0. 0. 0. 0.]
0.3724856376647949,0.016861729323863983,0.015924138948321342,-0.09073612838983536,0.9956048727035522,[0. 0. 0. 0. 0. 0. 0. 0. 0.],-0.18310546875,-0.54931640625,-0.18310546875,[0. 0. 0. 0. 0. 0. 0. 0. 0.],-0.0341796875,0.03076171875,1.0029296875,[0. 0. 0. 0. 0. 0. 0. 0. 0.]
0.39637112617492676,0.017275668680667877,0.015289880335330963,-0.09075675904750824,0.9956059455871582,[0. 0. 0. 0. 0. 0. 0. 0. 0.],-0.244140625,-0.42724609375,-0.30517578125,[0. 0. 0. 0. 0. 0. 0. 0. 0.],-0.0341796875,0.03173828125,1.00048828125,[0. 0. 0. 0. 0. 0. 0. 0. 0.]
0.4165928363800049,0.016065500676631927,0.015632865950465202,-0.09079881012439728,0.9956170320510864,[0. 0. 0. 0. 0. 0. 0. 0. 0.],0.06103515625,-0.8544921875,-0.06103515625,[0. 0. 0. 0. 0. 0. 0. 0. 0.],-0.0341796875,0.029296875,1.0009765625,[0. 0. 0. 0. 0. 0. 0. 0. 0.]
0.43628907203674316,0.016605153679847717,0.016068575903773308,-0.09084071964025497,0.9955973625183105,[0. 0. 0. 0. 0. 0. 0. 0. 0.],0.1220703125,-0.91552734375,-0.244140625,[0. 0. 0. 0. 0. 0. 0. 0. 0.],-0.03515625,0.0302734375,1.0,[0. 0. 0. 0. 0. 0. 0. 0. 0.]
0.4554934501647949,0.01653362065553665,0.01507293526083231,-0.0908529981970787,0.9956130385398865,[0. 0. 0. 0. 0. 0. 0. 0. 0.],-0.244140625,-0.67138671875,-0.244140625,[0. 0. 0. 0. 0. 0. 0. 0. 0.],-0.03369140625,0.0302734375,1.00146484375,[0. 0. 0. 0. 0. 0. 0. 0. 0.]
0.4755136966705322,0.01704399287700653,0.015755118802189827,-0.09088633954524994,0.9955907464027405,[0. 0. 0. 0. 0. 0. 0. 0. 0.],-0.244140625,-0.30517578125,-0.06103515625,[0. 0. 0. 0. 0. 0. 0. 0. 0.],-0.03466796875,0.03125,1.00390625,[0. 0. 0. 0. 0. 0. 0. 0. 0.]
0.4966130256652832,0.01686699129641056,0.01652415283024311,-0.09093718975782394,0.9955766797065735,[0. 0. 0. 0. 0. 0. 0. 0. 0.],0.0,-0.48828125,-0.1220703125,[0. 0. 0. 0. 0. 0. 0. 0. 0.],-0.0361328125,0.0302734375,1.0009765625,[0. 0. 0. 0. 0. 0. 0. 0. 0.]
0.5123856067657471,0.016466762870550156,0.015910061076283455,-0.09097078442573547,0.995590329170227,[0. 0. 0. 0. 0. 0. 0. 0. 0.],0.0,-0.54931640625,0.06103515625,[0. 0. 0. 0. 0. 0. 0. 0. 0.],-0.03515625,0.029296875,1.00146484375,[0. 0. 0. 0. 0. 0. 0. 0. 0.]
0.5358633995056152,0.01668362133204937,0.015423132106661797,-0.09098805487155914,0.9955928325653076,[0. 0. 0. 0. 0. 0. 0. 0. 0.],-0.1220703125,-0.9765625,-0.244140625,[0. 0. 0. 0. 0. 0. 0. 0. 0.],-0.03369140625,0.03076171875,1.0029296875,[0. 0. 0. 0. 0. 0. 0. 0. 0.]
0.5504312515258789,0.016349229961633682,0.015551273711025715,-0.09103014320135117,0.9955925345420837,[0. 0. 0. 0. 0. 0. 0. 0. 0.],-0.1220703125,-0.6103515625,-0.3662109375,[0. 0. 0. 0. 0. 0. 0. 0. 0.],-0.0341796875,0.02978515625,1.00048828125,[0. 0. 0. 0. 0. 0. 0. 0. 0.]
0.5704200267791748,0.015338055789470673,0.015320885926485062,-0.09107086062431335,0.995608389377594,[0. 0. 0. 0. 0. 0. 0. 0. 0.],-0.18310546875,-0.30517578125,-0.06103515625,[0. 0. 0. 0. 0. 0. 0. 0. 0.],-0.0341796875,0.0283203125,1.001953125,[0. 0. 0. 0. 0. 0. 0. 0. 0.]
0.5952272415161133,0.015474963933229446,0.016145462170243263,-0.09110493212938309,0.9955902099609375,[0. 0. 0. 0. 0. 0. 0. 0. 0.],0.06103515625,-0.54931640625,-0.1220703125,[0. 0. 0. 0. 0. 0. 0. 0. 0.],-0.03515625,0.02783203125,1.00048828125,[0. 0. 0. 0. 0. 0. 0. 0. 0.]
0.6102910041809082,0.015502413734793663,0.016380829736590385,-0.09114544838666916,0.9955822229385376,[0. 0. 0. 0. 0. 0. 0. 0. 0.],0.06103515625,-0.8544921875,-0.30517578125,[0. 0. 0. 0. 0. 0. 0. 0. 0.],-0.03564453125,0.02783203125,1.00146484375,[0. 0. 0. 0. 0. 0. 0. 0. 0.]
0.6309776306152344,0.01709534414112568,0.015447767451405525,-0.09113241732120514,0.9955722093582153,[0. 0. 0. 0. 0. 0. 0. 0. 0.],-0.18310546875,-0.91552734375,-0.244140625,[0. 0. 0. 0. 0. 0. 0. 0. 0.],-0.0341796875,0.03125,1.0029296875,[0. 0. 0. 0. 0. 0. 0. 0. 0.]
0.6503567695617676,0.016578465700149536,0.015651753172278404,-0.09116267412900925,0.9955750703811646,[0. 0. 0. 0. 0. 0. 0. 0. 0.],-0.244140625,-0.54931640625,-0.244140625,[0. 0. 0. 0. 0. 0. 0. 0. 0.],-0.0341796875,0.0302734375,1.00244140625,[0. 0. 0. 0. 0. 0. 0. 0. 0.]
0.6753902435302734,0.01667114719748497,0.015904448926448822,-0.0912027582526207,0.9955658316612244,[0. 0. 0. 0. 0. 0. 0. 0. 0.],-0.1220703125,-0.3662109375,-0.06103515625,[0. 0. 0. 0. 0. 0. 0. 0. 0.],-0.03466796875,0.0302734375,1.00146484375,[0. 0. 0. 0. 0. 0. 0. 0. 0.]
0.6954872608184814,0.016666779294610023,0.016416799277067184,-0.09124093502759933,0.9955540895462036,[0. 0. 0. 0. 0. 0. 0. 0. 0.],0.18310546875,-0.67138671875,-0.1220703125,[0. 0. 0. 0. 0. 0. 0. 0. 0.],-0.0361328125,0.0302734375,1.00244140625,[0. 0. 0. 0. 0. 0. 0. 0. 0.]
0.7102940082550049,0.016051698476076126,0.016178766265511513,-0.09127436578273773,0.9955650568008423,[0. 0. 0. 0. 0. 0. 0. 0. 0.],-0.06103515625,-0.79345703125,-0.1220703125,[0. 0. 0. 0. 0. 0. 0. 0. 0.],-0.03515625,0.029296875,1.0009765625,[0. 0. 0. 0. 0. 0. 0. 0. 0.]
0.7354462146759033,0.016877977177500725,0.01620958186686039,-0.09127853810787201,0.9955505132675171,[0. 0. 0. 0. 0. 0. 0. 0. 0.],-0.18310546875,-0.79345703125,-0.18310546875,[0. 0. 0. 0. 0. 0. 0. 0. 0.],-0.03515625,0.0302734375,1.00146484375,[0. 0. 0. 0. 0. 0. 0. 0. 0.]
0.7556533813476562,0.01628442108631134,0.015739046037197113,-0.09130655229091644,0.9955652952194214,[0. 0. 0. 0. 0. 0. 0. 0. 0.],-0.30517578125,-0.48828125,-0.18310546875,[0. 0. 0. 0. 0. 0. 0. 0. 0.],-0.0341796875,0.02978515625,1.001953125,[0. 0. 0. 0. 0. 0. 0. 0. 0.]
0.7758958339691162,0.016745001077651978,0.01483446266502142,-0.09131889790296555,0.9955704808235168,[0. 0. 0. 0. 0. 0. 0. 0. 0.],-0.244140625,-0.42724609375,0.0,[0. 0. 0. 0. 0. 0. 0. 0. 0.],-0.03271484375,0.03076171875,1.00146484375,[0. 0. 0. 0. 0. 0. 0. 0. 0.]
0.7974998950958252,0.016387751325964928,0.015832575038075447,-0.0913589596748352,0.9955572485923767,[0. 0. 0. 0. 0. 0. 0. 0. 0.],0.1220703125,-0.67138671875,-0.1220703125,[0. 0. 0. 0. 0. 0. 0. 0. 0.],-0.03466796875,0.02978515625,1.0009765625,[0. 0. 0. 0. 0. 0. 0. 0. 0.]
0.8164191246032715,0.01546041201800108,0.015924427658319473,-0.0914054811000824,0.9955664277076721,[0. 0. 0. 0. 0. 0. 0. 0. 0.],-0.1220703125,-0.9765625,-0.18310546875,[0. 0. 0. 0. 0. 0. 0. 0. 0.],-0.03466796875,0.02880859375,1.0029296875,[0. 0. 0. 0. 0. 0. 0. 0. 0.]
0.8375599384307861,0.016202691942453384,0.015550728887319565,-0.09142503887414932,0.9955587983131409,[0. 0. 0. 0. 0. 0. 0. 0. 0.],0.0,-0.8544921875,-0.244140625,[0. 0. 0. 0. 0. 0. 0. 0. 0.],-0.0341796875,0.02978515625,1.0029296875,[0. 0. 0. 0. 0. 0. 0. 0. 0.]
0.8552043437957764,0.01645321398973465,0.015876764431595802,-0.0914459377527237,0.9955475330352783,[0. 0. 0. 0. 0. 0. 0. 0. 0.],-0.06103515625,-0.67138671875,-0.1220703125,[0. 0. 0. 0. 0. 0. 0. 0. 0.],-0.0341796875,0.02978515625,1.00146484375,[0. 0. 0. 0. 0. 0. 0. 0. 0.]
0.8703732490539551,0.015946166589856148,0.015556754544377327,-0.09148508310317993,0.9955573081970215,[0. 0. 0. 0. 0. 0. 0. 0. 0.],-0.244140625,-0.42724609375,-0.244140625,[0. 0. 0. 0. 0. 0. 0. 0. 0.],-0.0341796875,0.02880859375,1.00341796875,[0. 0. 0. 0. 0. 0. 0. 0. 0.]
0.895693302154541,0.015816347673535347,0.015352027490735054,-0.09150619059801102,0.9955605864524841,[0. 0. 0. 0. 0. 0. 0. 0. 0.],-0.06103515625,-0.3662109375,-0.06103515625,[0. 0. 0. 0. 0. 0. 0. 0. 0.],-0.03369140625,0.02880859375,1.00390625,[0. 0. 0. 0. 0. 0. 0. 0. 0.]
0.9155633449554443,0.015451272949576378,0.016116587445139885,-0.09155343472957611,0.9955498576164246,[0. 0. 0. 0. 0. 0. 0. 0. 0.],0.06103515625,-0.8544921875,-0.18310546875,[0. 0. 0. 0. 0. 0. 0. 0. 0.],-0.03515625,0.02783203125,1.001953125,[0. 0. 0. 0. 0. 0. 0. 0. 0.]
0.9305758476257324,0.01585283689200878,0.01549577433615923,-0.09155839681625366,0.9955529570579529,[0. 0. 0. 0. 0. 0. 0. 0. 0.],-0.1220703125,-1.03759765625,-0.1220703125,[0. 0. 0. 0. 0. 0. 0. 0. 0.],-0.0341796875,0.0283203125,1.00146484375,[0. 0. 0. 0. 0. 0. 0. 0. 0.]
0.9551467895507812,0.015951955690979958,0.015600915998220444,-0.09157374501228333,0.9955483078956604,[0. 0. 0. 0. 0. 0. 0. 0. 0.],-0.30517578125,-0.6103515625,-0.244140625,[0. 0. 0. 0. 0. 0. 0. 0. 0.],-0.0341796875,0.02880859375,1.001953125,[0. 0. 0. 0. 0. 0. 0. 0. 0.]
0.9771490097045898,0.016095396131277084,0.015421416610479355,-0.09159870445728302,0.9955465793609619,[0. 0. 0. 0. 0. 0. 0. 0. 0.],-0.18310546875,-0.54931640625,-0.1220703125,[0. 0. 0. 0. 0. 0. 0. 0. 0.],-0.0341796875,0.029296875,1.00146484375,[0. 0. 0. 0. 0. 0. 0. 0. 0.]
0.9954700469970703,0.01638355851173401,0.015699811279773712,-0.09162480384111404,0.9955350160598755,[0. 0. 0. 0. 0. 0. 0. 0. 0.],0.1220703125,-0.54931640625,-0.18310546875,[0. 0. 0. 0. 0. 0. 0. 0. 0.],-0.03466796875,0.029296875,1.00244140625,[0. 0. 0. 0. 0. 0. 0. 0. 0.]
1.0109655857086182,0.016916239634156227,0.015718931332230568,-0.09163761883974075,0.9955246448516846,[0. 0. 0. 0. 0. 0. 0. 0. 0.],0.06103515625,-0.91552734375,-0.06103515625,[0. 0. 0. 0. 0. 0. 0. 0. 0.],-0.03466796875,0.0302734375,1.00439453125,[0. 0. 0. 0. 0. 0. 0. 0. 0.]
1.0354211330413818,0.016004154458642006,0.015534065663814545,-0.09167134016752243,0.9955395460128784,[0. 0. 0. 0. 0. 0. 0. 0. 0.],-0.06103515625,-0.91552734375,-0.244140625,[0. 0. 0. 0. 0. 0. 0. 0. 0.],-0.0341796875,0.02880859375,1.00439453125,[0. 0. 0. 0. 0. 0. 0. 0. 0.]
1.056666612625122,0.016766255721449852,0.01548653095960617,-0.0916885957121849,0.995526134967804,[0. 0. 0. 0. 0. 0. 0. 0. 0.],-0.18310546875,-0.8544921875,-0.18310546875,[0. 0. 0. 0. 0. 0. 0. 0. 0.],-0.03369140625,0.03076171875,1.00341796875,[0. 0. 0. 0. 0. 0. 0. 0. 0.]
1.0751731395721436,0.016333431005477905,0.015119349583983421,-0.09170588105916977,0.9955374002456665,[0. 0. 0. 0. 0. 0. 0. 0. 0.],-0.1220703125,-0.3662109375,-0.06103515625,[0. 0. 0. 0. 0. 0. 0. 0. 0.],-0.033203125,0.02978515625,1.0029296875,[0. 0. 0. 0. 0. 0. 0. 0. 0.]
1.095928430557251,0.016285089775919914,0.015366868115961552,-0.09172908961772919,0.995532214641571,[0. 0. 0. 0. 0. 0. 0. 0. 0.],0.06103515625,-0.67138671875,-0.06103515625,[0. 0. 0. 0. 0. 0. 0. 0. 0.],-0.03369140625,0.029296875,1.0029296875,[0. 0. 0. 0. 0. 0. 0. 0. 0.]
1.1153650283813477,0.016325784847140312,0.01556334737688303,-0.09177654981613159,0.9955241680145264,[0. 0. 0. 0. 0. 0. 0. 0. 0.],-0.06103515625,-0.91552734375,-0.18310546875,[0. 0. 0. 0. 0. 0. 0. 0. 0.],-0.0341796875,0.02978515625,1.0029296875,[0. 0. 0. 0. 0. 0. 0. 0. 0.]
1.1392593383789062,0.016646934673190117,0.015999702736735344,-0.09181010723114014,0.9955088496208191,[0. 0. 0. 0. 0. 0. 0. 0. 0.],-0.1220703125,-0.91552734375,-0.1220703125,[0. 0. 0. 0. 0. 0. 0. 0. 0.],-0.03466796875,0.0302734375,1.00390625,[0. 0. 0. 0. 0. 0. 0. 0. 0.]
1.1551570892333984,0.016406837850809097,0.01556017529219389,-0.0918145701289177,0.9955194592475891,[0. 0. 0. 0. 0. 0. 0. 0. 0.],-0.244140625,-0.42724609375,-0.244140625,[0. 0. 0. 0. 0. 0. 0. 0. 0.],-0.03369140625,0.02978515625,1.0009765625,[0. 0. 0. 0. 0. 0. 0. 0. 0.]
1.1859159469604492,0.016317691653966904,0.015942580997943878,-0.09186214208602905,0.9955105185508728,[0. 0. 0. 0. 0. 0. 0. 0. 0.],-0.244140625,-0.3662109375,-0.1220703125,[0. 0. 0. 0. 0. 0. 0. 0. 0.],-0.03466796875,0.0302734375,1.00341796875,[0. 0. 0. 0. 0. 0. 0. 0. 0.]
1.1917273998260498,0.01568738929927349,0.015920227393507957,-0.09190209209918976,0.9955171942710876,[0. 0. 0. 0. 0. 0. 0. 0. 0.],0.06103515625,-0.67138671875,-0.06103515625,[0. 0. 0. 0. 0. 0. 0. 0. 0.],-0.03466796875,0.02880859375,1.0029296875,[0. 0. 0. 0. 0. 0. 0. 0. 0.]
1.215449333190918,0.016080448403954506,0.016300493851304054,-0.09193811565637589,0.9955015182495117,[0. 0. 0. 0. 0. 0. 0. 0. 0.],0.1220703125,-0.91552734375,-0.3662109375,[0. 0. 0. 0. 0. 0. 0. 0. 0.],-0.0361328125,0.02880859375,1.001953125,[0. 0. 0. 0. 0. 0. 0. 0. 0.]
1.2386531829833984,0.016112707555294037,0.01562295202165842,-0.09195816516876221,0.9955099821090698,[0. 0. 0. 0. 0. 0. 0. 0. 0.],0.06103515625,-0.91552734375,-0.18310546875,[0. 0. 0. 0. 0. 0. 0. 0. 0.],-0.03466796875,0.029296875,1.00390625,[0. 0. 0. 0. 0. 0. 0. 0. 0.]
1.255324125289917,0.01639966107904911,0.01521079521626234,-0.09195420145988464,0.995512068271637,[0. 0. 0. 0. 0. 0. 0. 0. 0.],-0.244140625,-0.3662109375,-0.1220703125,[0. 0. 0. 0. 0. 0. 0. 0. 0.],-0.03369140625,0.02978515625,1.00341796875,[0. 0. 0. 0. 0. 0. 0. 0. 0.]
1.2751200199127197,0.01614566519856453,0.015977822244167328,-0.09200705587863922,0.9954992532730103,[0. 0. 0. 0. 0. 0. 0. 0. 0.],-0.1220703125,-0.3662109375,-0.1220703125,[0. 0. 0. 0. 0. 0. 0. 0. 0.],-0.03466796875,0.029296875,1.001953125,[0. 0. 0. 0. 0. 0. 0. 0. 0.]
1.295154333114624,0.016111334785819054,0.015373007394373417,-0.09203596413135529,0.9955066442489624,[0. 0. 0. 0. 0. 0. 0. 0. 0.],-0.06103515625,-0.732421875,-0.18310546875,[0. 0. 0. 0. 0. 0. 0. 0. 0.],-0.03369140625,0.029296875,1.00048828125,[0. 0. 0. 0. 0. 0. 0. 0. 0.]
1.3165695667266846,0.015842493623495102,0.015567473135888577,-0.0920598953962326,0.995505690574646,[0. 0. 0. 0. 0. 0. 0. 0. 0.],-0.06103515625,-0.42724609375,-0.06103515625,[0. 0. 0. 0. 0. 0. 0. 0. 0.],-0.03369140625,0.02880859375,1.0029296875,[0. 0. 0. 0. 0. 0. 0. 0. 0.]
1.3304038047790527,0.016756916418671608,0.015854107216000557,-0.09206878393888474,0.9954854249954224,[0. 0. 0. 0. 0. 0. 0. 0. 0.],-0.06103515625,-0.91552734375,-0.1220703125,[0. 0. 0. 0. 0. 0. 0. 0. 0.],-0.03466796875,0.0302734375,1.00390625,[0. 0. 0. 0. 0. 0. 0. 0. 0.]
1.3552889823913574,0.016619959846138954,0.015920300036668777,-0.09209071844816208,0.9954847097396851,[0. 0. 0. 0. 0. 0. 0. 0. 0.],-0.18310546875,-0.67138671875,-0.18310546875,[0. 0. 0. 0. 0. 0. 0. 0. 0.],-0.0341796875,0.02978515625,1.001953125,[0. 0. 0. 0. 0. 0. 0. 0. 0.]
1.3753173351287842,0.016418080776929855,0.01509054470807314,-0.09210068732500076,0.9954999685287476,[0. 0. 0. 0. 0. 0. 0. 0. 0.],-0.18310546875,-0.42724609375,-0.1220703125,[0. 0. 0. 0. 0. 0. 0. 0. 0.],-0.03369140625,0.03076171875,1.00146484375,[0. 0. 0. 0. 0. 0. 0. 0. 0.]
1.395202875137329,0.01623573713004589,0.016404854133725166,-0.09216172993183136,0.9954765439033508,[0. 0. 0. 0. 0. 0. 0. 0. 0.],-0.06103515625,-0.6103515625,-0.06103515625,[0. 0. 0. 0. 0. 0. 0. 0. 0.],-0.03515625,0.02978515625,1.0009765625,[0. 0. 0. 0. 0. 0. 0. 0. 0.]
1.4169692993164062,0.016405461356043816,0.015851275995373726,-0.09218921512365341,0.9954801201820374,[0. 0. 0. 0. 0. 0. 0. 0. 0.],-0.06103515625,-0.6103515625,0.0,[0. 0. 0. 0. 0. 0. 0. 0. 0.],-0.0341796875,0.02978515625,1.00146484375,[0. 0. 0. 0. 0. 0. 0. 0. 0.]
1.435236930847168,0.016205832362174988,0.015418913215398788,-0.09221219271421432,0.995488166809082,[0. 0. 0. 0. 0. 0. 0. 0. 0.],-0.06103515625,-0.9765625,-0.18310546875,[0. 0. 0. 0. 0. 0. 0. 0. 0.],-0.03369140625,0.029296875,1.00048828125,[0. 0. 0. 0. 0. 0. 0. 0. 0.]
1.4551734924316406,0.01647181063890457,0.015517867170274258,-0.09223560988903046,0.9954800009727478,[0. 0. 0. 0. 0. 0. 0. 0. 0.],-0.18310546875,-0.54931640625,-0.244140625,[0. 0. 0. 0. 0. 0. 0. 0. 0.],-0.03369140625,0.0302734375,1.0009765625,[0. 0. 0. 0. 0. 0. 0. 0. 0.]
1.4751901626586914,0.01655663549900055,0.015559292398393154,-0.09226436167955399,0.9954752922058105,[0. 0. 0. 0. 0. 0. 0. 0. 0.],-0.06103515625,-0.48828125,-0.06103515625,[0. 0. 0. 0. 0. 0. 0. 0. 0.],-0.0341796875,0.0302734375,1.0029296875,[0. 0. 0. 0. 0. 0. 0. 0. 0.]
1.495375156402588,0.01623399183154106,0.01573721133172512,-0.0923028215765953,0.9954742193222046,[0. 0. 0. 0. 0. 0. 0. 0. 0.],0.0,-0.6103515625,-0.1220703125,[0. 0. 0. 0. 0. 0. 0. 0. 0.],-0.03466796875,0.02978515625,1.00390625,[0. 0. 0. 0. 0. 0. 0. 0. 0.]
1.5154814720153809,0.015062078833580017,0.015422044321894646,-0.09235552698373795,0.995492696762085,[0. 0. 0. 0. 0. 0. 0. 0. 0.],-0.06103515625,-0.8544921875,-0.3662109375,[0. 0. 0. 0. 0. 0. 0. 0. 0.],-0.0341796875,0.02783203125,1.00244140625,[0. 0. 0. 0. 0. 0. 0. 0. 0.]
1.5353107452392578,0.016843384131789207,0.015520789660513401,-0.09234529733657837,0.9954636096954346,[0. 0. 0. 0. 0. 0. 0. 0. 0.],-0.244140625,-0.8544921875,-0.244140625,[0. 0. 0. 0. 0. 0. 0. 0. 0.],-0.0341796875,0.03076171875,1.00244140625,[0. 0. 0. 0. 0. 0. 0. 0. 0.]
1.5512585639953613,0.017287664115428925,0.0158938430249691,-0.09236712753772736,0.9954480528831482,[0. 0. 0. 0. 0. 0. 0. 0. 0.],-0.18310546875,-0.48828125,-0.244140625,[0. 0. 0. 0. 0. 0. 0. 0. 0.],-0.03466796875,0.03173828125,1.00048828125,[0. 0. 0. 0. 0. 0. 0. 0. 0.]
1.5752058029174805,0.017260268330574036,0.015821458771824837,-0.09238820523023605,0.9954477548599243,[0. 0. 0. 0. 0. 0. 0. 0. 0.],-0.1220703125,-0.3662109375,-0.1220703125,[0. 0. 0. 0. 0. 0. 0. 0. 0.],-0.03466796875,0.03125,1.0029296875,[0. 0. 0. 0. 0. 0. 0. 0. 0.]
1.595644235610962,0.01624971255660057,0.015814999118447304,-0.09243735671043396,0.9954603314399719,[0. 0. 0. 0. 0. 0. 0. 0. 0.],-0.1220703125,-0.3662109375,-0.06103515625,[0. 0. 0. 0. 0. 0. 0. 0. 0.],-0.03466796875,0.029296875,1.00439453125,[0. 0. 0. 0. 0. 0. 0. 0. 0.]
1.6158874034881592,0.01666201464831829,0.0162617526948452,-0.0924682542681694,0.9954434037208557,[0. 0. 0. 0. 0. 0. 0. 0. 0.],0.06103515625,-0.91552734375,-0.18310546875,[0. 0. 0. 0. 0. 0. 0. 0. 0.],-0.03564453125,0.0302734375,1.00244140625,[0. 0. 0. 0. 0. 0. 0. 0. 0.]
1.6353294849395752,0.015601814724504948,0.01585671864449978,-0.09250680357217789,0.9954636096954346,[0. 0. 0. 0. 0. 0. 0. 0. 0.],-0.244140625,-0.732421875,-0.18310546875,[0. 0. 0. 0. 0. 0. 0. 0. 0.],-0.03466796875,0.0283203125,1.00341796875,[0. 0. 0. 0. 0. 0. 0. 0. 0.]
1.6555392742156982,0.016449501737952232,0.015598424710333347,-0.09251509606838226,0.9954532384872437,[0. 0. 0. 0. 0. 0. 0. 0. 0.],-0.244140625,-0.48828125,-0.18310546875,[0. 0. 0. 0. 0. 0. 0. 0. 0.],-0.0341796875,0.0302734375,1.0029296875,[0. 0. 0. 0. 0. 0. 0. 0. 0.]
1.6750671863555908,0.016125574707984924,0.016516361385583878,-0.09256740659475327,0.995438814163208,[0. 0. 0. 0. 0. 0. 0. 0. 0.],0.06103515625,-0.3662109375,-0.1220703125,[0. 0. 0. 0. 0. 0. 0. 0. 0.],-0.03662109375,0.02880859375,1.00244140625,[0. 0. 0. 0. 0. 0. 0. 0. 0.]
1.6952018737792969,0.016405630856752396,0.01633276604115963,-0.09259752929210663,0.995434582233429,[0. 0. 0. 0. 0. 0. 0. 0. 0.],0.1220703125,-0.79345703125,0.0,[0. 0. 0. 0. 0. 0. 0. 0. 0.],-0.03564453125,0.02978515625,1.00341796875,[0. 0. 0. 0. 0. 0. 0. 0. 0.]
1.7151820659637451,0.016111882403492928,0.015500755980610847,-0.09262365847826004,0.9954501390457153,[0. 0. 0. 0. 0. 0. 0. 0. 0.],0.0,-0.9765625,-0.3662109375,[0. 0. 0. 0. 0. 0. 0. 0. 0.],-0.0341796875,0.029296875,1.00439453125,[0. 0. 0. 0. 0. 0. 0. 0. 0.]
1.735295057296753,0.015356401912868023,0.015846237540245056,-0.0926676094532013,0.9954525828361511,[0. 0. 0. 0. 0. 0. 0. 0. 0.],-0.244140625,-0.67138671875,-0.18310546875,[0. 0. 0. 0. 0. 0. 0. 0. 0.],-0.0341796875,0.02783203125,1.00439453125,[0. 0. 0. 0. 0. 0. 0. 0. 0.]
1.7552056312561035,0.015480280853807926,0.016194909811019897,-0.09269419312477112,0.9954425692558289,[0. 0. 0. 0. 0. 0. 0. 0. 0.],-0.244140625,-0.3662109375,-0.1220703125,[0. 0. 0. 0. 0. 0. 0. 0. 0.],-0.03515625,0.0283203125,1.00146484375,[0. 0. 0. 0. 0. 0. 0. 0. 0.]
1.7752737998962402,0.016468951478600502,0.01589713990688324,-0.09269525855779648,0.9954314231872559,[0. 0. 0. 0. 0. 0. 0. 0. 0.],-0.1220703125,-0.3662109375,-0.06103515625,[0. 0. 0. 0. 0. 0. 0. 0. 0.],-0.03466796875,0.02978515625,1.00341796875,[0. 0. 0. 0. 0. 0. 0. 0. 0.]
1.7954418659210205,0.016809599474072456,0.01498329546302557,-0.09270061552524567,0.9954394102096558,[0. 0. 0. 0. 0. 0. 0. 0. 0.],-0.1220703125,-0.54931640625,0.0,[0. 0. 0. 0. 0. 0. 0. 0. 0.],-0.033203125,0.03076171875,1.00341796875,[0. 0. 0. 0. 0. 0. 0. 0. 0.]
1.8152453899383545,0.016464129090309143,0.0156553927809,-0.09275104850530624,0.9954301118850708,[0. 0. 0. 0. 0. 0. 0. 0. 0.],0.0,-0.8544921875,-0.18310546875,[0. 0. 0. 0. 0. 0. 0. 0. 0.],-0.0341796875,0.0302734375,1.00244140625,[0. 0. 0. 0. 0. 0. 0. 0. 0.]
1.8365108966827393,0.016163095831871033,0.014807202853262424,-0.09278666973114014,0.9954447150230408,[0. 0. 0. 0. 0. 0. 0. 0. 0.],0.06103515625,-0.8544921875,-0.244140625,[0. 0. 0. 0. 0. 0. 0. 0. 0.],-0.033203125,0.02978515625,1.001953125,[0. 0. 0. 0. 0. 0. 0. 0. 0.]
1.8554174900054932,0.01655500940978527,0.01592301018536091,-0.09281693398952484,0.9954182505607605,[0. 0. 0. 0. 0. 0. 0. 0. 0.],-0.18310546875,-0.54931640625,-0.1220703125,[0. 0. 0. 0. 0. 0. 0. 0. 0.],-0.03466796875,0.0302734375,1.0029296875,[0. 0. 0. 0. 0. 0. 0. 0. 0.]
1.8702425956726074,0.01682376116514206,0.015731336548924446,-0.09284165501594543,0.9954145550727844,[0. 0. 0. 0. 0. 0. 0. 0. 0.],-0.18310546875,-0.3662109375,-0.18310546875,[0. 0. 0. 0. 0. 0. 0. 0. 0.],-0.03466796875,0.03076171875,1.0029296875,[0. 0. 0. 0. 0. 0. 0. 0. 0.]
1.8956871032714844,0.01603422872722149,0.015444633550941944,-0.09288325160741806,0.9954280853271484,[0. 0. 0. 0. 0. 0. 0. 0. 0.],-0.06103515625,-0.54931640625,-0.18310546875,[0. 0. 0. 0. 0. 0. 0. 0. 0.],-0.0341796875,0.02880859375,1.001953125,[0. 0. 0. 0. 0. 0. 0. 0. 0.]
1.915252447128296,0.01628737710416317,0.015829844400286674,-0.09291379898786545,0.9954151511192322,[0. 0. 0. 0. 0. 0. 0. 0. 0.],-0.06103515625,-0.9765625,-0.244140625,[0. 0. 0. 0. 0. 0. 0. 0. 0.],-0.03466796875,0.02978515625,1.00146484375,[0. 0. 0. 0. 0. 0. 0. 0. 0.]
1.9351658821105957,0.016737474128603935,0.015393142588436604,-0.09293068200349808,0.9954128861427307,[0. 0. 0. 0. 0. 0. 0. 0. 0.],-0.1220703125,-0.91552734375,-0.30517578125,[0. 0. 0. 0. 0. 0. 0. 0. 0.],-0.0341796875,0.03076171875,1.0029296875,[0. 0. 0. 0. 0. 0. 0. 0. 0.]
1.9552583694458008,0.01592697948217392,0.014972285367548466,-0.09296736121177673,0.9954291582107544,[0. 0. 0. 0. 0. 0. 0. 0. 0.],-0.244140625,-0.42724609375,-0.18310546875,[0. 0. 0. 0. 0. 0. 0. 0. 0.],-0.033203125,0.029296875,1.00244140625,[0. 0. 0. 0. 0. 0. 0. 0. 0.]
1.9758810997009277,0.017017770558595657,0.01611926779150963,-0.09300117194652557,0.9953900575637817,[0. 0. 0. 0. 0. 0. 0. 0. 0.],-0.244140625,-0.42724609375,-0.18310546875,[0. 0. 0. 0. 0. 0. 0. 0. 0.],-0.03515625,0.03076171875,1.0029296875,[0. 0. 0. 0. 0. 0. 0. 0. 0.]
1.9902546405792236,0.01589343696832657,0.01628667116165161,-0.09304296970367432,0.9954020380973816,[0. 0. 0. 0. 0. 0. 0. 0. 0.],0.1220703125,-0.67138671875,0.0,[0. 0. 0. 0. 0. 0. 0. 0. 0.],-0.03564453125,0.02880859375,1.001953125,[0. 0. 0. 0. 0. 0. 0. 0. 0.]
2.0152299404144287,0.01591077446937561,0.016082793474197388,-0.09307396411895752,0.9954021573066711,[0. 0. 0. 0. 0. 0. 0. 0. 0.],-0.06103515625,-0.91552734375,-0.244140625,[0. 0. 0. 0. 0. 0. 0. 0. 0.],-0.03515625,0.02880859375,1.00048828125,[0. 0. 0. 0. 0. 0. 0. 0. 0.]
2.037079334259033,0.015693750232458115,0.015032590366899967,-0.09309987723827362,0.9954196214675903,[0. 0. 0. 0. 0. 0. 0. 0. 0.],0.1220703125,-0.9765625,-0.18310546875,[0. 0. 0. 0. 0. 0. 0. 0. 0.],-0.03369140625,0.0283203125,1.00390625,[0. 0. 0. 0. 0. 0. 0. 0. 0.]
2.0568666458129883,0.016678251326084137,0.01578054390847683,-0.09310892969369888,0.9953911900520325,[0. 0. 0. 0. 0. 0. 0. 0. 0.],-0.244140625,-0.42724609375,-0.06103515625,[0. 0. 0. 0. 0. 0. 0. 0. 0.],-0.03466796875,0.0302734375,1.00537109375,[0. 0. 0. 0. 0. 0. 0. 0. 0.]
2.075380563735962,0.01717785932123661,0.01656195893883705,-0.09313886612653732,0.995367169380188,[0. 0. 0. 0. 0. 0. 0. 0. 0.],-0.1220703125,-0.3662109375,-0.1220703125,[0. 0. 0. 0. 0. 0. 0. 0. 0.],-0.03564453125,0.03076171875,1.00244140625,[0. 0. 0. 0. 0. 0. 0. 0. 0.]
2.095165729522705,0.015514601953327656,0.0158707182854414,-0.09317902475595474,0.9954019784927368,[0. 0. 0. 0. 0. 0. 0. 0. 0.],0.1220703125,-0.6103515625,-0.1220703125,[0. 0. 0. 0. 0. 0. 0. 0. 0.],-0.03466796875,0.02783203125,1.0029296875,[0. 0. 0. 0. 0. 0. 0. 0. 0.]
2.110243797302246,0.016220176592469215,0.016285186633467674,-0.09320442378520966,0.9953816533088684,[0. 0. 0. 0. 0. 0. 0. 0. 0.],-0.06103515625,-1.03759765625,-0.18310546875,[0. 0. 0. 0. 0. 0. 0. 0. 0.],-0.03564453125,0.029296875,1.00341796875,[0. 0. 0. 0. 0. 0. 0. 0. 0.]
2.130889415740967,0.01654336042702198,0.01483860332518816,-0.09320900589227676,0.9953985810279846,[0. 0. 0. 0. 0. 0. 0. 0. 0.],-0.18310546875,-0.67138671875,-0.18310546875,[0. 0. 0. 0. 0. 0. 0. 0. 0.],-0.03271484375,0.0302734375,1.00244140625,[0. 0. 0. 0. 0. 0. 0. 0. 0.]
2.155202627182007,0.015954606235027313,0.015540988184511662,-0.09325841814279556,0.9953928589820862,[0. 0. 0. 0. 0. 0. 0. 0. 0.],-0.1220703125,-0.42724609375,-0.06103515625,[0. 0. 0. 0. 0. 0. 0. 0. 0.],-0.0341796875,0.02880859375,1.0,[0. 0. 0. 0. 0. 0. 0. 0. 0.]
2.1751811504364014,0.01609775982797146,0.01554783247411251,-0.0932672992348671,0.9953896403312683,[0. 0. 0. 0. 0. 0. 0. 0. 0.],0.0,-0.48828125,0.0,[0. 0. 0. 0. 0. 0. 0. 0. 0.],-0.03466796875,0.02880859375,1.0009765625,[0. 0. 0. 0. 0. 0. 0. 0. 0.]
2.1954221725463867,0.01592770218849182,0.016415530815720558,-0.09332280606031418,0.9953731894493103,[0. 0. 0. 0. 0. 0. 0. 0. 0.],0.06103515625,-0.79345703125,-0.1220703125,[0. 0. 0. 0. 0. 0. 0. 0. 0.],-0.03564453125,0.02880859375,1.0029296875,[0. 0. 0. 0. 0. 0. 0. 0. 0.]
2.215898036956787,0.016306119039654732,0.016355600208044052,-0.09334441274404526,0.9953660368919373,[0. 0. 0. 0. 0. 0. 0. 0. 0.],-0.1220703125,-0.91552734375,-0.30517578125,[0. 0. 0. 0. 0. 0. 0. 0. 0.],-0.03515625,0.02978515625,1.0009765625,[0. 0. 0. 0. 0. 0. 0. 0. 0.]
2.2305662631988525,0.016938213258981705,0.015607516281306744,-0.0933544859290123,0.9953665137290955,[0. 0. 0. 0. 0. 0. 0. 0. 0.],-0.06103515625,-0.79345703125,-0.18310546875,[0. 0. 0. 0. 0. 0. 0. 0. 0.],-0.03466796875,0.03076171875,1.0009765625,[0. 0. 0. 0. 0. 0. 0. 0. 0.]
2.2552402019500732,0.01629987731575966,0.015549943782389164,-0.09338878840208054,0.9953749179840088,[0. 0. 0. 0. 0. 0. 0. 0. 0.],-0.18310546875,-0.6103515625,-0.1220703125,[0. 0. 0. 0. 0. 0. 0. 0. 0.],-0.0341796875,0.02978515625,1.0009765625,[0. 0. 0. 0. 0. 0. 0. 0. 0.]
2.275045394897461,0.016169901937246323,0.015261671505868435,-0.0934162437915802,0.9953787922859192,[0. 0. 0. 0. 0. 0. 0. 0. 0.],-0.1220703125,-0.30517578125,-0.1220703125,[0. 0. 0. 0. 0. 0. 0. 0. 0.],-0.03369140625,0.029296875,1.0029296875,[0. 0. 0. 0. 0. 0. 0. 0. 0.]
2.2957990169525146,0.01583004929125309,0.015544893220067024,-0.09346430748701096,0.9953754544258118,[0. 0. 0. 0. 0. 0. 0. 0. 0.],-0.06103515625,-0.48828125,-0.1220703125,[0. 0. 0. 0. 0. 0. 0. 0. 0.],-0.0341796875,0.029296875,1.001953125,[0. 0. 0. 0. 0. 0. 0. 0. 0.]
2.3177366256713867,0.015621079131960869,0.016132069751620293,-0.0935090184211731,0.9953652024269104,[0. 0. 0. 0. 0. 0. 0. 0. 0.],0.1220703125,-0.54931640625,-0.06103515625,[0. 0. 0. 0. 0. 0. 0. 0. 0.],-0.03564453125,0.02783203125,1.00390625,[0. 0. 0. 0. 0. 0. 0. 0. 0.]
2.330312967300415,0.01616508886218071,0.015545942820608616,-0.09350843727588654,0.9953658580780029,[0. 0. 0. 0. 0. 0. 0. 0. 0.],-0.18310546875,-0.8544921875,-0.244140625,[0. 0. 0. 0. 0. 0. 0. 0. 0.],-0.0341796875,0.02880859375,1.00146484375,[0. 0. 0. 0. 0. 0. 0. 0. 0.]
2.355367660522461,0.01617707870900631,0.015489112585783005,-0.09353671222925186,0.9953639507293701,[0. 0. 0. 0. 0. 0. 0. 0. 0.],-0.244140625,-0.6103515625,-0.244140625,[0. 0. 0. 0. 0. 0. 0. 0. 0.],-0.0341796875,0.02978515625,1.00390625,[0. 0. 0. 0. 0. 0. 0. 0. 0.]
2.370412588119507,0.016116613522171974,0.015321388840675354,-0.09355483949184418,0.9953657388687134,[0. 0. 0. 0. 0. 0. 0. 0. 0.],-0.06103515625,-0.54931640625,-0.06103515625,[0. 0. 0. 0. 0. 0. 0. 0. 0.],-0.03369140625,0.029296875,1.00390625,[0. 0. 0. 0. 0. 0. 0. 0. 0.]
2.3954367637634277,0.01660298928618431,0.016041448339819908,-0.09359096735715866,0.9953430891036987,[0. 0. 0. 0. 0. 0. 0. 0. 0.],0.0,-0.6103515625,-0.1220703125,[0. 0. 0. 0. 0. 0. 0. 0. 0.],-0.03515625,0.029296875,1.00146484375,[0. 0. 0. 0. 0. 0. 0. 0. 0.]
2.415363073348999,0.016451725736260414,0.015716983005404472,-0.09361816197633743,0.9953482151031494,[0. 0. 0. 0. 0. 0. 0. 0. 0.],0.06103515625,-0.91552734375,-0.1220703125,[0. 0. 0. 0. 0. 0. 0. 0. 0.],-0.03466796875,0.0302734375,1.00244140625,[0. 0. 0. 0. 0. 0. 0. 0. 0.]
2.4352779388427734,0.015783196315169334,0.015737855806946754,-0.0936509445309639,0.9953556060791016,[0. 0. 0. 0. 0. 0. 0. 0. 0.],-0.1220703125,-0.79345703125,-0.06103515625,[0. 0. 0. 0. 0. 0. 0. 0. 0.],-0.03466796875,0.02880859375,1.00341796875,[0. 0. 0. 0. 0. 0. 0. 0. 0.]
2.45556902885437,0.016663040965795517,0.0157700777053833,-0.09365499019622803,0.9953403472900391,[0. 0. 0. 0. 0. 0. 0. 0. 0.],-0.18310546875,-0.732421875,-0.1220703125,[0. 0. 0. 0. 0. 0. 0. 0. 0.],-0.03466796875,0.0302734375,1.00244140625,[0. 0. 0. 0. 0. 0. 0. 0. 0.]
2.4715335369110107,0.016673194244503975,0.014728182926774025,-0.09366355091333389,0.9953554272651672,[0. 0. 0. 0. 0. 0. 0. 0. 0.],-0.30517578125,-0.54931640625,-0.1220703125,[0. 0. 0. 0. 0. 0. 0. 0. 0.],-0.033203125,0.0302734375,1.0009765625,[0. 0. 0. 0. 0. 0. 0. 0. 0.]
2.4956517219543457,0.016294125467538834,0.015054788440465927,-0.09370642900466919,0.9953526854515076,[0. 0. 0. 0. 0. 0. 0. 0. 0.],0.0,-0.732421875,-0.18310546875,[0. 0. 0. 0. 0. 0. 0. 0. 0.],-0.03271484375,0.029296875,1.0029296875,[0. 0. 0. 0. 0. 0. 0. 0. 0.]
2.5153396129608154,0.015767566859722137,0.015771280974149704,-0.09375139325857162,0.9953458905220032,[0. 0. 0. 0. 0. 0. 0. 0. 0.],-0.18310546875,-0.8544921875,-0.1220703125,[0. 0. 0. 0. 0. 0. 0. 0. 0.],-0.0341796875,0.02880859375,1.00146484375,[0. 0. 0. 0. 0. 0. 0. 0. 0.]
2.5351402759552,0.01575080305337906,0.01660739816725254,-0.0937894806265831,0.9953289031982422,[0. 0. 0. 0. 0. 0. 0. 0. 0.],-0.244140625,-0.732421875,-0.30517578125,[0. 0. 0. 0. 0. 0. 0. 0. 0.],-0.03564453125,0.0283203125,1.0029296875,[0. 0. 0. 0. 0. 0. 0. 0. 0.]
2.555323839187622,0.016668980941176414,0.015396802686154842,-0.09378906339406967,0.9953334331512451,[0. 0. 0. 0. 0. 0. 0. 0. 0.],-0.06103515625,-0.67138671875,-0.30517578125,[0. 0. 0. 0. 0. 0. 0. 0. 0.],-0.0341796875,0.02978515625,1.00048828125,[0. 0. 0. 0. 0. 0. 0. 0. 0.]
2.575192451477051,0.01553926058113575,0.015539382584393024,-0.0938238576054573,0.9953463077545166,[0. 0. 0. 0. 0. 0. 0. 0. 0.],-0.244140625,-0.42724609375,0.1220703125,[0. 0. 0. 0. 0. 0. 0. 0. 0.],-0.0341796875,0.0283203125,1.0009765625,[0. 0. 0. 0. 0. 0. 0. 0. 0.]
2.5954296588897705,0.016125040128827095,0.015905894339084625,-0.0938485637307167,0.9953288435935974,[0. 0. 0. 0. 0. 0. 0. 0. 0.],0.06103515625,-0.732421875,-0.06103515625,[0. 0. 0. 0. 0. 0. 0. 0. 0.],-0.03466796875,0.029296875,1.0029296875,[0. 0. 0. 0. 0. 0. 0. 0. 0.]
2.616461753845215,0.01666095107793808,0.01573762483894825,-0.09387242048978806,0.9953204393386841,[0. 0. 0. 0. 0. 0. 0. 0. 0.],0.1220703125,-0.91552734375,-0.1220703125,[0. 0. 0. 0. 0. 0. 0. 0. 0.],-0.03466796875,0.03076171875,1.00390625,[0. 0. 0. 0. 0. 0. 0. 0. 0.]
2.6352124214172363,0.01622522994875908,0.015465175732970238,-0.09389279782772064,0.9953300356864929,[0. 0. 0. 0. 0. 0. 0. 0. 0.],-0.18310546875,-0.67138671875,-0.18310546875,[0. 0. 0. 0. 0. 0. 0. 0. 0.],-0.0341796875,0.02978515625,1.00244140625,[0. 0. 0. 0. 0. 0. 0. 0. 0.]
2.653791904449463,0.01624193973839283,0.015962405130267143,-0.09392150491476059,0.995319128036499,[0. 0. 0. 0. 0. 0. 0. 0. 0.],-0.1220703125,-0.3662109375,-0.1220703125,[0. 0. 0. 0. 0. 0. 0. 0. 0.],-0.03515625,0.02978515625,1.00244140625,[0. 0. 0. 0. 0. 0. 0. 0. 0.]
2.675536632537842,0.016669366508722305,0.016036521643400192,-0.09394755214452744,0.9953083992004395,[0. 0. 0. 0. 0. 0. 0. 0. 0.],0.0,-0.48828125,-0.18310546875,[0. 0. 0. 0. 0. 0. 0. 0. 0.],-0.03515625,0.0302734375,1.00244140625,[0. 0. 0. 0. 0. 0. 0. 0. 0.]
2.6959519386291504,0.016659745946526527,0.01574024185538292,-0.09396170824766159,0.9953120350837708,[0. 0. 0. 0. 0. 0. 0. 0. 0.],-0.06103515625,-0.54931640625,-0.06103515625,[0. 0. 0. 0. 0. 0. 0. 0. 0.],-0.0341796875,0.02880859375,1.0029296875,[0. 0. 0. 0. 0. 0. 0. 0. 0.]
2.7154486179351807,0.015774322673678398,0.015785057097673416,-0.09400693327188492,0.9953214526176453,[0. 0. 0. 0. 0. 0. 0. 0. 0.],0.18310546875,-0.9765625,-0.1220703125,[0. 0. 0. 0. 0. 0. 0. 0. 0.],-0.03466796875,0.0283203125,1.001953125,[0. 0. 0. 0. 0. 0. 0. 0. 0.]
2.7367801666259766,0.016660626977682114,0.015779385343194008,-0.09401858597993851,0.9953059554100037,[0. 0. 0. 0. 0. 0. 0. 0. 0.],0.0,-0.8544921875,-0.244140625,[0. 0. 0. 0. 0. 0. 0. 0. 0.],-0.03466796875,0.0302734375,1.001953125,[0. 0. 0. 0. 0. 0. 0. 0. 0.]
2.750563383102417,0.01627487689256668,0.015609516762197018,-0.09404667466878891,0.9953123927116394,[0. 0. 0. 0. 0. 0. 0. 0. 0.],-0.30517578125,-0.6103515625,-0.18310546875,[0. 0. 0. 0. 0. 0. 0. 0. 0.],-0.03466796875,0.029296875,1.001953125,[0. 0. 0. 0. 0. 0. 0. 0. 0.]
2.7759125232696533,0.017108852043747902,0.015251077711582184,-0.09407205879688263,0.9953016042709351,[0. 0. 0. 0. 0. 0. 0. 0. 0.],-0.30517578125,-0.48828125,-0.18310546875,[0. 0. 0. 0. 0. 0. 0. 0. 0.],-0.0341796875,0.03125,1.0009765625,[0. 0. 0. 0. 0. 0. 0. 0. 0.]
2.790411949157715,0.016219554468989372,0.015354324132204056,-0.0941133201122284,0.9953109622001648,[0. 0. 0. 0. 0. 0. 0. 0. 0.],0.1220703125,-0.67138671875,-0.06103515625,[0. 0. 0. 0. 0. 0. 0. 0. 0.],-0.03369140625,0.029296875,1.00146484375,[0. 0. 0. 0. 0. 0. 0. 0. 0.]
2.8105201721191406,0.015875982120633125,0.01572134532034397,-0.0941566675901413,0.9953066110610962,[0. 0. 0. 0. 0. 0. 0. 0. 0.],0.0,-1.0986328125,-0.18310546875,[0. 0. 0. 0. 0. 0. 0. 0. 0.],-0.03466796875,0.02880859375,1.00341796875,[0. 0. 0. 0. 0. 0. 0. 0. 0.]
2.8352255821228027,0.016242800280451775,0.016276443377137184,-0.09419563412666321,0.995288074016571,[0. 0. 0. 0. 0. 0. 0. 0. 0.],-0.18310546875,-0.67138671875,-0.3662109375,[0. 0. 0. 0. 0. 0. 0. 0. 0.],-0.03515625,0.02978515625,1.00341796875,[0. 0. 0. 0. 0. 0. 0. 0. 0.]
2.855165481567383,0.016141656786203384,0.016052965074777603,-0.09422837942838669,0.9952903389930725,[0. 0. 0. 0. 0. 0. 0. 0. 0.],-0.18310546875,-0.3662109375,-0.18310546875,[0. 0. 0. 0. 0. 0. 0. 0. 0.],-0.03466796875,0.02880859375,1.0029296875,[0. 0. 0. 0. 0. 0. 0. 0. 0.]
2.8754615783691406,0.01650938391685486,0.01592734269797802,-0.0942394882440567,0.9952852725982666,[0. 0. 0. 0. 0. 0. 0. 0. 0.],-0.1220703125,-0.48828125,-0.1220703125,[0. 0. 0. 0. 0. 0. 0. 0. 0.],-0.03515625,0.02978515625,1.00341796875,[0. 0. 0. 0. 0. 0. 0. 0. 0.]
2.8954262733459473,0.015594963915646076,0.01599936932325363,-0.09429120272397995,0.995293915271759,[0. 0. 0. 0. 0. 0. 0. 0. 0.],0.0,-0.67138671875,-0.06103515625,[0. 0. 0. 0. 0. 0. 0. 0. 0.],-0.03466796875,0.02880859375,1.001953125,[0. 0. 0. 0. 0. 0. 0. 0. 0.]
2.915395975112915,0.01607985980808735,0.015158523805439472,-0.09430786222219467,0.9952978491783142,[0. 0. 0. 0. 0. 0. 0. 0. 0.],0.0,-0.9765625,-0.30517578125,[0. 0. 0. 0. 0. 0. 0. 0. 0.],-0.033203125,0.02978515625,1.00146484375,[0. 0. 0. 0. 0. 0. 0. 0. 0.]
2.9354662895202637,0.016052711755037308,0.015376576222479343,-0.09434633702039719,0.9952912926673889,[0. 0. 0. 0. 0. 0. 0. 0. 0.],-0.18310546875,-0.732421875,-0.244140625,[0. 0. 0. 0. 0. 0. 0. 0. 0.],-0.03369140625,0.02978515625,1.00341796875,[0. 0. 0. 0. 0. 0. 0. 0. 0.]
2.955122232437134,0.016406381502747536,0.015596384182572365,-0.094365194439888,0.9952803254127502,[0. 0. 0. 0. 0. 0. 0. 0. 0.],-0.1220703125,-0.42724609375,-0.06103515625,[0. 0. 0. 0. 0. 0. 0. 0. 0.],-0.03369140625,0.02978515625,1.0009765625,[0. 0. 0. 0. 0. 0. 0. 0. 0.]
2.9751639366149902,0.015702374279499054,0.016048023477196693,-0.09442363679409027,0.9952788949012756,[0. 0. 0. 0. 0. 0. 0. 0. 0.],-0.1220703125,-0.42724609375,-0.1220703125,[0. 0. 0. 0. 0. 0. 0. 0. 0.],-0.03466796875,0.0283203125,1.00048828125,[0. 0. 0. 0. 0. 0. 0. 0. 0.]
2.9954426288604736,0.014984400942921638,0.016701899468898773,-0.09447642415761948,0.9952742457389832,[0. 0. 0. 0. 0. 0. 0. 0. 0.],-0.1220703125,-0.8544921875,-0.06103515625,[0. 0. 0. 0. 0. 0. 0. 0. 0.],-0.03564453125,0.02685546875,1.00048828125,[0. 0. 0. 0. 0. 0. 0. 0. 0.]
3.0164287090301514,0.016782207414507866,0.015196017920970917,-0.09445128589868546,0.9952720403671265,[0. 0. 0. 0. 0. 0. 0. 0. 0.],0.0,-0.79345703125,-0.06103515625,[0. 0. 0. 0. 0. 0. 0. 0. 0.],-0.03369140625,0.0302734375,1.0029296875,[0. 0. 0. 0. 0. 0. 0. 0. 0.]
3.0354208946228027,0.016334468498826027,0.01565077342092991,-0.09449105709791183,0.9952685832977295,[0. 0. 0. 0. 0. 0. 0. 0. 0.],-0.06103515625,-0.67138671875,-0.18310546875,[0. 0. 0. 0. 0. 0. 0. 0. 0.],-0.0341796875,0.02978515625,1.0009765625,[0. 0. 0. 0. 0. 0. 0. 0. 0.]
3.0555660724639893,0.015902891755104065,0.015974480658769608,-0.09453032165765762,0.9952667951583862,[0. 0. 0. 0. 0. 0. 0. 0. 0.],-0.244140625,-0.6103515625,-0.18310546875,[0. 0. 0. 0. 0. 0. 0. 0. 0.],-0.03515625,0.02880859375,1.00390625,[0. 0. 0. 0. 0. 0. 0. 0. 0.]
3.075263500213623,0.015856925398111343,0.015301506035029888,-0.09452959895133972,0.9952781796455383,[0. 0. 0. 0. 0. 0. 0. 0. 0.],0.0,-0.6103515625,0.0,[0. 0. 0. 0. 0. 0. 0. 0. 0.],-0.03369140625,0.02880859375,1.00390625,[0. 0. 0. 0. 0. 0. 0. 0. 0.]
3.0958786010742188,0.016788113862276077,0.01587211899459362,-0.09455470740795135,0.9952515959739685,[0. 0. 0. 0. 0. 0. 0. 0. 0.],0.0,-0.54931640625,-0.06103515625,[0. 0. 0. 0. 0. 0. 0. 0. 0.],-0.0341796875,0.0302734375,1.0009765625,[0. 0. 0. 0. 0. 0. 0. 0. 0.]
3.110292434692383,0.01632644236087799,0.015294304117560387,-0.09458200633525848,0.9952657222747803,[0. 0. 0. 0. 0. 0. 0. 0. 0.],-0.06103515625,-0.8544921875,-0.244140625,[0. 0. 0. 0. 0. 0. 0. 0. 0.],-0.03369140625,0.02978515625,1.00341796875,[0. 0. 0. 0. 0. 0. 0. 0. 0.]
3.1353321075439453,0.01642514020204544,0.01666840724647045,-0.09462887793779373,0.9952375888824463,[0. 0. 0. 0. 0. 0. 0. 0. 0.],-0.244140625,-0.54931640625,-0.1220703125,[0. 0. 0. 0. 0. 0. 0. 0. 0.],-0.03662109375,0.02978515625,1.00341796875,[0. 0. 0. 0. 0. 0. 0. 0. 0.]
3.155566453933716,0.01602155901491642,0.015752416104078293,-0.09466011077165604,0.9952560663223267,[0. 0. 0. 0. 0. 0. 0. 0. 0.],-0.30517578125,-0.6103515625,-0.30517578125,[0. 0. 0. 0. 0. 0. 0. 0. 0.],-0.03369140625,0.02880859375,1.00244140625,[0. 0. 0. 0. 0. 0. 0. 0. 0.]
3.178891658782959,0.01662197895348072,0.015064817853271961,-0.094669409096241,0.9952560067176819,[0. 0. 0. 0. 0. 0. 0. 0. 0.],-0.244140625,-0.54931640625,-0.1220703125,[0. 0. 0. 0. 0. 0. 0. 0. 0.],-0.03369140625,0.02978515625,1.00244140625,[0. 0. 0. 0. 0. 0. 0. 0. 0.]
3.1951167583465576,0.016277387738227844,0.015361388213932514,-0.09470071643590927,0.9952542185783386,[0. 0. 0. 0. 0. 0. 0. 0. 0.],0.0,-0.6103515625,-0.06103515625,[0. 0. 0. 0. 0. 0. 0. 0. 0.],-0.03369140625,0.029296875,1.0,[0. 0. 0. 0. 0. 0. 0. 0. 0.]
3.210726499557495,0.016911379992961884,0.015934349969029427,-0.09472215920686722,0.9952325820922852,[0. 0. 0. 0. 0. 0. 0. 0. 0.],0.0,-0.9765625,-0.06103515625,[0. 0. 0. 0. 0. 0. 0. 0. 0.],-0.03515625,0.03076171875,1.001953125,[0. 0. 0. 0. 0. 0. 0. 0. 0.]
3.2436811923980713,0.015735819935798645,0.016151081770658493,-0.09477344155311584,0.9952435493469238,[0. 0. 0. 0. 0. 0. 0. 0. 0.],-0.06103515625,-0.67138671875,0.0,[0. 0. 0. 0. 0. 0. 0. 0. 0.],-0.03515625,0.0283203125,1.00341796875,[0. 0. 0. 0. 0. 0. 0. 0. 0.]
3.2504689693450928,0.01659138686954975,0.015795493498444557,-0.09475924074649811,0.9952366352081299,[0. 0. 0. 0. 0. 0. 0. 0. 0.],-0.18310546875,-0.42724609375,-0.1220703125,[0. 0. 0. 0. 0. 0. 0. 0. 0.],-0.03466796875,0.0302734375,1.001953125,[0. 0. 0. 0. 0. 0. 0. 0. 0.]
3.2706637382507324,0.016427461057901382,0.015546386130154133,-0.09478002786636353,0.9952412843704224,[0. 0. 0. 0. 0. 0. 0. 0. 0.],0.0,-0.42724609375,0.0,[0. 0. 0. 0. 0. 0. 0. 0. 0.],-0.03369140625,0.0302734375,1.00146484375,[0. 0. 0. 0. 0. 0. 0. 0. 0.]
3.2954413890838623,0.01607563905417919,0.015362595207989216,-0.0948103740811348,0.9952470064163208,[0. 0. 0. 0. 0. 0. 0. 0. 0.],0.06103515625,-0.732421875,0.0,[0. 0. 0. 0. 0. 0. 0. 0. 0.],-0.0341796875,0.02880859375,1.001953125,[0. 0. 0. 0. 0. 0. 0. 0. 0.]
3.315288543701172,0.016711393371224403,0.015459390357136726,-0.09483006596565247,0.9952331781387329,[0. 0. 0. 0. 0. 0. 0. 0. 0.],0.0,-0.9765625,-0.244140625,[0. 0. 0. 0. 0. 0. 0. 0. 0.],-0.0341796875,0.03076171875,1.00244140625,[0. 0. 0. 0. 0. 0. 0. 0. 0.]
3.3412246704101562,0.01597176305949688,0.016063636168837547,-0.09490367770195007,0.9952287673950195,[0. 0. 0. 0. 0. 0. 0. 0. 0.],0.1220703125,-0.79345703125,0.0,[0. 0. 0. 0. 0. 0. 0. 0. 0.],-0.03515625,0.02880859375,1.001953125,[0. 0. 0. 0. 0. 0. 0. 0. 0.]
3.355367422103882,0.016077036038041115,0.015228211879730225,-0.09489278495311737,0.9952411651611328,[0. 0. 0. 0. 0. 0. 0. 0. 0.],-0.244140625,-0.30517578125,-0.06103515625,[0. 0. 0. 0. 0. 0. 0. 0. 0.],-0.03369140625,0.029296875,1.0029296875,[0. 0. 0. 0. 0. 0. 0. 0. 0.]
3.3805811405181885,0.01546469796448946,0.01575646735727787,-0.09492690116167068,0.9952393770217896,[0. 0. 0. 0. 0. 0. 0. 0. 0.],-0.18310546875,-0.67138671875,0.0,[0. 0. 0. 0. 0. 0. 0. 0. 0.],-0.0341796875,0.0283203125,1.00341796875,[0. 0. 0. 0. 0. 0. 0. 0. 0.]
3.395263671875,0.016553465276956558,0.016514824703335762,-0.09495073556900024,0.9952073097229004,[0. 0. 0. 0. 0. 0. 0. 0. 0.],0.0,-0.79345703125,-0.1220703125,[0. 0. 0. 0. 0. 0. 0. 0. 0.],-0.03564453125,0.02978515625,1.00439453125,[0. 0. 0. 0. 0. 0. 0. 0. 0.]
3.415250778198242,0.01590259000658989,0.01588783785700798,-0.09499163180589676,0.9952242374420166,[0. 0. 0. 0. 0. 0. 0. 0. 0.],-0.18310546875,-0.9765625,-0.244140625,[0. 0. 0. 0. 0. 0. 0. 0. 0.],-0.03466796875,0.02880859375,1.00439453125,[0. 0. 0. 0. 0. 0. 0. 0. 0.]
3.4339094161987305,0.016338951885700226,0.015717292204499245,-0.09502489864826202,0.9952167272567749,[0. 0. 0. 0. 0. 0. 0. 0. 0.],0.0,-0.79345703125,-0.18310546875,[0. 0. 0. 0. 0. 0. 0. 0. 0.],-0.0341796875,0.029296875,1.00341796875,[0. 0. 0. 0. 0. 0. 0. 0. 0.]
3.4552838802337646,0.015973569825291634,0.015350017696619034,-0.09504047781229019,0.9952269196510315,[0. 0. 0. 0. 0. 0. 0. 0. 0.],-0.1220703125,-0.18310546875,-0.1220703125,[0. 0. 0. 0. 0. 0. 0. 0. 0.],-0.033203125,0.02880859375,1.001953125,[0. 0. 0. 0. 0. 0. 0. 0. 0.]
3.4884467124938965,0.016647249460220337,0.015457679517567158,-0.09504988044500351,0.9952133297920227,[0. 0. 0. 0. 0. 0. 0. 0. 0.],0.06103515625,-0.54931640625,0.0,[0. 0. 0. 0. 0. 0. 0. 0. 0.],-0.0341796875,0.02978515625,1.0009765625,[0. 0. 0. 0. 0. 0. 0. 0. 0.]
3.494588851928711,0.016915803775191307,0.015829265117645264,-0.09508078545331955,0.9951999187469482,[0. 0. 0. 0. 0. 0. 0. 0. 0.],0.0,-0.6103515625,-0.06103515625,[0. 0. 0. 0. 0. 0. 0. 0. 0.],-0.03515625,0.0302734375,1.00146484375,[0. 0. 0. 0. 0. 0. 0. 0. 0.]
3.5154430866241455,0.016261601820588112,0.015068783424794674,-0.09510558098554611,0.9952203035354614,[0. 0. 0. 0. 0. 0. 0. 0. 0.],-0.18310546875,-0.91552734375,-0.18310546875,[0. 0. 0. 0. 0. 0. 0. 0. 0.],-0.033203125,0.02978515625,1.0009765625,[0. 0. 0. 0. 0. 0. 0. 0. 0.]
3.535128593444824,0.016244469210505486,0.015592320822179317,-0.09513956308364868,0.995209276676178,[0. 0. 0. 0. 0. 0. 0. 0. 0.],-0.1220703125,-0.3662109375,-0.18310546875,[0. 0. 0. 0. 0. 0. 0. 0. 0.],-0.0341796875,0.029296875,1.00244140625,[0. 0. 0. 0. 0. 0. 0. 0. 0.]
3.556795597076416,0.016568191349506378,0.01502621453255415,-0.09516879916191101,0.9952099323272705,[0. 0. 0. 0. 0. 0. 0. 0. 0.],-0.244140625,-0.48828125,-0.1220703125,[0. 0. 0. 0. 0. 0. 0. 0. 0.],-0.03369140625,0.0302734375,1.0029296875,[0. 0. 0. 0. 0. 0. 0. 0. 0.]
3.5756237506866455,0.016137871891260147,0.015520465560257435,-0.09521564096212387,0.9952048659324646,[0. 0. 0. 0. 0. 0. 0. 0. 0.],0.0,-0.67138671875,-0.06103515625,[0. 0. 0. 0. 0. 0. 0. 0. 0.],-0.0341796875,0.029296875,1.00244140625,[0. 0. 0. 0. 0. 0. 0. 0. 0.]
3.5951550006866455,0.017182661220431328,0.015230533666908741,-0.09521994739770889,0.9951914548873901,[0. 0. 0. 0. 0. 0. 0. 0. 0.],0.0,-0.9765625,-0.18310546875,[0. 0. 0. 0. 0. 0. 0. 0. 0.],-0.0341796875,0.03076171875,1.00048828125,[0. 0. 0. 0. 0. 0. 0. 0. 0.]
3.615168571472168,0.016830263659358025,0.015211701393127441,-0.09525223076343536,0.995194673538208,[0. 0. 0. 0. 0. 0. 0. 0. 0.],-0.244140625,-0.91552734375,-0.1220703125,[0. 0. 0. 0. 0. 0. 0. 0. 0.],-0.03369140625,0.03076171875,1.00244140625,[0. 0. 0. 0. 0. 0. 0. 0. 0.]
3.6314339637756348,0.01608910970389843,0.015635455027222633,-0.0952858254313469,0.995197057723999,[0. 0. 0. 0. 0. 0. 0. 0. 0.],-0.1220703125,-0.67138671875,-0.18310546875,[0. 0. 0. 0. 0. 0. 0. 0. 0.],-0.0341796875,0.029296875,1.00244140625,[0. 0. 0. 0. 0. 0. 0. 0. 0.]
3.6553266048431396,0.017079023644328117,0.015470516867935658,-0.09529770910739899,0.9951820373535156,[0. 0. 0. 0. 0. 0. 0. 0. 0.],-0.244140625,-0.54931640625,-0.18310546875,[0. 0. 0. 0. 0. 0. 0. 0. 0.],-0.0341796875,0.03076171875,1.00048828125,[0. 0. 0. 0. 0. 0. 0. 0. 0.]
3.6756322383880615,0.016316408291459084,0.01591513864696026,-0.09534995257854462,0.9951828718185425,[0. 0. 0. 0. 0. 0. 0. 0. 0.],0.0,-0.42724609375,0.0,[0. 0. 0. 0. 0. 0. 0. 0. 0.],-0.03466796875,0.02978515625,1.0029296875,[0. 0. 0. 0. 0. 0. 0. 0. 0.]
3.6951382160186768,0.015892455354332924,0.015886181965470314,-0.09538032114505768,0.9951873421669006,[0. 0. 0. 0. 0. 0. 0. 0. 0.],-0.06103515625,-0.732421875,-0.1220703125,[0. 0. 0. 0. 0. 0. 0. 0. 0.],-0.03466796875,0.02880859375,1.0029296875,[0. 0. 0. 0. 0. 0. 0. 0. 0.]
3.715543031692505,0.016008244827389717,0.015374966897070408,-0.09540020674467087,0.9951915740966797,[0. 0. 0. 0. 0. 0. 0. 0. 0.],0.06103515625,-0.9765625,-0.1220703125,[0. 0. 0. 0. 0. 0. 0. 0. 0.],-0.0341796875,0.029296875,1.00341796875,[0. 0. 0. 0. 0. 0. 0. 0. 0.]
3.7306034564971924,0.015311386436223984,0.015990931540727615,-0.09544441848993301,0.9951886534690857,[0. 0. 0. 0. 0. 0. 0. 0. 0.],-0.18310546875,-0.6103515625,-0.244140625,[0. 0. 0. 0. 0. 0. 0. 0. 0.],-0.03466796875,0.02783203125,1.0009765625,[0. 0. 0. 0. 0. 0. 0. 0. 0.]
3.7553019523620605,0.016159819439053535,0.015606142580509186,-0.095460444688797,0.9951797127723694,[0. 0. 0. 0. 0. 0. 0. 0. 0.],-0.30517578125,-0.30517578125,-0.18310546875,[0. 0. 0. 0. 0. 0. 0. 0. 0.],-0.0341796875,0.029296875,1.00244140625,[0. 0. 0. 0. 0. 0. 0. 0. 0.]
3.7751879692077637,0.01612594537436962,0.0154718067497015,-0.0954921618103981,0.995179295539856,[0. 0. 0. 0. 0. 0. 0. 0. 0.],0.06103515625,-0.54931640625,-0.06103515625,[0. 0. 0. 0. 0. 0. 0. 0. 0.],-0.03369140625,0.029296875,1.00390625,[0. 0. 0. 0. 0. 0. 0. 0. 0.]
3.79520320892334,0.01545113604515791,0.016104761511087418,-0.0955413430929184,0.9951752424240112,[0. 0. 0. 0. 0. 0. 0. 0. 0.],-0.06103515625,-0.79345703125,-0.18310546875,[0. 0. 0. 0. 0. 0. 0. 0. 0.],-0.03515625,0.02783203125,1.00341796875,[0. 0. 0. 0. 0. 0. 0. 0. 0.]
3.815561056137085,0.015822743996977806,0.0168440118432045,-0.09556607156991959,0.995154857635498,[0. 0. 0. 0. 0. 0. 0. 0. 0.],-0.06103515625,-0.91552734375,-0.1220703125,[0. 0. 0. 0. 0. 0. 0. 0. 0.],-0.03662109375,0.0283203125,1.0009765625,[0. 0. 0. 0. 0. 0. 0. 0. 0.]
3.8355681896209717,0.01647716574370861,0.016175013035535812,-0.09558036923408508,0.9951539635658264,[0. 0. 0. 0. 0. 0. 0. 0. 0.],-0.18310546875,-0.6103515625,-0.30517578125,[0. 0. 0. 0. 0. 0. 0. 0. 0.],-0.03564453125,0.02978515625,1.00146484375,[0. 0. 0. 0. 0. 0. 0. 0. 0.]
3.851644992828369,0.015639612451195717,0.014972902834415436,-0.09561778604984283,0.9951826930046082,[0. 0. 0. 0. 0. 0. 0. 0. 0.],-0.18310546875,-0.54931640625,-0.244140625,[0. 0. 0. 0. 0. 0. 0. 0. 0.],-0.033203125,0.0283203125,1.001953125,[0. 0. 0. 0. 0. 0. 0. 0. 0.]
3.87544846534729,0.015647511929273605,0.015599844045937061,-0.09564514458179474,0.9951702952384949,[0. 0. 0. 0. 0. 0. 0. 0. 0.],0.0,-0.48828125,-0.06103515625,[0. 0. 0. 0. 0. 0. 0. 0. 0.],-0.03369140625,0.0283203125,1.00244140625,[0. 0. 0. 0. 0. 0. 0. 0. 0.]
3.890465259552002,0.016523363068699837,0.01579185388982296,-0.09567046165466309,0.9951506853103638,[0. 0. 0. 0. 0. 0. 0. 0. 0.],0.1220703125,-0.732421875,-0.18310546875,[0. 0. 0. 0. 0. 0. 0. 0. 0.],-0.03466796875,0.0302734375,1.00341796875,[0. 0. 0. 0. 0. 0. 0. 0. 0.]
3.915414810180664,0.015432832762598991,0.01626233570277691,-0.09572207927703857,0.9951555728912354,[0. 0. 0. 0. 0. 0. 0. 0. 0.],0.0,-0.79345703125,-0.18310546875,[0. 0. 0. 0. 0. 0. 0. 0. 0.],-0.03564453125,0.02734375,1.00341796875,[0. 0. 0. 0. 0. 0. 0. 0. 0.]
3.9356236457824707,0.015629980713129044,0.015391005203127861,-0.0957336500287056,0.9951652884483337,[0. 0. 0. 0. 0. 0. 0. 0. 0.],-0.1220703125,-0.54931640625,-0.244140625,[0. 0. 0. 0. 0. 0. 0. 0. 0.],-0.03369140625,0.0283203125,1.00244140625,[0. 0. 0. 0. 0. 0. 0. 0. 0.]
3.9558398723602295,0.01588081568479538,0.015705522149801254,-0.0957607850432396,0.9951537847518921,[0. 0. 0. 0. 0. 0. 0. 0. 0.],-0.18310546875,-0.30517578125,-0.18310546875,[0. 0. 0. 0. 0. 0. 0. 0. 0.],-0.0341796875,0.02880859375,1.0009765625,[0. 0. 0. 0. 0. 0. 0. 0. 0.]
3.975167989730835,0.015903256833553314,0.015863733366131783,-0.09578701853752136,0.9951483607292175,[0. 0. 0. 0. 0. 0. 0. 0. 0.],-0.1220703125,-0.54931640625,-0.06103515625,[0. 0. 0. 0. 0. 0. 0. 0. 0.],-0.03515625,0.02880859375,1.00146484375,[0. 0. 0. 0. 0. 0. 0. 0. 0.]
3.995347738265991,0.015892086550593376,0.015505659393966198,-0.09581592679023743,0.9951514005661011,[0. 0. 0. 0. 0. 0. 0. 0. 0.],-0.06103515625,-0.8544921875,-0.18310546875,[0. 0. 0. 0. 0. 0. 0. 0. 0.],-0.0341796875,0.02880859375,1.00244140625,[0. 0. 0. 0. 0. 0. 0. 0. 0.]
4.015726327896118,0.017223257571458817,0.015158701688051224,-0.0958072766661644,0.9951355457305908,[0. 0. 0. 0. 0. 0. 0. 0. 0.],-0.06103515625,-0.91552734375,-0.18310546875,[0. 0. 0. 0. 0. 0. 0. 0. 0.],-0.033203125,0.03125,1.00341796875,[0. 0. 0. 0. 0. 0. 0. 0. 0.]
4.035594940185547,0.016476113349199295,0.015408221632242203,-0.09585355222225189,0.9951398372650146,[0. 0. 0. 0. 0. 0. 0. 0. 0.],-0.1220703125,-0.48828125,-0.244140625,[0. 0. 0. 0. 0. 0. 0. 0. 0.],-0.0341796875,0.0302734375,1.0029296875,[0. 0. 0. 0. 0. 0. 0. 0. 0.]
4.055372714996338,0.01667148247361183,0.015754787251353264,-0.09587676078081131,0.9951289296150208,[0. 0. 0. 0. 0. 0. 0. 0. 0.],-0.06103515625,-0.42724609375,-0.1220703125,[0. 0. 0. 0. 0. 0. 0. 0. 0.],-0.03466796875,0.02978515625,1.00390625,[0. 0. 0. 0. 0. 0. 0. 0. 0.]
4.07535195350647,0.01635119505226612,0.01564195565879345,-0.09592091292142868,0.9951317310333252,[0. 0. 0. 0. 0. 0. 0. 0. 0.],0.30517578125,-0.732421875,-0.18310546875,[0. 0. 0. 0. 0. 0. 0. 0. 0.],-0.03466796875,0.029296875,1.00341796875,[0. 0. 0. 0. 0. 0. 0. 0. 0.]
4.096117973327637,0.014628073200583458,0.015859803184866905,-0.09598056972026825,0.9951493144035339,[0. 0. 0. 0. 0. 0. 0. 0. 0.],0.06103515625,-0.732421875,0.0,[0. 0. 0. 0. 0. 0. 0. 0. 0.],-0.03466796875,0.0263671875,1.0009765625,[0. 0. 0. 0. 0. 0. 0. 0. 0.]
4.116002559661865,0.016250157728791237,0.015740912407636642,-0.09597522765398026,0.9951266646385193,[0. 0. 0. 0. 0. 0. 0. 0. 0.],0.06103515625,-0.79345703125,0.0,[0. 0. 0. 0. 0. 0. 0. 0. 0.],-0.03515625,0.0302734375,1.00146484375,[0. 0. 0. 0. 0. 0. 0. 0. 0.]
4.135417938232422,0.016760917380452156,0.015936506912112236,-0.09594161063432693,0.9951183199882507,[0. 0. 0. 0. 0. 0. 0. 0. 0.],-0.244140625,-0.54931640625,0.06103515625,[0. 0. 0. 0. 0. 0. 0. 0. 0.],-0.03515625,0.0302734375,1.0029296875,[0. 0. 0. 0. 0. 0. 0. 0. 0.]
4.156340837478638,0.01644502952694893,0.014324258081614971,-0.09590541571378708,0.9951516389846802,[0. 0. 0. 0. 0. 0. 0. 0. 0.],-0.244140625,0.30517578125,-0.18310546875,[0. 0. 0. 0. 0. 0. 0. 0. 0.],-0.03076171875,0.03076171875,1.00390625,[0. 0. 0. 0. 0. 0. 0. 0. 0.]
4.170332670211792,0.015795012935996056,0.014696130529046059,-0.09605225175619125,0.99514240026474,[0. 0. 0. 0. 0. 0. 0. 0. 0.],-0.06103515625,-0.42724609375,-0.8544921875,[0. 0. 0. 0. 0. 0. 0. 0. 0.],-0.0341796875,0.02880859375,1.00048828125,[0. 0. 0. 0. 0. 0. 0. 0. 0.]
4.196043491363525,0.016622642055153847,0.016298016533255577,-0.09618259966373444,0.9950914978981018,[0. 0. 0. 0. 0. 0. 0. 0. 0.],0.18310546875,-0.8544921875,-0.79345703125,[0. 0. 0. 0. 0. 0. 0. 0. 0.],-0.0400390625,0.03076171875,1.001953125,[0. 0. 0. 0. 0. 0. 0. 0. 0.]
4.215277671813965,0.016136761754751205,0.01618923805654049,-0.09627579152584076,0.9950921535491943,[0. 0. 0. 0. 0. 0. 0. 0. 0.],-0.06103515625,-0.9765625,-0.42724609375,[0. 0. 0. 0. 0. 0. 0. 0. 0.],-0.03369140625,0.02880859375,1.0029296875,[0. 0. 0. 0. 0. 0. 0. 0. 0.]
4.236105680465698,0.015711115673184395,0.013746530748903751,-0.09626135975122452,0.9951372742652893,[0. 0. 0. 0. 0. 0. 0. 0. 0.],-0.06103515625,-0.67138671875,0.0,[0. 0. 0. 0. 0. 0. 0. 0. 0.],-0.029296875,0.0283203125,1.0009765625,[0. 0. 0. 0. 0. 0. 0. 0. 0.]
4.255288600921631,0.01568453200161457,0.014005595818161964,-0.09627961367368698,0.9951322674751282,[0. 0. 0. 0. 0. 0. 0. 0. 0.],0.0,-0.3662109375,-0.30517578125,[0. 0. 0. 0. 0. 0. 0. 0. 0.],-0.03173828125,0.029296875,1.00390625,[0. 0. 0. 0. 0. 0. 0. 0. 0.]
4.276081800460815,0.0159467626363039,0.015712210908532143,-0.09637059271335602,0.9950937032699585,[0. 0. 0. 0. 0. 0. 0. 0. 0.],0.3662109375,-0.732421875,-0.244140625,[0. 0. 0. 0. 0. 0. 0. 0. 0.],-0.041015625,0.02783203125,1.001953125,[0. 0. 0. 0. 0. 0. 0. 0. 0.]
4.291126728057861,0.015868982300162315,0.01742209680378437,-0.09643461555242538,0.995060384273529,[0. 0. 0. 0. 0. 0. 0. 0. 0.],-0.06103515625,-0.9765625,-0.1220703125,[0. 0. 0. 0. 0. 0. 0. 0. 0.],-0.0380859375,0.0283203125,1.00341796875,[0. 0. 0. 0. 0. 0. 0. 0. 0.]
4.316161632537842,0.015317662619054317,0.015004128217697144,-0.09647190570831299,0.9951048493385315,[0. 0. 0. 0. 0. 0. 0. 0. 0.],0.0,-0.79345703125,-0.42724609375,[0. 0. 0. 0. 0. 0. 0. 0. 0.],-0.02978515625,0.02734375,1.00439453125,[0. 0. 0. 0. 0. 0. 0. 0. 0.]
4.335285425186157,0.015735231339931488,0.015270440839231014,-0.09649690240621567,0.9950917959213257,[0. 0. 0. 0. 0. 0. 0. 0. 0.],-0.244140625,-0.42724609375,-0.1220703125,[0. 0. 0. 0. 0. 0. 0. 0. 0.],-0.0361328125,0.02880859375,1.00146484375,[0. 0. 0. 0. 0. 0. 0. 0. 0.]
4.352081775665283,0.016751598566770554,0.01704244129359722,-0.09652586281299591,0.9950435757637024,[0. 0. 0. 0. 0. 0. 0. 0. 0.],-0.18310546875,-0.67138671875,-0.1220703125,[0. 0. 0. 0. 0. 0. 0. 0. 0.],-0.03759765625,0.03076171875,1.00244140625,[0. 0. 0. 0. 0. 0. 0. 0. 0.]
4.3767173290252686,0.017049061134457588,0.015621091239154339,-0.09652625769376755,0.9950618743896484,[0. 0. 0. 0. 0. 0. 0. 0. 0.],0.0,-0.732421875,-0.18310546875,[0. 0. 0. 0. 0. 0. 0. 0. 0.],-0.0341796875,0.03125,1.0048828125,[0. 0. 0. 0. 0. 0. 0. 0. 0.]
4.395516633987427,0.01665712706744671,0.01582910493016243,-0.09658428281545639,0.9950594902038574,[0. 0. 0. 0. 0. 0. 0. 0. 0.],0.06103515625,-0.8544921875,-0.244140625,[0. 0. 0. 0. 0. 0. 0. 0. 0.],-0.03466796875,0.0302734375,1.0009765625,[0. 0. 0. 0. 0. 0. 0. 0. 0.]
4.415263414382935,0.01698220707476139,0.01596090942621231,-0.09660398960113525,0.9950500726699829,[0. 0. 0. 0. 0. 0. 0. 0. 0.],-0.1220703125,-0.79345703125,-0.18310546875,[0. 0. 0. 0. 0. 0. 0. 0. 0.],-0.03515625,0.03076171875,0.9990234375,[0. 0. 0. 0. 0. 0. 0. 0. 0.]
4.435185432434082,0.016880180686712265,0.01588284969329834,-0.09661819785833359,0.9950516819953918,[0. 0. 0. 0. 0. 0. 0. 0. 0.],-0.244140625,-0.67138671875,0.0,[0. 0. 0. 0. 0. 0. 0. 0. 0.],-0.03515625,0.03076171875,1.00390625,[0. 0. 0. 0. 0. 0. 0. 0. 0.]
4.455927610397339,0.016379229724407196,0.015455863438546658,-0.09664979577064514,0.9950637221336365,[0. 0. 0. 0. 0. 0. 0. 0. 0.],-0.18310546875,-0.42724609375,-0.1220703125,[0. 0. 0. 0. 0. 0. 0. 0. 0.],-0.0341796875,0.02978515625,1.00439453125,[0. 0. 0. 0. 0. 0. 0. 0. 0.]
4.475892066955566,0.01652638427913189,0.01590135507285595,-0.09667422622442245,0.9950518608093262,[0. 0. 0. 0. 0. 0. 0. 0. 0.],-0.1220703125,-0.42724609375,-0.1220703125,[0. 0. 0. 0. 0. 0. 0. 0. 0.],-0.03466796875,0.02978515625,1.0,[0. 0. 0. 0. 0. 0. 0. 0. 0.]
4.495229482650757,0.016118697822093964,0.016021346673369408,-0.0967123955488205,0.9950528740882874,[0. 0. 0. 0. 0. 0. 0. 0. 0.],0.0,-0.9765625,-0.18310546875,[0. 0. 0. 0. 0. 0. 0. 0. 0.],-0.03515625,0.02880859375,1.0,[0. 0. 0. 0. 0. 0. 0. 0. 0.]
4.5108349323272705,0.015870219096541405,0.015722958371043205,-0.09672996401786804,0.9950599074363708,[0. 0. 0. 0. 0. 0. 0. 0. 0.],-0.1220703125,-0.732421875,-0.18310546875,[0. 0. 0. 0. 0. 0. 0. 0. 0.],-0.0341796875,0.02880859375,1.0029296875,[0. 0. 0. 0. 0. 0. 0. 0. 0.]
4.535336256027222,0.016520414501428604,0.015417949296534061,-0.0967416986823082,0.9950530529022217,[0. 0. 0. 0. 0. 0. 0. 0. 0.],0.0,-0.732421875,-0.30517578125,[0. 0. 0. 0. 0. 0. 0. 0. 0.],-0.0341796875,0.0302734375,1.00244140625,[0. 0. 0. 0. 0. 0. 0. 0. 0.]
4.556782245635986,0.016252003610134125,0.015637686476111412,-0.09677669405937195,0.9950506091117859,[0. 0. 0. 0. 0. 0. 0. 0. 0.],-0.1220703125,-0.42724609375,0.0,[0. 0. 0. 0. 0. 0. 0. 0. 0.],-0.0341796875,0.02880859375,1.00048828125,[0. 0. 0. 0. 0. 0. 0. 0. 0.]
4.575566291809082,0.0144108347594738,0.01519933994859457,-0.0968233123421669,0.9950812458992004,[0. 0. 0. 0. 0. 0. 0. 0. 0.],-0.1220703125,-0.42724609375,-0.1220703125,[0. 0. 0. 0. 0. 0. 0. 0. 0.],-0.033203125,0.02587890625,1.00146484375,[0. 0. 0. 0. 0. 0. 0. 0. 0.]
4.590105772018433,0.015936873853206635,0.015714116394519806,-0.09683143347501755,0.9950491786003113,[0. 0. 0. 0. 0. 0. 0. 0. 0.],0.0,-0.8544921875,-0.06103515625,[0. 0. 0. 0. 0. 0. 0. 0. 0.],-0.03515625,0.029296875,1.00390625,[0. 0. 0. 0. 0. 0. 0. 0. 0.]
4.61531400680542,0.015981314703822136,0.016424138098955154,-0.09686528891324997,0.9950336813926697,[0. 0. 0. 0. 0. 0. 0. 0. 0.],-0.06103515625,-0.9765625,-0.18310546875,[0. 0. 0. 0. 0. 0. 0. 0. 0.],-0.0361328125,0.029296875,1.00146484375,[0. 0. 0. 0. 0. 0. 0. 0. 0.]
4.63579797744751,0.01621050015091896,0.016318287700414658,-0.09688818454742432,0.9950295090675354,[0. 0. 0. 0. 0. 0. 0. 0. 0.],-0.1220703125,-0.3662109375,-0.244140625,[0. 0. 0. 0. 0. 0. 0. 0. 0.],-0.0361328125,0.029296875,1.001953125,[0. 0. 0. 0. 0. 0. 0. 0. 0.]
4.655638933181763,0.01632915809750557,0.01658271625638008,-0.09681817144155502,0.9950299859046936,[0. 0. 0. 0. 0. 0. 0. 0. 0.],-0.48828125,0.3662109375,0.6103515625,[0. 0. 0. 0. 0. 0. 0. 0. 0.],-0.0361328125,0.029296875,1.00146484375,[0. 0. 0. 0. 0. 0. 0. 0. 0.]
4.676189422607422,0.016744984313845634,0.014959588646888733,-0.09678962826728821,0.9950516223907471,[0. 0. 0. 0. 0. 0. 0. 0. 0.],-0.06103515625,1.28173828125,-0.79345703125,[0. 0. 0. 0. 0. 0. 0. 0. 0.],-0.02880859375,0.03271484375,1.00439453125,[0. 0. 0. 0. 0. 0. 0. 0. 0.]
4.69023323059082,0.017379427328705788,0.013421197421848774,-0.09739355742931366,0.9950037002563477,[0. 0. 0. 0. 0. 0. 0. 0. 0.],0.06103515625,1.5869140625,-5.615234375,[0. 0. 0. 0. 0. 0. 0. 0. 0.],-0.01806640625,0.03857421875,0.99609375,[0. 0. 0. 0. 0. 0. 0. 0. 0.]
4.712307691574097,0.018371134996414185,0.015035485848784447,-0.09866143763065338,0.9948378801345825,[0. 0. 0. 0. 0. 0. 0. 0. 0.],-1.52587890625,1.89208984375,-4.8828125,[0. 0. 0. 0. 0. 0. 0. 0. 0.],-0.07275390625,0.03271484375,0.9873046875,[0. 0. 0. 0. 0. 0. 0. 0. 0.]
4.735440969467163,0.018154432997107506,0.01672462560236454,-0.09925294667482376,0.9947560429573059,[0. 0. 0. 0. 0. 0. 0. 0. 0.],-1.3427734375,2.0751953125,-4.57763671875,[0. 0. 0. 0. 0. 0. 0. 0. 0.],-0.06103515625,0.0283203125,0.99609375,[0. 0. 0. 0. 0. 0. 0. 0. 0.]
4.755303859710693,0.017629850655794144,0.016091065481305122,-0.10032307356595993,0.9946686029434204,[0. 0. 0. 0. 0. 0. 0. 0. 0.],-0.3662109375,1.8310546875,-7.01904296875,[0. 0. 0. 0. 0. 0. 0. 0. 0.],-0.0068359375,0.0341796875,1.01171875,[0. 0. 0. 0. 0. 0. 0. 0. 0.]
4.775275945663452,0.016849283128976822,0.015425510704517365,-0.10136879980564117,0.9945866465568542,[0. 0. 0. 0. 0. 0. 0. 0. 0.],-1.52587890625,2.01416015625,-5.31005859375,[0. 0. 0. 0. 0. 0. 0. 0. 0.],-0.03662109375,0.0263671875,0.99853515625,[0. 0. 0. 0. 0. 0. 0. 0. 0.]
4.795274496078491,0.01586480438709259,0.017441585659980774,-0.1020631492137909,0.9944985508918762,[0. 0. 0. 0. 0. 0. 0. 0. 0.],-1.52587890625,0.6103515625,-3.11279296875,[0. 0. 0. 0. 0. 0. 0. 0. 0.],-0.04736328125,0.02197265625,1.00830078125,[0. 0. 0. 0. 0. 0. 0. 0. 0.]
4.81584358215332,0.01411312073469162,0.01750778593122959,-0.10232511162757874,0.9944968819618225,[0. 0. 0. 0. 0. 0. 0. 0. 0.],-0.06103515625,-0.3662109375,-0.3662109375,[0. 0. 0. 0. 0. 0. 0. 0. 0.],-0.0322265625,0.0166015625,1.01513671875,[0. 0. 0. 0. 0. 0. 0. 0. 0.]
4.835360527038574,0.013155561871826649,0.016024557873606682,-0.10217668861150742,0.9945501685142517,[0. 0. 0. 0. 0. 0. 0. 0. 0.],0.244140625,-0.18310546875,1.28173828125,[0. 0. 0. 0. 0. 0. 0. 0. 0.],-0.02685546875,0.02197265625,1.0009765625,[0. 0. 0. 0. 0. 0. 0. 0. 0.]
4.855118036270142,0.014446744695305824,0.014956180937588215,-0.1020108088850975,0.9945659637451172,[0. 0. 0. 0. 0. 0. 0. 0. 0.],0.1220703125,0.30517578125,0.42724609375,[0. 0. 0. 0. 0. 0. 0. 0. 0.],-0.03271484375,0.03466796875,0.9970703125,[0. 0. 0. 0. 0. 0. 0. 0. 0.]
4.870354175567627,0.015711072832345963,0.01619533821940422,-0.10206367820501328,0.994521975517273,[0. 0. 0. 0. 0. 0. 0. 0. 0.],-0.42724609375,-0.244140625,-0.3662109375,[0. 0. 0. 0. 0. 0. 0. 0. 0.],-0.0546875,0.03515625,0.99853515625,[0. 0. 0. 0. 0. 0. 0. 0. 0.]
4.895948171615601,0.015816768631339073,0.017937691882252693,-0.1021336168050766,0.994483232498169,[0. 0. 0. 0. 0. 0. 0. 0. 0.],-0.48828125,-1.15966796875,-0.18310546875,[0. 0. 0. 0. 0. 0. 0. 0. 0.],-0.0556640625,0.0244140625,1.00341796875,[0. 0. 0. 0. 0. 0. 0. 0. 0.]
4.918548822402954,0.014403382316231728,0.017914844676852226,-0.10214971005916595,0.9945034980773926,[0. 0. 0. 0. 0. 0. 0. 0. 0.],0.3662109375,-0.91552734375,0.1220703125,[0. 0. 0. 0. 0. 0. 0. 0. 0.],-0.03173828125,0.01904296875,1.00830078125,[0. 0. 0. 0. 0. 0. 0. 0. 0.]
4.936241149902344,0.013577078469097614,0.016164859756827354,-0.1021437868475914,0.9945456385612488,[0. 0. 0. 0. 0. 0. 0. 0. 0.],-0.06103515625,-0.3662109375,-0.06103515625,[0. 0. 0. 0. 0. 0. 0. 0. 0.],-0.0283203125,0.02197265625,0.99755859375,[0. 0. 0. 0. 0. 0. 0. 0. 0.]
4.9553022384643555,0.013899875804781914,0.016933035105466843,-0.10219650715589523,0.9945230484008789,[0. 0. 0. 0. 0. 0. 0. 0. 0.],0.06103515625,-0.54931640625,-0.18310546875,[0. 0. 0. 0. 0. 0. 0. 0. 0.],-0.04345703125,0.02490234375,1.0,[0. 0. 0. 0. 0. 0. 0. 0. 0.]
4.9754626750946045,0.013627895154058933,0.018459901213645935,-0.1021190881729126,0.9945076107978821,[0. 0. 0. 0. 0. 0. 0. 0. 0.],-0.06103515625,-1.953125,1.46484375,[0. 0. 0. 0. 0. 0. 0. 0. 0.],-0.05322265625,0.0166015625,1.00439453125,[0. 0. 0. 0. 0. 0. 0. 0. 0.]
4.995368719100952,0.012431394308805466,0.018032843247056007,-0.10180136561393738,0.9945636987686157,[0. 0. 0. 0. 0. 0. 0. 0. 0.],0.42724609375,-1.64794921875,2.13623046875,[0. 0. 0. 0. 0. 0. 0. 0. 0.],-0.02587890625,0.0205078125,1.0068359375,[0. 0. 0. 0. 0. 0. 0. 0. 0.]
5.010628938674927,0.013353800401091576,0.016730884090065956,-0.10155797004699707,0.9945992827415466,[0. 0. 0. 0. 0. 0. 0. 0. 0.],0.06103515625,-2.86865234375,2.3193359375,[0. 0. 0. 0. 0. 0. 0. 0. 0.],-0.04150390625,0.02734375,0.99462890625,[0. 0. 0. 0. 0. 0. 0. 0. 0.]
5.030540466308594,0.012976018711924553,0.018089693039655685,-0.10072219371795654,0.9946655631065369,[0. 0. 0. 0. 0. 0. 0. 0. 0.],0.0,-2.8076171875,6.34765625,[0. 0. 0. 0. 0. 0. 0. 0. 0.],-0.05859375,0.01123046875,1.00439453125,[0. 0. 0. 0. 0. 0. 0. 0. 0.]
5.055396556854248,0.012154953554272652,0.01690124161541462,-0.09964730590581894,0.994805097579956,[0. 0. 0. 0. 0. 0. 0. 0. 0.],0.42724609375,-2.197265625,5.4931640625,[0. 0. 0. 0. 0. 0. 0. 0. 0.],-0.009765625,0.02392578125,1.00830078125,[0. 0. 0. 0. 0. 0. 0. 0. 0.]
5.075992822647095,0.01284751109778881,0.014998347498476505,-0.09883170574903488,0.9949082732200623,[0. 0. 0. 0. 0. 0. 0. 0. 0.],0.30517578125,-0.54931640625,4.150390625,[0. 0. 0. 0. 0. 0. 0. 0. 0.],-0.0234375,0.03271484375,1.0,[0. 0. 0. 0. 0. 0. 0. 0. 0.]
5.095444679260254,0.013974427245557308,0.01624937169253826,-0.09834975749254227,0.9949211478233337,[0. 0. 0. 0. 0. 0. 0. 0. 0.],-0.18310546875,-0.54931640625,1.77001953125,[0. 0. 0. 0. 0. 0. 0. 0. 0.],-0.05712890625,0.03173828125,0.99755859375,[0. 0. 0. 0. 0. 0. 0. 0. 0.]
5.110354900360107,0.014699431136250496,0.01784183457493782,-0.09836816787719727,0.9948815703392029,[0. 0. 0. 0. 0. 0. 0. 0. 0.],-0.18310546875,-0.9765625,-0.8544921875,[0. 0. 0. 0. 0. 0. 0. 0. 0.],-0.06298828125,0.0341796875,1.00439453125,[0. 0. 0. 0. 0. 0. 0. 0. 0.]
5.135944843292236,0.01599857583642006,0.019351931288838387,-0.09863893687725067,0.9948065280914307,[0. 0. 0. 0. 0. 0. 0. 0. 0.],0.244140625,-1.953125,-1.03759765625,[0. 0. 0. 0. 0. 0. 0. 0. 0.],-0.044921875,0.03271484375,1.00244140625,[0. 0. 0. 0. 0. 0. 0. 0. 0.]
5.155367374420166,0.016621368005871773,0.01804955303668976,-0.09865601360797882,0.9948190450668335,[0. 0. 0. 0. 0. 0. 0. 0. 0.],-0.06103515625,-0.48828125,-0.1220703125,[0. 0. 0. 0. 0. 0. 0. 0. 0.],-0.02490234375,0.0341796875,1.00146484375,[0. 0. 0. 0. 0. 0. 0. 0. 0.]
5.176218748092651,0.016757329925894737,0.016101496294140816,-0.09858635067939758,0.9948571920394897,[0. 0. 0. 0. 0. 0. 0. 0. 0.],0.0,0.06103515625,0.42724609375,[0. 0. 0. 0. 0. 0. 0. 0. 0.],-0.015625,0.03369140625,1.00341796875,[0. 0. 0. 0. 0. 0. 0. 0. 0.]
5.195575475692749,0.017304830253124237,0.015156308189034462,-0.09854679554700851,0.9948666095733643,[0. 0. 0. 0. 0. 0. 0. 0. 0.],-0.06103515625,-0.6103515625,0.0,[0. 0. 0. 0. 0. 0. 0. 0. 0.],-0.03759765625,0.033203125,1.00439453125,[0. 0. 0. 0. 0. 0. 0. 0. 0.]
5.21030068397522,0.01756696216762066,0.016909683123230934,-0.09859813749790192,0.9948285818099976,[0. 0. 0. 0. 0. 0. 0. 0. 0.],-0.30517578125,-0.9765625,-0.30517578125,[0. 0. 0. 0. 0. 0. 0. 0. 0.],-0.056640625,0.03173828125,1.001953125,[0. 0. 0. 0. 0. 0. 0. 0. 0.]
5.232966661453247,0.017339006066322327,0.018518568947911263,-0.09867335110902786,0.9947964549064636,[0. 0. 0. 0. 0. 0. 0. 0. 0.],-0.18310546875,-0.91552734375,-0.244140625,[0. 0. 0. 0. 0. 0. 0. 0. 0.],-0.0419921875,0.02978515625,1.00244140625,[0. 0. 0. 0. 0. 0. 0. 0. 0.]
5.25483250617981,0.016415398567914963,0.01676906831562519,-0.09869515150785446,0.9948410391807556,[0. 0. 0. 0. 0. 0. 0. 0. 0.],-0.06103515625,-0.30517578125,-0.1220703125,[0. 0. 0. 0. 0. 0. 0. 0. 0.],-0.02490234375,0.025390625,1.00244140625,[0. 0. 0. 0. 0. 0. 0. 0. 0.]
5.275428056716919,0.015690261498093605,0.014980742707848549,-0.09869825839996338,0.9948809742927551,[0. 0. 0. 0. 0. 0. 0. 0. 0.],-0.06103515625,-0.244140625,-0.06103515625,[0. 0. 0. 0. 0. 0. 0. 0. 0.],-0.03076171875,0.02734375,1.00439453125,[0. 0. 0. 0. 0. 0. 0. 0. 0.]
5.295244455337524,0.015158492140471935,0.0166698656976223,-0.09874281287193298,0.994857907295227,[0. 0. 0. 0. 0. 0. 0. 0. 0.],-0.1220703125,-0.732421875,-0.06103515625,[0. 0. 0. 0. 0. 0. 0. 0. 0.],-0.0458984375,0.02392578125,1.001953125,[0. 0. 0. 0. 0. 0. 0. 0. 0.]
5.315325975418091,0.01463403832167387,0.018350008875131607,-0.09880155324935913,0.9948303699493408,[0. 0. 0. 0. 0. 0. 0. 0. 0.],-0.1220703125,-1.03759765625,-0.18310546875,[0. 0. 0. 0. 0. 0. 0. 0. 0.],-0.04345703125,0.02392578125,1.0009765625,[0. 0. 0. 0. 0. 0. 0. 0. 0.]
5.330613851547241,0.014273745939135551,0.017162751406431198,-0.09882842749357224,0.9948541522026062,[0. 0. 0. 0. 0. 0. 0. 0. 0.],-0.1220703125,-0.54931640625,-0.244140625,[0. 0. 0. 0. 0. 0. 0. 0. 0.],-0.03173828125,0.02587890625,1.00341796875,[0. 0. 0. 0. 0. 0. 0. 0. 0.]
5.355554580688477,0.01399922277778387,0.015202781185507774,-0.09883487969636917,0.9948892593383789,[0. 0. 0. 0. 0. 0. 0. 0. 0.],0.0,-0.30517578125,-0.06103515625,[0. 0. 0. 0. 0. 0. 0. 0. 0.],-0.0302734375,0.0244140625,1.0029296875,[0. 0. 0. 0. 0. 0. 0. 0. 0.]
5.375478029251099,0.013963541015982628,0.016094617545604706,-0.09886667132377625,0.9948726296424866,[0. 0. 0. 0. 0. 0. 0. 0. 0.],-0.1220703125,-0.6103515625,-0.06103515625,[0. 0. 0. 0. 0. 0. 0. 0. 0.],-0.0390625,0.025390625,1.001953125,[0. 0. 0. 0. 0. 0. 0. 0. 0.]
5.390327215194702,0.014915297739207745,0.017573118209838867,-0.09890781342983246,0.9948297142982483,[0. 0. 0. 0. 0. 0. 0. 0. 0.],0.06103515625,-1.03759765625,-0.244140625,[0. 0. 0. 0. 0. 0. 0. 0. 0.],-0.041015625,0.0283203125,1.00341796875,[0. 0. 0. 0. 0. 0. 0. 0. 0.]
5.416149616241455,0.01628974638879299,0.016981985419988632,-0.09889943152666092,0.994819164276123,[0. 0. 0. 0. 0. 0. 0. 0. 0.],-0.18310546875,-0.79345703125,-0.18310546875,[0. 0. 0. 0. 0. 0. 0. 0. 0.],-0.0361328125,0.02978515625,1.0029296875,[0. 0. 0. 0. 0. 0. 0. 0. 0.]
5.435572385787964,0.01613479107618332,0.015067996457219124,-0.09889791905879974,0.9948527216911316,[0. 0. 0. 0. 0. 0. 0. 0. 0.],-0.1220703125,-0.48828125,-0.244140625,[0. 0. 0. 0. 0. 0. 0. 0. 0.],-0.03369140625,0.029296875,1.0009765625,[0. 0. 0. 0. 0. 0. 0. 0. 0.]
5.455422878265381,0.01646122895181179,0.01662675477564335,-0.09893816709518433,0.9948185682296753,[0. 0. 0. 0. 0. 0. 0. 0. 0.],-0.1220703125,-0.30517578125,-0.06103515625,[0. 0. 0. 0. 0. 0. 0. 0. 0.],-0.03759765625,0.0302734375,0.99951171875,[0. 0. 0. 0. 0. 0. 0. 0. 0.]
5.475528717041016,0.016795480623841286,0.01735657826066017,-0.09897541254758835,0.9947967529296875,[0. 0. 0. 0. 0. 0. 0. 0. 0.],-0.1220703125,-0.54931640625,-0.06103515625,[0. 0. 0. 0. 0. 0. 0. 0. 0.],-0.03857421875,0.0302734375,1.00341796875,[0. 0. 0. 0. 0. 0. 0. 0. 0.]
5.495594263076782,0.016452224925160408,0.017283840104937553,-0.09900867938995361,0.9948003888130188,[0. 0. 0. 0. 0. 0. 0. 0. 0.],0.0,-0.8544921875,-0.06103515625,[0. 0. 0. 0. 0. 0. 0. 0. 0.],-0.037109375,0.029296875,1.00048828125,[0. 0. 0. 0. 0. 0. 0. 0. 0.]
5.515468597412109,0.015853192657232285,0.016446691006422043,-0.09904107451438904,0.9948211908340454,[0. 0. 0. 0. 0. 0. 0. 0. 0.],-0.06103515625,-0.91552734375,-0.30517578125,[0. 0. 0. 0. 0. 0. 0. 0. 0.],-0.03564453125,0.0283203125,1.0009765625,[0. 0. 0. 0. 0. 0. 0. 0. 0.]
5.534902095794678,0.015561169013381004,0.017676904797554016,-0.09909503161907196,0.9947992563247681,[0. 0. 0. 0. 0. 0. 0. 0. 0.],-0.1220703125,-1.0986328125,-0.30517578125,[0. 0. 0. 0. 0. 0. 0. 0. 0.],-0.0380859375,0.02734375,1.0009765625,[0. 0. 0. 0. 0. 0. 0. 0. 0.]
5.555392265319824,0.015916667878627777,0.016881370916962624,-0.09908648580312729,0.9948083758354187,[0. 0. 0. 0. 0. 0. 0. 0. 0.],-0.244140625,-0.3662109375,-0.1220703125,[0. 0. 0. 0. 0. 0. 0. 0. 0.],-0.03662109375,0.0283203125,1.00146484375,[0. 0. 0. 0. 0. 0. 0. 0. 0.]
5.575500011444092,0.014936910010874271,0.017094658687710762,-0.09913424402475357,0.9948151111602783,[0. 0. 0. 0. 0. 0. 0. 0. 0.],0.1220703125,-0.54931640625,-0.06103515625,[0. 0. 0. 0. 0. 0. 0. 0. 0.],-0.037109375,0.0263671875,1.001953125,[0. 0. 0. 0. 0. 0. 0. 0. 0.]
5.597340822219849,0.015273697674274445,0.017597956582903862,-0.09917283803224564,0.9947973489761353,[0. 0. 0. 0. 0. 0. 0. 0. 0.],0.06103515625,-0.6103515625,-0.06103515625,[0. 0. 0. 0. 0. 0. 0. 0. 0.],-0.0380859375,0.02734375,1.00146484375,[0. 0. 0. 0. 0. 0. 0. 0. 0.]
5.615403652191162,0.015948260203003883,0.01628756895661354,-0.09916780889034271,0.9948096871376038,[0. 0. 0. 0. 0. 0. 0. 0. 0.],-0.06103515625,-0.9765625,-0.244140625,[0. 0. 0. 0. 0. 0. 0. 0. 0.],-0.0361328125,0.0283203125,1.00244140625,[0. 0. 0. 0. 0. 0. 0. 0. 0.]
5.636475324630737,0.015232090838253498,0.017257679253816605,-0.09922164678573608,0.9947991967201233,[0. 0. 0. 0. 0. 0. 0. 0. 0.],-0.1220703125,-0.54931640625,-0.18310546875,[0. 0. 0. 0. 0. 0. 0. 0. 0.],-0.03759765625,0.02734375,1.001953125,[0. 0. 0. 0. 0. 0. 0. 0. 0.]
5.655337810516357,0.015356016345322132,0.016357339918613434,-0.09923441708087921,0.9948111772537231,[0. 0. 0. 0. 0. 0. 0. 0. 0.],-0.06103515625,-0.42724609375,-0.06103515625,[0. 0. 0. 0. 0. 0. 0. 0. 0.],-0.03564453125,0.02783203125,1.00341796875,[0. 0. 0. 0. 0. 0. 0. 0. 0.]
5.675311803817749,0.016248706728219986,0.01635684072971344,-0.09925639629364014,0.9947947263717651,[0. 0. 0. 0. 0. 0. 0. 0. 0.],0.0,-0.732421875,-0.06103515625,[0. 0. 0. 0. 0. 0. 0. 0. 0.],-0.03662109375,0.029296875,1.00048828125,[0. 0. 0. 0. 0. 0. 0. 0. 0.]
5.696642875671387,0.016214460134506226,0.01715833693742752,-0.09930327534675598,0.9947771430015564,[0. 0. 0. 0. 0. 0. 0. 0. 0.],0.0,-0.8544921875,-0.18310546875,[0. 0. 0. 0. 0. 0. 0. 0. 0.],-0.03759765625,0.02880859375,1.00048828125,[0. 0. 0. 0. 0. 0. 0. 0. 0.]
5.715175151824951,0.015831656754016876,0.01785319298505783,-0.09934690594673157,0.9947667121887207,[0. 0. 0. 0. 0. 0. 0. 0. 0.],-0.06103515625,-0.91552734375,-0.30517578125,[0. 0. 0. 0. 0. 0. 0. 0. 0.],-0.03857421875,0.0283203125,1.00048828125,[0. 0. 0. 0. 0. 0. 0. 0. 0.]
5.736751556396484,0.01558385044336319,0.017171112820506096,-0.09936625510454178,0.9947807192802429,[0. 0. 0. 0. 0. 0. 0. 0. 0.],-0.18310546875,-0.91552734375,-0.18310546875,[0. 0. 0. 0. 0. 0. 0. 0. 0.],-0.03759765625,0.02783203125,1.00146484375,[0. 0. 0. 0. 0. 0. 0. 0. 0.]
5.755438804626465,0.015586226247251034,0.017436236143112183,-0.09937472641468048,0.9947751760482788,[0. 0. 0. 0. 0. 0. 0. 0. 0.],0.0,-0.30517578125,-0.06103515625,[0. 0. 0. 0. 0. 0. 0. 0. 0.],-0.037109375,0.02783203125,1.00341796875,[0. 0. 0. 0. 0. 0. 0. 0. 0.]
5.775518178939819,0.015594073571264744,0.01648920588195324,-0.09938230365514755,0.9947905540466309,[0. 0. 0. 0. 0. 0. 0. 0. 0.],0.0,-0.6103515625,-0.06103515625,[0. 0. 0. 0. 0. 0. 0. 0. 0.],-0.0361328125,0.02783203125,1.00048828125,[0. 0. 0. 0. 0. 0. 0. 0. 0.]
5.795731544494629,0.015436327084898949,0.017261415719985962,-0.09941677749156952,0.9947764873504639,[0. 0. 0. 0. 0. 0. 0. 0. 0.],-0.06103515625,-0.8544921875,-0.06103515625,[0. 0. 0. 0. 0. 0. 0. 0. 0.],-0.03759765625,0.02734375,1.00146484375,[0. 0. 0. 0. 0. 0. 0. 0. 0.]
5.8154027462005615,0.01510087214410305,0.016349144279956818,-0.09943140298128128,0.9947955012321472,[0. 0. 0. 0. 0. 0. 0. 0. 0.],-0.18310546875,-0.91552734375,-0.1220703125,[0. 0. 0. 0. 0. 0. 0. 0. 0.],-0.03564453125,0.02685546875,1.00244140625,[0. 0. 0. 0. 0. 0. 0. 0. 0.]
5.835278272628784,0.0158418957144022,0.0171053446829319,-0.09945560246706009,0.9947688579559326,[0. 0. 0. 0. 0. 0. 0. 0. 0.],-0.06103515625,-0.42724609375,-0.18310546875,[0. 0. 0. 0. 0. 0. 0. 0. 0.],-0.037109375,0.0283203125,1.00146484375,[0. 0. 0. 0. 0. 0. 0. 0. 0.]
5.855609893798828,0.015443159267306328,0.017855379730463028,-0.09950053691864014,0.9947575330734253,[0. 0. 0. 0. 0. 0. 0. 0. 0.],-0.06103515625,-0.42724609375,-0.06103515625,[0. 0. 0. 0. 0. 0. 0. 0. 0.],-0.03857421875,0.02685546875,1.0029296875,[0. 0. 0. 0. 0. 0. 0. 0. 0.]
5.875490188598633,0.014706346206367016,0.017028924077749252,-0.0995376855134964,0.9947793483734131,[0. 0. 0. 0. 0. 0. 0. 0. 0.],-0.06103515625,-0.8544921875,-0.1220703125,[0. 0. 0. 0. 0. 0. 0. 0. 0.],-0.037109375,0.02587890625,1.0048828125,[0. 0. 0. 0. 0. 0. 0. 0. 0.]
5.895279884338379,0.01600414142012596,0.017038876190781593,-0.09954758733510971,0.9947581887245178,[0. 0. 0. 0. 0. 0. 0. 0. 0.],-0.06103515625,-0.8544921875,-0.244140625,[0. 0. 0. 0. 0. 0. 0. 0. 0.],-0.037109375,0.02783203125,1.00244140625,[0. 0. 0. 0. 0. 0. 0. 0. 0.]
5.915592432022095,0.015052467584609985,0.01703307405114174,-0.09959638118743896,0.9947682023048401,[0. 0. 0. 0. 0. 0. 0. 0. 0.],-0.244140625,-0.6103515625,-0.244140625,[0. 0. 0. 0. 0. 0. 0. 0. 0.],-0.037109375,0.0263671875,1.00341796875,[0. 0. 0. 0. 0. 0. 0. 0. 0.]
5.935420513153076,0.015811927616596222,0.016473645344376564,-0.09959281980991364,0.9947662949562073,[0. 0. 0. 0. 0. 0. 0. 0. 0.],-0.18310546875,-0.54931640625,-0.06103515625,[0. 0. 0. 0. 0. 0. 0. 0. 0.],-0.0361328125,0.0283203125,1.00341796875,[0. 0. 0. 0. 0. 0. 0. 0. 0.]
5.9562201499938965,0.01542775146663189,0.017203113064169884,-0.09963391721248627,0.9947558045387268,[0. 0. 0. 0. 0. 0. 0. 0. 0.],-0.18310546875,-0.3662109375,0.0,[0. 0. 0. 0. 0. 0. 0. 0. 0.],-0.037109375,0.02783203125,1.0048828125,[0. 0. 0. 0. 0. 0. 0. 0. 0.]
5.975173473358154,0.01539342850446701,0.01730116456747055,-0.09965186566114426,0.9947528839111328,[0. 0. 0. 0. 0. 0. 0. 0. 0.],-0.06103515625,-0.3662109375,0.1220703125,[0. 0. 0. 0. 0. 0. 0. 0. 0.],-0.03759765625,0.02734375,1.0009765625,[0. 0. 0. 0. 0. 0. 0. 0. 0.]
5.995352506637573,0.015228687785565853,0.017526960000395775,-0.09968183189630508,0.9947484135627747,[0. 0. 0. 0. 0. 0. 0. 0. 0.],-0.06103515625,-0.91552734375,-0.06103515625,[0. 0. 0. 0. 0. 0. 0. 0. 0.],-0.0380859375,0.02685546875,1.00146484375,[0. 0. 0. 0. 0. 0. 0. 0. 0.]
6.015346050262451,0.014804095961153507,0.017673596739768982,-0.09971479326486588,0.9947490096092224,[0. 0. 0. 0. 0. 0. 0. 0. 0.],-0.244140625,-0.91552734375,-0.18310546875,[0. 0. 0. 0. 0. 0. 0. 0. 0.],-0.03857421875,0.0263671875,1.00341796875,[0. 0. 0. 0. 0. 0. 0. 0. 0.]
6.037160396575928,0.015665756538510323,0.016568021848797798,-0.09971649944782257,0.9947546124458313,[0. 0. 0. 0. 0. 0. 0. 0. 0.],-0.244140625,-0.8544921875,-0.30517578125,[0. 0. 0. 0. 0. 0. 0. 0. 0.],-0.0361328125,0.0283203125,1.0009765625,[0. 0. 0. 0. 0. 0. 0. 0. 0.]
6.051213026046753,0.01623348332941532,0.016559280455112457,-0.099729523062706,0.9947443604469299,[0. 0. 0. 0. 0. 0. 0. 0. 0.],0.0,-0.48828125,-0.244140625,[0. 0. 0. 0. 0. 0. 0. 0. 0.],-0.0361328125,0.029296875,1.00244140625,[0. 0. 0. 0. 0. 0. 0. 0. 0.]
6.0757246017456055,0.01562412828207016,0.016942283138632774,-0.09978260099887848,0.9947423338890076,[0. 0. 0. 0. 0. 0. 0. 0. 0.],0.0,-0.18310546875,-0.244140625,[0. 0. 0. 0. 0. 0. 0. 0. 0.],-0.037109375,0.02783203125,1.00439453125,[0. 0. 0. 0. 0. 0. 0. 0. 0.]
6.096616506576538,0.016948115080595016,0.01793530583381653,-0.09980548173189163,0.9947010278701782,[0. 0. 0. 0. 0. 0. 0. 0. 0.],-0.42724609375,-1.03759765625,-0.54931640625,[0. 0. 0. 0. 0. 0. 0. 0. 0.],-0.04248046875,0.03076171875,0.99853515625,[0. 0. 0. 0. 0. 0. 0. 0. 0.]
6.110693693161011,0.014094552956521511,0.018717151135206223,-0.09978742152452469,0.9947329759597778,[0. 0. 0. 0. 0. 0. 0. 0. 0.],-13.48876953125,4.21142578125,1.03759765625,[0. 0. 0. 0. 0. 0. 0. 0. 0.],-0.0439453125,-0.1240234375,0.90576171875,[0. 0. 0. 0. 0. 0. 0. 0. 0.]
6.136750936508179,0.012241234071552753,0.01859041303396225,-0.10002581030130386,0.9947358965873718,[0. 0. 0. 0. 0. 0. 0. 0. 0.],14.58740234375,-4.7607421875,-4.21142578125,[0. 0. 0. 0. 0. 0. 0. 0. 0.],-0.0341796875,-0.017578125,1.17529296875,[0. 0. 0. 0. 0. 0. 0. 0. 0.]
6.155648946762085,0.016915464773774147,0.01864246465265751,-0.10070290416479111,0.9945980310440063,[0. 0. 0. 0. 0. 0. 0. 0. 0.],11.90185546875,-0.3662109375,-8.544921875,[0. 0. 0. 0. 0. 0. 0. 0. 0.],-0.0166015625,0.29248046875,0.97900390625,[0. 0. 0. 0. 0. 0. 0. 0. 0.]
6.175252199172974,0.01659819297492504,0.019791819155216217,-0.10134750604629517,0.9945157170295715,[0. 0. 0. 0. 0. 0. 0. 0. 0.],-13.24462890625,-1.15966796875,-5.615234375,[0. 0. 0. 0. 0. 0. 0. 0. 0.],-0.06298828125,0.03173828125,0.80517578125,[0. 0. 0. 0. 0. 0. 0. 0. 0.]
6.195863485336304,0.013824806548655033,0.020798219367861748,-0.10252869129180908,0.9944165945053101,[0. 0. 0. 0. 0. 0. 0. 0. 0.],-5.126953125,2.38037109375,-8.4228515625,[0. 0. 0. 0. 0. 0. 0. 0. 0.],-0.02099609375,-0.07958984375,1.10302734375,[0. 0. 0. 0. 0. 0. 0. 0. 0.]
6.215268850326538,0.012214573100209236,0.020961889997124672,-0.10388820618391037,0.9942929744720459,[0. 0. 0. 0. 0. 0. 0. 0. 0.],-1.3427734375,-0.244140625,-6.8359375,[0. 0. 0. 0. 0. 0. 0. 0. 0.],-0.05712890625,-0.0361328125,1.0693359375,[0. 0. 0. 0. 0. 0. 0. 0. 0.]
6.2353293895721436,0.011222245171666145,0.022444581612944603,-0.10453985631465912,0.994204044342041,[0. 0. 0. 0. 0. 0. 0. 0. 0.],-0.79345703125,0.3662109375,-0.732421875,[0. 0. 0. 0. 0. 0. 0. 0. 0.],-0.0498046875,0.0166015625,0.9765625,[0. 0. 0. 0. 0. 0. 0. 0. 0.]
6.2558434009552,0.011053933762013912,0.020957889035344124,-0.10463805496692657,0.9942280650138855,[0. 0. 0. 0. 0. 0. 0. 0. 0.],0.18310546875,-0.91552734375,-0.1220703125,[0. 0. 0. 0. 0. 0. 0. 0. 0.],-0.01904296875,0.02099609375,1.0126953125,[0. 0. 0. 0. 0. 0. 0. 0. 0.]
6.27610445022583,0.012590238824486732,0.019159585237503052,-0.10473146289587021,0.9942362904548645,[0. 0. 0. 0. 0. 0. 0. 0. 0.],-0.3662109375,1.0986328125,-1.03759765625,[0. 0. 0. 0. 0. 0. 0. 0. 0.],-0.02587890625,0.056640625,0.98974609375,[0. 0. 0. 0. 0. 0. 0. 0. 0.]
6.296576976776123,0.014307810924947262,0.019194556400179863,-0.10495557636022568,0.9941887855529785,[0. 0. 0. 0. 0. 0. 0. 0. 0.],-1.15966796875,-1.3427734375,-1.5869140625,[0. 0. 0. 0. 0. 0. 0. 0. 0.],-0.0625,0.06689453125,0.99462890625,[0. 0. 0. 0. 0. 0. 0. 0. 0.]
6.310574054718018,0.015528909862041473,0.019770460203289986,-0.10504164546728134,0.9941500425338745,[0. 0. 0. 0. 0. 0. 0. 0. 0.],-0.18310546875,-1.03759765625,-0.54931640625,[0. 0. 0. 0. 0. 0. 0. 0. 0.],-0.06494140625,0.0595703125,1.01611328125,[0. 0. 0. 0. 0. 0. 0. 0. 0.]
6.3355958461761475,0.017218781635165215,0.019413478672504425,-0.10507196187973022,0.9941260814666748,[0. 0. 0. 0. 0. 0. 0. 0. 0.],0.42724609375,-1.3427734375,-0.3662109375,[0. 0. 0. 0. 0. 0. 0. 0. 0.],-0.03173828125,0.05322265625,1.0087890625,[0. 0. 0. 0. 0. 0. 0. 0. 0.]
6.350349426269531,0.018529530614614487,0.018054045736789703,-0.10502368956804276,0.9941331148147583,[0. 0. 0. 0. 0. 0. 0. 0. 0.],-0.6103515625,-0.244140625,0.30517578125,[0. 0. 0. 0. 0. 0. 0. 0. 0.],-0.0244140625,0.0537109375,0.98828125,[0. 0. 0. 0. 0. 0. 0. 0. 0.]
6.3733437061309814,0.02056931145489216,0.018114350736141205,-0.10489700734615326,0.994105339050293,[0. 0. 0. 0. 0. 0. 0. 0. 0.],0.0,-0.06103515625,0.6103515625,[0. 0. 0. 0. 0. 0. 0. 0. 0.],-0.05126953125,0.0458984375,1.01025390625,[0. 0. 0. 0. 0. 0. 0. 0. 0.]
6.395411729812622,0.02134103700518608,0.01917191594839096,-0.10483360290527344,0.9940759539604187,[0. 0. 0. 0. 0. 0. 0. 0. 0.],-0.244140625,-0.79345703125,0.54931640625,[0. 0. 0. 0. 0. 0. 0. 0. 0.],-0.04736328125,0.04052734375,1.0078125,[0. 0. 0. 0. 0. 0. 0. 0. 0.]
6.415279388427734,0.02034686505794525,0.01871129497885704,-0.10476559400558472,0.9941127300262451,[0. 0. 0. 0. 0. 0. 0. 0. 0.],-0.48828125,-0.8544921875,0.42724609375,[0. 0. 0. 0. 0. 0. 0. 0. 0.],-0.0380859375,0.0302734375,0.99755859375,[0. 0. 0. 0. 0. 0. 0. 0. 0.]
6.4354166984558105,0.018415668979287148,0.01841777376830578,-0.10470803081989288,0.9941619038581848,[0. 0. 0. 0. 0. 0. 0. 0. 0.],-0.3662109375,-0.3662109375,0.54931640625,[0. 0. 0. 0. 0. 0. 0. 0. 0.],-0.03857421875,0.017578125,1.00048828125,[0. 0. 0. 0. 0. 0. 0. 0. 0.]
6.4552905559539795,0.016529161483049393,0.01847553439438343,-0.10465177893638611,0.9941999316215515,[0. 0. 0. 0. 0. 0. 0. 0. 0.],-0.244140625,-0.1220703125,0.48828125,[0. 0. 0. 0. 0. 0. 0. 0. 0.],-0.041015625,0.01123046875,1.0029296875,[0. 0. 0. 0. 0. 0. 0. 0. 0.]
6.475331544876099,0.014671416953206062,0.018867500126361847,-0.10467496514320374,0.9942193031311035,[0. 0. 0. 0. 0. 0. 0. 0. 0.],-0.06103515625,-0.48828125,0.06103515625,[0. 0. 0. 0. 0. 0. 0. 0. 0.],-0.04443359375,0.0068359375,1.00439453125,[0. 0. 0. 0. 0. 0. 0. 0. 0.]
6.501421689987183,0.012436163611710072,0.019478555768728256,-0.10476332902908325,0.994228720664978,[0. 0. 0. 0. 0. 0. 0. 0. 0.],0.244140625,-0.8544921875,-0.06103515625,[0. 0. 0. 0. 0. 0. 0. 0. 0.],-0.046875,0.001953125,1.001953125,[0. 0. 0. 0. 0. 0. 0. 0. 0.]
6.515333652496338,0.01108471304178238,0.01979798823595047,-0.10482271760702133,0.9942321181297302,[0. 0. 0. 0. 0. 0. 0. 0. 0.],-0.06103515625,-0.8544921875,-0.30517578125,[0. 0. 0. 0. 0. 0. 0. 0. 0.],-0.04345703125,0.00537109375,1.0009765625,[0. 0. 0. 0. 0. 0. 0. 0. 0.]
6.535674571990967,0.009728617034852505,0.019153116270899773,-0.10491456836462021,0.9942492246627808,[0. 0. 0. 0. 0. 0. 0. 0. 0.],-0.244140625,-0.48828125,-0.42724609375,[0. 0. 0. 0. 0. 0. 0. 0. 0.],-0.0390625,0.015625,1.00341796875,[0. 0. 0. 0. 0. 0. 0. 0. 0.]
6.555301666259766,0.011478661559522152,0.01878880150616169,-0.10497477650642395,0.9942311644554138,[0. 0. 0. 0. 0. 0. 0. 0. 0.],0.0,-0.732421875,-0.48828125,[0. 0. 0. 0. 0. 0. 0. 0. 0.],-0.04150390625,0.02392578125,1.00146484375,[0. 0. 0. 0. 0. 0. 0. 0. 0.]
6.575261116027832,0.013299616053700447,0.01895650289952755,-0.10504128038883209,0.9941982626914978,[0. 0. 0. 0. 0. 0. 0. 0. 0.],0.0,-1.46484375,-0.30517578125,[0. 0. 0. 0. 0. 0. 0. 0. 0.],-0.04443359375,0.03271484375,1.00341796875,[0. 0. 0. 0. 0. 0. 0. 0. 0.]
6.595340967178345,0.01509566605091095,0.0189095176756382,-0.10501491278409958,0.9941762685775757,[0. 0. 0. 0. 0. 0. 0. 0. 0.],-0.244140625,-1.64794921875,0.30517578125,[0. 0. 0. 0. 0. 0. 0. 0. 0.],-0.04052734375,0.03076171875,0.99853515625,[0. 0. 0. 0. 0. 0. 0. 0. 0.]
6.616046667098999,0.0170368030667305,0.01733248122036457,-0.10475140064954758,0.9942014217376709,[0. 0. 0. 0. 0. 0. 0. 0. 0.],0.30517578125,-1.40380859375,0.9765625,[0. 0. 0. 0. 0. 0. 0. 0. 0.],-0.03076171875,0.03955078125,1.00439453125,[0. 0. 0. 0. 0. 0. 0. 0. 0.]
6.635356187820435,0.018167944625020027,0.016264144331216812,-0.10457715392112732,0.9942178130149841,[0. 0. 0. 0. 0. 0. 0. 0. 0.],0.244140625,-2.197265625,1.708984375,[0. 0. 0. 0. 0. 0. 0. 0. 0.],-0.0361328125,0.03857421875,0.998046875,[0. 0. 0. 0. 0. 0. 0. 0. 0.]
6.650586128234863,0.018565591424703598,0.01751026324927807,-0.10394417494535446,0.9942556619644165,[0. 0. 0. 0. 0. 0. 0. 0. 0.],0.0,-3.35693359375,5.37109375,[0. 0. 0. 0. 0. 0. 0. 0. 0.],-0.06005859375,0.029296875,0.99853515625,[0. 0. 0. 0. 0. 0. 0. 0. 0.]
6.675382852554321,0.017487837001681328,0.01733175292611122,-0.1028658077120781,0.9943905472755432,[0. 0. 0. 0. 0. 0. 0. 0. 0.],0.8544921875,-2.685546875,6.2255859375,[0. 0. 0. 0. 0. 0. 0. 0. 0.],-0.0244140625,0.0263671875,1.00927734375,[0. 0. 0. 0. 0. 0. 0. 0. 0.]
6.695552587509155,0.017401674762368202,0.015086944214999676,-0.10202428698539734,0.9945152401924133,[0. 0. 0. 0. 0. 0. 0. 0. 0.],-0.18310546875,-2.01416015625,3.84521484375,[0. 0. 0. 0. 0. 0. 0. 0. 0.],-0.0126953125,0.03466796875,0.99755859375,[0. 0. 0. 0. 0. 0. 0. 0. 0.]
6.7156665325164795,0.017648892477154732,0.015628505498170853,-0.10149339586496353,0.9945569634437561,[0. 0. 0. 0. 0. 0. 0. 0. 0.],-1.28173828125,-0.30517578125,2.44140625,[0. 0. 0. 0. 0. 0. 0. 0. 0.],-0.048828125,0.0263671875,1.0048828125,[0. 0. 0. 0. 0. 0. 0. 0. 0.]
6.735975027084351,0.014328538440167904,0.016732776537537575,-0.10128682106733322,0.9946134090423584,[0. 0. 0. 0. 0. 0. 0. 0. 0.],-15.0146484375,4.150390625,1.0986328125,[0. 0. 0. 0. 0. 0. 0. 0. 0.],-0.04638671875,-0.19140625,0.90869140625,[0. 0. 0. 0. 0. 0. 0. 0. 0.]
6.750558614730835,0.010944120585918427,0.017269449308514595,-0.10161340981721878,0.9946138858795166,[0. 0. 0. 0. 0. 0. 0. 0. 0.],-4.2724609375,2.01416015625,-2.44140625,[0. 0. 0. 0. 0. 0. 0. 0. 0.],-0.0244140625,-0.28076171875,1.083984375,[0. 0. 0. 0. 0. 0. 0. 0. 0.]
6.776327610015869,0.008640911430120468,0.018243245780467987,-0.10186555981636047,0.9945934414863586,[0. 0. 0. 0. 0. 0. 0. 0. 0.],-5.0048828125,4.21142578125,-2.01416015625,[0. 0. 0. 0. 0. 0. 0. 0. 0.],-0.05615234375,-0.28857421875,1.03466796875,[0. 0. 0. 0. 0. 0. 0. 0. 0.]
6.790485143661499,0.006291944067925215,0.01890089549124241,-0.10227873176336288,0.9945563673973083,[0. 0. 0. 0. 0. 0. 0. 0. 0.],-5.615234375,-0.06103515625,-2.8076171875,[0. 0. 0. 0. 0. 0. 0. 0. 0.],-0.06884765625,-0.30859375,0.9873046875,[0. 0. 0. 0. 0. 0. 0. 0. 0.]
6.81047511100769,0.004114904906600714,0.01915682479739189,-0.10246801376342773,0.9945433735847473,[0. 0. 0. 0. 0. 0. 0. 0. 0.],-4.57763671875,-3.2958984375,-2.01416015625,[0. 0. 0. 0. 0. 0. 0. 0. 0.],-0.0634765625,-0.32958984375,1.03125,[0. 0. 0. 0. 0. 0. 0. 0. 0.]
6.835361480712891,0.0021486214827746153,0.019160956144332886,-0.10275184363126755,0.9945201873779297,[0. 0. 0. 0. 0. 0. 0. 0. 0.],-2.01416015625,-1.28173828125,-1.5869140625,[0. 0. 0. 0. 0. 0. 0. 0. 0.],-0.04541015625,-0.3232421875,1.00244140625,[0. 0. 0. 0. 0. 0. 0. 0. 0.]
6.852219581604004,0.00031648919684812427,0.019369708374142647,-0.1035894826054573,0.9944314956665039,[0. 0. 0. 0. 0. 0. 0. 0. 0.],-1.8310546875,0.48828125,-6.591796875,[0. 0. 0. 0. 0. 0. 0. 0. 0.],-0.04638671875,-0.283203125,0.916015625,[0. 0. 0. 0. 0. 0. 0. 0. 0.]
6.876032114028931,-0.001647889381274581,0.019630838185548782,-0.10592925548553467,0.9941785335540771,[0. 0. 0. 0. 0. 0. 0. 0. 0.],0.1220703125,5.55419921875,-16.2353515625,[0. 0. 0. 0. 0. 0. 0. 0. 0.],-0.0263671875,-0.27587890625,0.93017578125,[0. 0. 0. 0. 0. 0. 0. 0. 0.]
6.895547866821289,-0.003468356328085065,0.022085368633270264,-0.10963775962591171,0.9937202334403992,[0. 0. 0. 0. 0. 0. 0. 0. 0.],0.9765625,19.34814453125,-22.27783203125,[0. 0. 0. 0. 0. 0. 0. 0. 0.],-0.01123046875,-0.314453125,1.0068359375,[0. 0. 0. 0. 0. 0. 0. 0. 0.]
6.915997505187988,-0.005682665389031172,0.024258816614747047,-0.11472015827894211,0.9930854439735413,[0. 0. 0. 0. 0. 0. 0. 0. 0.],-7.01904296875,14.09912109375,-30.76171875,[0. 0. 0. 0. 0. 0. 0. 0. 0.],-0.0849609375,-0.2705078125,0.955078125,[0. 0. 0. 0. 0. 0. 0. 0. 0.]
6.93545126914978,-0.008558468893170357,0.026235856115818024,-0.12156230956315994,0.9922001361846924,[0. 0. 0. 0. 0. 0. 0. 0. 0.],-6.65283203125,7.9345703125,-42.236328125,[0. 0. 0. 0. 0. 0. 0. 0. 0.],-0.07861328125,-0.23388671875,0.916015625,[0. 0. 0. 0. 0. 0. 0. 0. 0.]
6.956968545913696,-0.011384991928935051,0.026493286713957787,-0.13018251955509186,0.9910706877708435,[0. 0. 0. 0. 0. 0. 0. 0. 0.],-3.0517578125,-1.708984375,-52.42919921875,[0. 0. 0. 0. 0. 0. 0. 0. 0.],-0.12744140625,-0.29931640625,1.02001953125,[0. 0. 0. 0. 0. 0. 0. 0. 0.]
6.975696563720703,-0.01329127512872219,0.026669053360819817,-0.13975490629673004,0.9897376894950867,[0. 0. 0. 0. 0. 0. 0. 0. 0.],2.0751953125,1.40380859375,-56.45751953125,[0. 0. 0. 0. 0. 0. 0. 0. 0.],-0.11181640625,-0.3212890625,1.05810546875,[0. 0. 0. 0. 0. 0. 0. 0. 0.]
6.9952147006988525,-0.014686590060591698,0.02763914130628109,-0.14986954629421234,0.9882102012634277,[0. 0. 0. 0. 0. 0. 0. 0. 0.],2.99072265625,0.30517578125,-60.6689453125,[0. 0. 0. 0. 0. 0. 0. 0. 0.],-0.1259765625,-0.33740234375,1.03271484375,[0. 0. 0. 0. 0. 0. 0. 0. 0.]
7.015491724014282,-0.015352996997535229,0.028942646458745003,-0.16044703125953674,0.9865005612373352,[0. 0. 0. 0. 0. 0. 0. 0. 0.],5.9814453125,3.662109375,-64.63623046875,[0. 0. 0. 0. 0. 0. 0. 0. 0.],-0.1181640625,-0.32958984375,1.03515625,[0. 0. 0. 0. 0. 0. 0. 0. 0.]
7.035266160964966,-0.016231246292591095,0.02852538973093033,-0.17218390107154846,0.9845179915428162,[0. 0. 0. 0. 0. 0. 0. 0. 0.],3.11279296875,-4.8828125,-70.556640625,[0. 0. 0. 0. 0. 0. 0. 0. 0.],-0.1455078125,-0.28466796875,0.94775390625,[0. 0. 0. 0. 0. 0. 0. 0. 0.]
7.055327653884888,-0.01713584177196026,0.03153715655207634,-0.18435031175613403,0.9822050929069519,[0. 0. 0. 0. 0. 0. 0. 0. 0.],1.953125,15.0146484375,-74.0966796875,[0. 0. 0. 0. 0. 0. 0. 0. 0.],-0.0654296875,-0.28466796875,0.92626953125,[0. 0. 0. 0. 0. 0. 0. 0. 0.]
7.076923131942749,-0.018244002014398575,0.03195685148239136,-0.20134402811527252,0.9788292050361633,[0. 0. 0. 0. 0. 0. 0. 0. 0.],5.7373046875,14.7705078125,-79.833984375,[0. 0. 0. 0. 0. 0. 0. 0. 0.],-0.1455078125,-0.34912109375,1.09326171875,[0. 0. 0. 0. 0. 0. 0. 0. 0.]
7.0959062576293945,-0.018634989857673645,0.032985344529151917,-0.21227550506591797,0.9764752984046936,[0. 0. 0. 0. 0. 0. 0. 0. 0.],6.16455078125,6.9580078125,-86.181640625,[0. 0. 0. 0. 0. 0. 0. 0. 0.],-0.09912109375,-0.267578125,0.9765625,[0. 0. 0. 0. 0. 0. 0. 0. 0.]
7.11878228187561,-0.020962970331311226,0.034907884895801544,-0.22779116034507751,0.9728582501411438,[0. 0. 0. 0. 0. 0. 0. 0. 0.],-9.27734375,7.080078125,-93.07861328125,[0. 0. 0. 0. 0. 0. 0. 0. 0.],-0.1455078125,-0.1650390625,0.7080078125,[0. 0. 0. 0. 0. 0. 0. 0. 0.]
7.135615587234497,-0.023321442306041718,0.03559449687600136,-0.24451063573360443,0.9687123894691467,[0. 0. 0. 0. 0. 0. 0. 0. 0.],2.685546875,2.13623046875,-99.7314453125,[0. 0. 0. 0. 0. 0. 0. 0. 0.],-0.158203125,-0.36767578125,1.07666015625,[0. 0. 0. 0. 0. 0. 0. 0. 0.]
7.150991201400757,-0.023250993341207504,0.03756825625896454,-0.26193884015083313,0.9640726447105408,[0. 0. 0. 0. 0. 0. 0. 0. 0.],10.8642578125,9.27734375,-106.8115234375,[0. 0. 0. 0. 0. 0. 0. 0. 0.],-0.15869140625,-0.39599609375,1.2236328125,[0. 0. 0. 0. 0. 0. 0. 0. 0.]
7.176001310348511,-0.023787792772054672,0.039183929562568665,-0.2853469252586365,0.9573274850845337,[0. 0. 0. 0. 0. 0. 0. 0. 0.],2.50244140625,17.02880859375,-112.9150390625,[0. 0. 0. 0. 0. 0. 0. 0. 0.],-0.1943359375,-0.29345703125,1.013671875,[0. 0. 0. 0. 0. 0. 0. 0. 0.]
7.190655708312988,-0.023956581950187683,0.04078354686498642,-0.30032700300216675,0.9526629447937012,[0. 0. 0. 0. 0. 0. 0. 0. 0.],12.02392578125,4.21142578125,-122.4365234375,[0. 0. 0. 0. 0. 0. 0. 0. 0.],-0.177734375,-0.32373046875,0.94873046875,[0. 0. 0. 0. 0. 0. 0. 0. 0.]
7.210437297821045,-0.0238345917314291,0.041083578020334244,-0.3212292492389679,0.9458097219467163,[0. 0. 0. 0. 0. 0. 0. 0. 0.],9.09423828125,-1.52587890625,-130.126953125,[0. 0. 0. 0. 0. 0. 0. 0. 0.],-0.19873046875,-0.259765625,0.9462890625,[0. 0. 0. 0. 0. 0. 0. 0. 0.]
7.2373552322387695,-0.026027105748653412,0.041910842061042786,-0.34887757897377014,0.9358688592910767,[0. 0. 0. 0. 0. 0. 0. 0. 0.],-5.55419921875,1.46484375,-136.71875,[0. 0. 0. 0. 0. 0. 0. 0. 0.],-0.17626953125,-0.20654296875,0.71337890625,[0. 0. 0. 0. 0. 0. 0. 0. 0.]
7.250827789306641,-0.027697524055838585,0.042251259088516235,-0.365426242351532,0.9294682741165161,[0. 0. 0. 0. 0. 0. 0. 0. 0.],-1.40380859375,9.1552734375,-132.568359375,[0. 0. 0. 0. 0. 0. 0. 0. 0.],-0.2158203125,-0.39501953125,1.04931640625,[0. 0. 0. 0. 0. 0. 0. 0. 0.]
7.275679111480713,-0.029248304665088654,0.0456022173166275,-0.39160194993019104,0.918538510799408,[0. 0. 0. 0. 0. 0. 0. 0. 0.],1.46484375,19.83642578125,-125.3662109375,[0. 0. 0. 0. 0. 0. 0. 0. 0.],-0.2763671875,-0.45849609375,1.216796875,[0. 0. 0. 0. 0. 0. 0. 0. 0.]
7.296592712402344,-0.030028218403458595,0.0463269017636776,-0.4112650156021118,0.9098424315452576,[0. 0. 0. 0. 0. 0. 0. 0. 0.],8.97216796875,-10.1318359375,-119.9951171875,[0. 0. 0. 0. 0. 0. 0. 0. 0.],-0.412109375,-0.39013671875,0.96826171875,[0. 0. 0. 0. 0. 0. 0. 0. 0.]
7.312004804611206,-0.03091474436223507,0.04501757398247719,-0.42474135756492615,0.9036661982536316,[0. 0. 0. 0. 0. 0. 0. 0. 0.],5.18798828125,-11.53564453125,-111.02294921875,[0. 0. 0. 0. 0. 0. 0. 0. 0.],-0.2763671875,-0.2998046875,0.8916015625,[0. 0. 0. 0. 0. 0. 0. 0. 0.]
7.335221529006958,-0.03237172216176987,0.0453157015144825,-0.4405768811702728,0.8959858417510986,[0. 0. 0. 0. 0. 0. 0. 0. 0.],-2.74658203125,-4.82177734375,-96.13037109375,[0. 0. 0. 0. 0. 0. 0. 0. 0.],-0.22705078125,-0.24072265625,0.66943359375,[0. 0. 0. 0. 0. 0. 0. 0. 0.]
7.350594520568848,-0.034448716789484024,0.045138146728277206,-0.4541643559932709,0.8891066908836365,[0. 0. 0. 0. 0. 0. 0. 0. 0.],-1.03759765625,7.2021484375,-79.04052734375,[0. 0. 0. 0. 0. 0. 0. 0. 0.],-0.3134765625,-0.37158203125,1.083984375,[0. 0. 0. 0. 0. 0. 0. 0. 0.]
7.375280141830444,-0.033384811133146286,0.04823165386915207,-0.46513479948043823,0.8832943439483643,[0. 0. 0. 0. 0. 0. 0. 0. 0.],11.1083984375,21.3623046875,-62.19482421875,[0. 0. 0. 0. 0. 0. 0. 0. 0.],-0.369140625,-0.38720703125,1.21728515625,[0. 0. 0. 0. 0. 0. 0. 0. 0.]
7.3956780433654785,-0.03220602497458458,0.05132525414228439,-0.47375738620758057,0.8785683512687683,[0. 0. 0. 0. 0. 0. 0. 0. 0.],-0.732421875,5.126953125,-53.1005859375,[0. 0. 0. 0. 0. 0. 0. 0. 0.],-0.48779296875,-0.24462890625,0.98876953125,[0. 0. 0. 0. 0. 0. 0. 0. 0.]
7.415204048156738,-0.031678829342126846,0.0510234609246254,-0.48066890239715576,0.8748431205749512,[0. 0. 0. 0. 0. 0. 0. 0. 0.],9.70458984375,1.15966796875,-42.48046875,[0. 0. 0. 0. 0. 0. 0. 0. 0.],-0.48095703125,-0.28466796875,1.0703125,[0. 0. 0. 0. 0. 0. 0. 0. 0.]
7.439218044281006,-0.03125894442200661,0.05107155814766884,-0.4881834387779236,0.8706845045089722,[0. 0. 0. 0. 0. 0. 0. 0. 0.],1.46484375,-4.45556640625,-38.57421875,[0. 0. 0. 0. 0. 0. 0. 0. 0.],-0.30322265625,-0.14453125,0.7392578125,[0. 0. 0. 0. 0. 0. 0. 0. 0.]
7.459370374679565,-0.0318262055516243,0.05379032343626022,-0.493038147687912,0.8677598834037781,[0. 0. 0. 0. 0. 0. 0. 0. 0.],-4.08935546875,2.13623046875,-28.86962890625,[0. 0. 0. 0. 0. 0. 0. 0. 0.],-0.353515625,-0.171875,0.8505859375,[0. 0. 0. 0. 0. 0. 0. 0. 0.]
7.475302696228027,-0.03234988451004028,0.054792340844869614,-0.4954979419708252,0.866275429725647,[0. 0. 0. 0. 0. 0. 0. 0. 0.],-2.25830078125,-1.64794921875,-18.12744140625,[0. 0. 0. 0. 0. 0. 0. 0. 0.],-0.46337890625,-0.228515625,1.140625,[0. 0. 0. 0. 0. 0. 0. 0. 0.]
7.497178792953491,-0.03076227754354477,0.055826254189014435,-0.49635323882102966,0.8657774925231934,[0. 0. 0. 0. 0. 0. 0. 0. 0.],16.78466796875,-11.1083984375,3.0517578125,[0. 0. 0. 0. 0. 0. 0. 0. 0.],-0.39453125,-0.21240234375,1.21728515625,[0. 0. 0. 0. 0. 0. 0. 0. 0.]
7.515236139297485,-0.030141260474920273,0.05097650736570358,-0.49360769987106323,0.8676660060882568,[0. 0. 0. 0. 0. 0. 0. 0. 0.],14.5263671875,-30.94482421875,27.03857421875,[0. 0. 0. 0. 0. 0. 0. 0. 0.],-0.2138671875,-0.0947265625,1.03857421875,[0. 0. 0. 0. 0. 0. 0. 0. 0.]
7.5352983474731445,-0.02888103760778904,0.04650209844112396,-0.4882177412509918,0.8710033893585205,[0. 0. 0. 0. 0. 0. 0. 0. 0.],15.2587890625,-20.263671875,45.59326171875,[0. 0. 0. 0. 0. 0. 0. 0. 0.],0.0927734375,-0.009765625,0.9736328125,[0. 0. 0. 0. 0. 0. 0. 0. 0.]
7.555635690689087,-0.02718139998614788,0.03941820561885834,-0.4768160283565521,0.8776980638504028,[0. 0. 0. 0. 0. 0. 0. 0. 0.],15.2587890625,-16.90673828125,68.78662109375,[0. 0. 0. 0. 0. 0. 0. 0. 0.],0.07861328125,0.05517578125,1.0595703125,[0. 0. 0. 0. 0. 0. 0. 0. 0.]
7.570655107498169,-0.025931520387530327,0.03540610894560814,-0.46763139963150024,0.8828334212303162,[0. 0. 0. 0. 0. 0. 0. 0. 0.],13.3056640625,-22.76611328125,85.75439453125,[0. 0. 0. 0. 0. 0. 0. 0. 0.],0.05908203125,0.099609375,0.89111328125,[0. 0. 0. 0. 0. 0. 0. 0. 0.]
7.596107006072998,-0.025581683963537216,0.03014206700026989,-0.4526959955692291,0.8907880783081055,[0. 0. 0. 0. 0. 0. 0. 0. 0.],1.64794921875,-26.30615234375,104.55322265625,[0. 0. 0. 0. 0. 0. 0. 0. 0.],0.0751953125,0.15478515625,0.7529296875,[0. 0. 0. 0. 0. 0. 0. 0. 0.]
7.610430479049683,-0.025602087378501892,0.026794271543622017,-0.4349375069141388,0.8996977806091309,[0. 0. 0. 0. 0. 0. 0. 0. 0.],2.13623046875,-14.58740234375,117.67578125,[0. 0. 0. 0. 0. 0. 0. 0. 0.],0.28662109375,0.1416015625,1.02294921875,[0. 0. 0. 0. 0. 0. 0. 0. 0.]
7.635624647140503,-0.024899471551179886,0.022640930488705635,-0.41576507687568665,0.9088492393493652,[0. 0. 0. 0. 0. 0. 0. 0. 0.],7.8125,-18.73779296875,124.32861328125,[0. 0. 0. 0. 0. 0. 0. 0. 0.],0.3623046875,0.13037109375,1.16064453125,[0. 0. 0. 0. 0. 0. 0. 0. 0.]
7.652474641799927,-0.0220990851521492,0.01799894869327545,-0.39071816205978394,0.9200690388679504,[0. 0. 0. 0. 0. 0. 0. 0. 0.],16.9677734375,7.38525390625,127.99072265625,[0. 0. 0. 0. 0. 0. 0. 0. 0.],0.52294921875,0.25634765625,1.0654296875,[0. 0. 0. 0. 0. 0. 0. 0. 0.]
7.677037239074707,-0.01962880603969097,0.016250479966402054,-0.3751315772533417,0.9266211986541748,[0. 0. 0. 0. 0. 0. 0. 0. 0.],16.17431640625,-12.51220703125,130.126953125,[0. 0. 0. 0. 0. 0. 0. 0. 0.],0.39794921875,0.28857421875,0.97119140625,[0. 0. 0. 0. 0. 0. 0. 0. 0.]
7.695568323135376,-0.018761465325951576,0.012467901222407818,-0.35325318574905396,0.9352564811706543,[0. 0. 0. 0. 0. 0. 0. 0. 0.],-1.03759765625,0.67138671875,134.94873046875,[0. 0. 0. 0. 0. 0. 0. 0. 0.],0.3798828125,0.36962890625,0.896484375,[0. 0. 0. 0. 0. 0. 0. 0. 0.]
7.715751647949219,-0.016144590452313423,0.012278227135539055,-0.3313283920288086,0.9432974457740784,[0. 0. 0. 0. 0. 0. 0. 0. 0.],11.1083984375,0.1220703125,135.3759765625,[0. 0. 0. 0. 0. 0. 0. 0. 0.],0.43359375,0.3037109375,1.0419921875,[0. 0. 0. 0. 0. 0. 0. 0. 0.]
7.735122442245483,-0.01544769387692213,0.009163431823253632,-0.30811557173728943,0.9511793851852417,[0. 0. 0. 0. 0. 0. 0. 0. 0.],5.06591796875,-25.2685546875,141.2353515625,[0. 0. 0. 0. 0. 0. 0. 0. 0.],0.18017578125,0.333984375,0.8701171875,[0. 0. 0. 0. 0. 0. 0. 0. 0.]
7.756251811981201,-0.01466428767889738,0.007107963319867849,-0.28443557024002075,0.958556592464447,[0. 0. 0. 0. 0. 0. 0. 0. 0.],0.91552734375,7.99560546875,143.12744140625,[0. 0. 0. 0. 0. 0. 0. 0. 0.],0.4326171875,0.31689453125,0.98876953125,[0. 0. 0. 0. 0. 0. 0. 0. 0.]
7.775397062301636,-0.014553047716617584,0.004731734748929739,-0.2546546459197998,0.9669109582901001,[0. 0. 0. 0. 0. 0. 0. 0. 0.],1.220703125,-12.20703125,137.39013671875,[0. 0. 0. 0. 0. 0. 0. 0. 0.],0.46435546875,0.287109375,1.01953125,[0. 0. 0. 0. 0. 0. 0. 0. 0.]
7.796677827835083,-0.01366122905164957,0.002953615505248308,-0.23804837465286255,0.9711527228355408,[0. 0. 0. 0. 0. 0. 0. 0. 0.],11.41357421875,-0.3662109375,128.662109375,[0. 0. 0. 0. 0. 0. 0. 0. 0.],0.6328125,0.234375,1.13720703125,[0. 0. 0. 0. 0. 0. 0. 0. 0.]
7.815612077713013,-0.011766470037400723,0.0027712020091712475,-0.21734602749347687,0.9760197401046753,[0. 0. 0. 0. 0. 0. 0. 0. 0.],4.638671875,5.4931640625,118.22509765625,[0. 0. 0. 0. 0. 0. 0. 0. 0.],0.5361328125,0.28125,0.98681640625,[0. 0. 0. 0. 0. 0. 0. 0. 0.]
7.836671829223633,-0.01180896908044815,0.002884642221033573,-0.1988631933927536,0.9799519181251526,[0. 0. 0. 0. 0. 0. 0. 0. 0.],-6.53076171875,5.31005859375,101.98974609375,[0. 0. 0. 0. 0. 0. 0. 0. 0.],0.455078125,0.2900390625,0.85888671875,[0. 0. 0. 0. 0. 0. 0. 0. 0.]
7.855316877365112,-0.012011965736746788,0.003412796650081873,-0.183712437748909,0.9829006791114807,[0. 0. 0. 0. 0. 0. 0. 0. 0.],-2.44140625,10.43701171875,79.9560546875,[0. 0. 0. 0. 0. 0. 0. 0. 0.],0.51953125,0.26904296875,1.0830078125,[0. 0. 0. 0. 0. 0. 0. 0. 0.]
7.875361204147339,-0.010685538873076439,0.004305380396544933,-0.1728793829679489,0.9848756790161133,[0. 0. 0. 0. 0. 0. 0. 0. 0.],6.591796875,13.916015625,55.0537109375,[0. 0. 0. 0. 0. 0. 0. 0. 0.],0.40576171875,0.21533203125,1.0966796875,[0. 0. 0. 0. 0. 0. 0. 0. 0.]
7.8953399658203125,-0.009105975739657879,0.005136306397616863,-0.16583052277565002,0.9860989451408386,[0. 0. 0. 0. 0. 0. 0. 0. 0.],-1.03759765625,14.09912109375,32.65380859375,[0. 0. 0. 0. 0. 0. 0. 0. 0.],0.1611328125,0.26318359375,0.92333984375,[0. 0. 0. 0. 0. 0. 0. 0. 0.]
7.910989761352539,-0.008130633272230625,0.006604412104934454,-0.1624739021062851,0.9866572022438049,[0. 0. 0. 0. 0. 0. 0. 0. 0.],-2.38037109375,12.939453125,12.02392578125,[0. 0. 0. 0. 0. 0. 0. 0. 0.],0.11083984375,0.25732421875,1.02734375,[0. 0. 0. 0. 0. 0. 0. 0. 0.]
7.937096118927002,-0.006098284851759672,0.009065832011401653,-0.16228236258029938,0.9866839647293091,[0. 0. 0. 0. 0. 0. 0. 0. 0.],3.2958984375,17.9443359375,-4.39453125,[0. 0. 0. 0. 0. 0. 0. 0. 0.],0.0146484375,0.2080078125,0.9970703125,[0. 0. 0. 0. 0. 0. 0. 0. 0.]
7.9553797245025635,-0.004541024100035429,0.010927739553153515,-0.164598748087883,0.9862896800041199,[0. 0. 0. 0. 0. 0. 0. 0. 0.],-3.96728515625,7.14111328125,-18.37158203125,[0. 0. 0. 0. 0. 0. 0. 0. 0.],-0.12255859375,0.24365234375,0.93408203125,[0. 0. 0. 0. 0. 0. 0. 0. 0.]
7.9755494594573975,-0.003509601578116417,0.012840337119996548,-0.1694411188364029,0.9854505062103271,[0. 0. 0. 0. 0. 0. 0. 0. 0.],-5.67626953125,13.48876953125,-33.50830078125,[0. 0. 0. 0. 0. 0. 0. 0. 0.],-0.07275390625,0.23193359375,0.97216796875,[0. 0. 0. 0. 0. 0. 0. 0. 0.]
7.997393608093262,-0.001981517765671015,0.015638159587979317,-0.17650441825389862,0.984173595905304,[0. 0. 0. 0. 0. 0. 0. 0. 0.],-2.197265625,13.7939453125,-45.83740234375,[0. 0. 0. 0. 0. 0. 0. 0. 0.],-0.11181640625,0.1953125,0.99072265625,[0. 0. 0. 0. 0. 0. 0. 0. 0.]
8.019095182418823,0.0004775188281200826,0.017882831394672394,-0.1881130486726761,0.9819844961166382,[0. 0. 0. 0. 0. 0. 0. 0. 0.],3.173828125,4.0283203125,-59.4482421875,[0. 0. 0. 0. 0. 0. 0. 0. 0.],-0.1982421875,0.189453125,1.06005859375,[0. 0. 0. 0. 0. 0. 0. 0. 0.]
8.035413265228271,0.001905071665532887,0.018994878977537155,-0.1963881254196167,0.9803404211997986,[0. 0. 0. 0. 0. 0. 0. 0. 0.],3.173828125,5.67626953125,-67.5048828125,[0. 0. 0. 0. 0. 0. 0. 0. 0.],-0.17431640625,0.19287109375,1.01416015625,[0. 0. 0. 0. 0. 0. 0. 0. 0.]
8.055458545684814,0.003953974228352308,0.02102673612535,-0.2088511437177658,0.9777134656906128,[0. 0. 0. 0. 0. 0. 0. 0. 0.],2.0751953125,11.53564453125,-76.5380859375,[0. 0. 0. 0. 0. 0. 0. 0. 0.],-0.12939453125,0.1708984375,1.03369140625,[0. 0. 0. 0. 0. 0. 0. 0. 0.]
8.070672512054443,0.005366721656173468,0.022960050031542778,-0.22219733893871307,0.9747166037559509,[0. 0. 0. 0. 0. 0. 0. 0. 0.],-1.0986328125,3.84521484375,-79.65087890625,[0. 0. 0. 0. 0. 0. 0. 0. 0.],-0.1875,0.150390625,0.9501953125,[0. 0. 0. 0. 0. 0. 0. 0. 0.]
8.095886468887329,0.0061533753760159016,0.02491394616663456,-0.23580147325992584,0.9714624285697937,[0. 0. 0. 0. 0. 0. 0. 0. 0.],-4.45556640625,10.55908203125,-81.35986328125,[0. 0. 0. 0. 0. 0. 0. 0. 0.],-0.146484375,0.13037109375,0.9423828125,[0. 0. 0. 0. 0. 0. 0. 0. 0.]
8.115450620651245,0.007667005993425846,0.027890512719750404,-0.24920789897441864,0.9680179357528687,[0. 0. 0. 0. 0. 0. 0. 0. 0.],2.5634765625,8.30078125,-77.880859375,[0. 0. 0. 0. 0. 0. 0. 0. 0.],-0.18798828125,0.0810546875,1.05322265625,[0. 0. 0. 0. 0. 0. 0. 0. 0.]
8.136632919311523,0.009289833717048168,0.029836731031537056,-0.26206400990486145,0.9645444750785828,[0. 0. 0. 0. 0. 0. 0. 0. 0.],0.91552734375,6.40869140625,-75.62255859375,[0. 0. 0. 0. 0. 0. 0. 0. 0.],-0.2294921875,0.12548828125,1.0654296875,[0. 0. 0. 0. 0. 0. 0. 0. 0.]
8.155438661575317,0.010412415489554405,0.031213242560625076,-0.27467820048332214,0.9609730839729309,[0. 0. 0. 0. 0. 0. 0. 0. 0.],-0.732421875,-0.732421875,-75.8056640625,[0. 0. 0. 0. 0. 0. 0. 0. 0.],-0.2138671875,0.142578125,1.04345703125,[0. 0. 0. 0. 0. 0. 0. 0. 0.]
8.177117347717285,0.011667815037071705,0.03249307721853256,-0.2871449291706085,0.95726478099823,[0. 0. 0. 0. 0. 0. 0. 0. 0.],3.2958984375,2.50244140625,-74.40185546875,[0. 0. 0. 0. 0. 0. 0. 0. 0.],-0.18310546875,0.08740234375,0.9814453125,[0. 0. 0. 0. 0. 0. 0. 0. 0.]
8.195388317108154,0.013322034850716591,0.0340774767100811,-0.2991376519203186,0.9535082578659058,[0. 0. 0. 0. 0. 0. 0. 0. 0.],0.54931640625,2.25830078125,-71.2890625,[0. 0. 0. 0. 0. 0. 0. 0. 0.],-0.2021484375,0.11279296875,0.921875,[0. 0. 0. 0. 0. 0. 0. 0. 0.]
8.218652486801147,0.01452932320535183,0.03551348298788071,-0.3107726573944092,0.9497094750404358,[0. 0. 0. 0. 0. 0. 0. 0. 0.],2.9296875,-2.13623046875,-70.80078125,[0. 0. 0. 0. 0. 0. 0. 0. 0.],-0.19189453125,0.1103515625,1.0625,[0. 0. 0. 0. 0. 0. 0. 0. 0.]
8.235167026519775,0.016551446169614792,0.03691376745700836,-0.3223629295825958,0.945751428604126,[0. 0. 0. 0. 0. 0. 0. 0. 0.],4.638671875,7.6904296875,-70.73974609375,[0. 0. 0. 0. 0. 0. 0. 0. 0.],-0.12841796875,0.05810546875,1.02099609375,[0. 0. 0. 0. 0. 0. 0. 0. 0.]
8.255277156829834,0.018090341240167618,0.038734208792448044,-0.33380791544914246,0.9416712522506714,[0. 0. 0. 0. 0. 0. 0. 0. 0.],-2.62451171875,4.39453125,-70.12939453125,[0. 0. 0. 0. 0. 0. 0. 0. 0.],-0.15576171875,0.0693359375,0.85302734375,[0. 0. 0. 0. 0. 0. 0. 0. 0.]
8.275316715240479,0.01819499582052231,0.0405794121325016,-0.34493154287338257,0.9375737309455872,[0. 0. 0. 0. 0. 0. 0. 0. 0.],-2.13623046875,-1.64794921875,-67.68798828125,[0. 0. 0. 0. 0. 0. 0. 0. 0.],-0.2412109375,0.04443359375,1.015625,[0. 0. 0. 0. 0. 0. 0. 0. 0.]
8.29551362991333,0.01855277083814144,0.042038943618535995,-0.35592085123062134,0.9333857893943787,[0. 0. 0. 0. 0. 0. 0. 0. 0.],0.244140625,-0.67138671875,-67.2607421875,[0. 0. 0. 0. 0. 0. 0. 0. 0.],-0.19970703125,0.0234375,1.0537109375,[0. 0. 0. 0. 0. 0. 0. 0. 0.]
8.316290140151978,0.019148727878928185,0.04374929517507553,-0.36672085523605347,0.9291045665740967,[0. 0. 0. 0. 0. 0. 0. 0. 0.],-0.48828125,3.173828125,-66.89453125,[0. 0. 0. 0. 0. 0. 0. 0. 0.],-0.18798828125,0.0361328125,0.98876953125,[0. 0. 0. 0. 0. 0. 0. 0. 0.]
8.3369460105896,0.019399307668209076,0.04617845267057419,-0.38028499484062195,0.9235121607780457,[0. 0. 0. 0. 0. 0. 0. 0. 0.],-3.90625,-2.0751953125,-67.3828125,[0. 0. 0. 0. 0. 0. 0. 0. 0.],-0.21435546875,0.02392578125,0.919921875,[0. 0. 0. 0. 0. 0. 0. 0. 0.]
8.353139638900757,0.019301289692521095,0.048262819647789,-0.3909687101840973,0.9189350605010986,[0. 0. 0. 0. 0. 0. 0. 0. 0.],-3.173828125,3.5400390625,-67.87109375,[0. 0. 0. 0. 0. 0. 0. 0. 0.],-0.14794921875,0.0,0.99560546875,[0. 0. 0. 0. 0. 0. 0. 0. 0.]
8.375317096710205,0.01760876737535,0.0505746565759182,-0.399183064699173,0.9153059720993042,[0. 0. 0. 0. 0. 0. 0. 0. 0.],-5.2490234375,13.671875,-68.115234375,[0. 0. 0. 0. 0. 0. 0. 0. 0.],-0.10009765625,-0.087890625,0.99755859375,[0. 0. 0. 0. 0. 0. 0. 0. 0.]
8.395412683486938,0.015796098858118057,0.05347340926527977,-0.40990227460861206,0.9104236364364624,[0. 0. 0. 0. 0. 0. 0. 0. 0.],-2.25830078125,4.08935546875,-65.4296875,[0. 0. 0. 0. 0. 0. 0. 0. 0.],-0.25537109375,-0.15625,1.03564453125,[0. 0. 0. 0. 0. 0. 0. 0. 0.]
8.415429592132568,0.014194894582033157,0.0563276931643486,-0.4204610288143158,0.9054492712020874,[0. 0. 0. 0. 0. 0. 0. 0. 0.],-3.7841796875,6.04248046875,-67.0166015625,[0. 0. 0. 0. 0. 0. 0. 0. 0.],-0.24365234375,-0.1611328125,1.1015625,[0. 0. 0. 0. 0. 0. 0. 0. 0.]
8.436142444610596,0.01251639798283577,0.05848301574587822,-0.43149787187576294,0.9001293182373047,[0. 0. 0. 0. 0. 0. 0. 0. 0.],0.732421875,6.8359375,-69.82421875,[0. 0. 0. 0. 0. 0. 0. 0. 0.],-0.23681640625,-0.1875,1.05322265625,[0. 0. 0. 0. 0. 0. 0. 0. 0.]
8.455304622650146,0.012345480732619762,0.06023769453167915,-0.442446231842041,0.8946844935417175,[0. 0. 0. 0. 0. 0. 0. 0. 0.],8.4228515625,3.173828125,-68.66455078125,[0. 0. 0. 0. 0. 0. 0. 0. 0.],-0.244140625,-0.16357421875,1.01318359375,[0. 0. 0. 0. 0. 0. 0. 0. 0.]
8.475488662719727,0.012081936001777649,0.06214475631713867,-0.4534262716770172,0.8890425562858582,[0. 0. 0. 0. 0. 0. 0. 0. 0.],-0.6103515625,4.94384765625,-71.044921875,[0. 0. 0. 0. 0. 0. 0. 0. 0.],-0.19580078125,-0.09521484375,0.93115234375,[0. 0. 0. 0. 0. 0. 0. 0. 0.]
8.49553108215332,0.010862328112125397,0.06394536793231964,-0.46486374735832214,0.8830032348632812,[0. 0. 0. 0. 0. 0. 0. 0. 0.],-0.48828125,-1.15966796875,-75.62255859375,[0. 0. 0. 0. 0. 0. 0. 0. 0.],-0.22509765625,-0.15673828125,0.95947265625,[0. 0. 0. 0. 0. 0. 0. 0. 0.]
8.515401601791382,0.009429103694856167,0.06649389117956161,-0.47650086879730225,0.876605212688446,[0. 0. 0. 0. 0. 0. 0. 0. 0.],2.01416015625,8.85009765625,-77.33154296875,[0. 0. 0. 0. 0. 0. 0. 0. 0.],-0.16552734375,-0.1962890625,0.90087890625,[0. 0. 0. 0. 0. 0. 0. 0. 0.]
8.535240173339844,0.008165777660906315,0.0687117949128151,-0.48836636543273926,0.8698909878730774,[0. 0. 0. 0. 0. 0. 0. 0. 0.],0.732421875,5.06591796875,-76.66015625,[0. 0. 0. 0. 0. 0. 0. 0. 0.],-0.283203125,-0.21240234375,1.10107421875,[0. 0. 0. 0. 0. 0. 0. 0. 0.]
8.555184364318848,0.0069357240572571754,0.06854549795389175,-0.5009939670562744,0.8627042174339294,[0. 0. 0. 0. 0. 0. 0. 0. 0.],7.4462890625,-8.6669921875,-82.94677734375,[0. 0. 0. 0. 0. 0. 0. 0. 0.],-0.2724609375,-0.20556640625,1.02392578125,[0. 0. 0. 0. 0. 0. 0. 0. 0.]
8.57634949684143,0.004853788297623396,0.06975127756595612,-0.5142921805381775,0.8547600507736206,[0. 0. 0. 0. 0. 0. 0. 0. 0.],-6.103515625,7.14111328125,-90.63720703125,[0. 0. 0. 0. 0. 0. 0. 0. 0.],-0.10107421875,-0.1513671875,0.802734375,[0. 0. 0. 0. 0. 0. 0. 0. 0.]
8.598320484161377,0.0007214364013634622,0.0730520486831665,-0.5320019721984863,0.843585729598999,[0. 0. 0. 0. 0. 0. 0. 0. 0.],-7.568359375,4.7607421875,-98.81591796875,[0. 0. 0. 0. 0. 0. 0. 0. 0.],-0.17138671875,-0.2373046875,0.9072265625,[0. 0. 0. 0. 0. 0. 0. 0. 0.]
8.616536617279053,-0.000794543360825628,0.074393130838871,-0.542819082736969,0.8365480303764343,[0. 0. 0. 0. 0. 0. 0. 0. 0.],4.5166015625,7.75146484375,-95.0927734375,[0. 0. 0. 0. 0. 0. 0. 0. 0.],-0.271484375,-0.361328125,1.16748046875,[0. 0. 0. 0. 0. 0. 0. 0. 0.]
8.635509014129639,-0.0022431479301303625,0.07435788959264755,-0.5565618276596069,0.8274689316749573,[0. 0. 0. 0. 0. 0. 0. 0. 0.],8.1787109375,-8.72802734375,-92.041015625,[0. 0. 0. 0. 0. 0. 0. 0. 0.],-0.31396484375,-0.333984375,1.14013671875,[0. 0. 0. 0. 0. 0. 0. 0. 0.]
8.65555715560913,-0.0037418154533952475,0.07435344904661179,-0.5693901777267456,0.8186894655227661,[0. 0. 0. 0. 0. 0. 0. 0. 0.],4.638671875,9.82666015625,-85.693359375,[0. 0. 0. 0. 0. 0. 0. 0. 0.],-0.16796875,-0.33056640625,1.0576171875,[0. 0. 0. 0. 0. 0. 0. 0. 0.]
8.675265312194824,-0.005347792524844408,0.07424315065145493,-0.5815075039863586,0.8101286292076111,[0. 0. 0. 0. 0. 0. 0. 0. 0.],-0.244140625,-8.97216796875,-81.9091796875,[0. 0. 0. 0. 0. 0. 0. 0. 0.],-0.19873046875,-0.26513671875,0.85546875,[0. 0. 0. 0. 0. 0. 0. 0. 0.]
8.69544768333435,-0.008196895942091942,0.07419446855783463,-0.5916194319725037,0.8027544021606445,[0. 0. 0. 0. 0. 0. 0. 0. 0.],3.72314453125,-19.71435546875,-65.185546875,[0. 0. 0. 0. 0. 0. 0. 0. 0.],-0.236328125,-0.34765625,1.00244140625,[0. 0. 0. 0. 0. 0. 0. 0. 0.]
8.715485095977783,-0.011458134278655052,0.07336974889039993,-0.5990523099899292,0.7972591519355774,[0. 0. 0. 0. 0. 0. 0. 0. 0.],-7.87353515625,-9.09423828125,-46.5087890625,[0. 0. 0. 0. 0. 0. 0. 0. 0.],-0.12158203125,-0.2470703125,0.84765625,[0. 0. 0. 0. 0. 0. 0. 0. 0.]
8.735272645950317,-0.015508238226175308,0.0744667649269104,-0.6039146780967712,0.7934111952781677,[0. 0. 0. 0. 0. 0. 0. 0. 0.],-3.60107421875,-14.5263671875,-29.96826171875,[0. 0. 0. 0. 0. 0. 0. 0. 0.],-0.12060546875,-0.31591796875,0.89404296875,[0. 0. 0. 0. 0. 0. 0. 0. 0.]
8.750677585601807,-0.01902177929878235,0.07392971962690353,-0.6060400605201721,0.79176265001297,[0. 0. 0. 0. 0. 0. 0. 0. 0.],-0.42724609375,-17.578125,-8.36181640625,[0. 0. 0. 0. 0. 0. 0. 0. 0.],-0.16943359375,-0.41552734375,1.15478515625,[0. 0. 0. 0. 0. 0. 0. 0. 0.]
8.775820016860962,-0.020913394168019295,0.0726451426744461,-0.6048067808151245,0.7927762269973755,[0. 0. 0. 0. 0. 0. 0. 0. 0.],2.5634765625,-2.3193359375,18.61572265625,[0. 0. 0. 0. 0. 0. 0. 0. 0.],-0.05419921875,-0.36279296875,1.08349609375,[0. 0. 0. 0. 0. 0. 0. 0. 0.]
8.790921449661255,-0.021663140505552292,0.07354170083999634,-0.600515604019165,0.7959293127059937,[0. 0. 0. 0. 0. 0. 0. 0. 0.],0.6103515625,2.99072265625,43.64013671875,[0. 0. 0. 0. 0. 0. 0. 0. 0.],-0.03271484375,-0.3212890625,0.9658203125,[0. 0. 0. 0. 0. 0. 0. 0. 0.]
8.815709352493286,-0.0248252060264349,0.07020961493253708,-0.5934448838233948,0.8014222383499146,[0. 0. 0. 0. 0. 0. 0. 0. 0.],4.638671875,-32.5927734375,60.546875,[0. 0. 0. 0. 0. 0. 0. 0. 0.],-0.11669921875,-0.27490234375,0.98388671875,[0. 0. 0. 0. 0. 0. 0. 0. 0.]
8.83625864982605,-0.02655392698943615,0.06775124371051788,-0.5834589600563049,0.8088760375976562,[0. 0. 0. 0. 0. 0. 0. 0. 0.],1.5869140625,-3.2958984375,80.38330078125,[0. 0. 0. 0. 0. 0. 0. 0. 0.],0.15771484375,-0.16943359375,0.88818359375,[0. 0. 0. 0. 0. 0. 0. 0. 0.]
8.855570316314697,-0.028157005086541176,0.06305532902479172,-0.5719285607337952,0.8173916935920715,[0. 0. 0. 0. 0. 0. 0. 0. 0.],12.75634765625,-22.88818359375,86.42578125,[0. 0. 0. 0. 0. 0. 0. 0. 0.],0.2373046875,-0.1787109375,1.0966796875,[0. 0. 0. 0. 0. 0. 0. 0. 0.]
8.870643854141235,-0.027267910540103912,0.05996234342455864,-0.5593586564064026,0.8263044357299805,[0. 0. 0. 0. 0. 0. 0. 0. 0.],11.65771484375,-2.50244140625,91.30859375,[0. 0. 0. 0. 0. 0. 0. 0. 0.],0.35400390625,-0.11962890625,1.1240234375,[0. 0. 0. 0. 0. 0. 0. 0. 0.]
8.89606499671936,-0.025985492393374443,0.055495526641607285,-0.5460295081138611,0.8355218768119812,[0. 0. 0. 0. 0. 0. 0. 0. 0.],14.34326171875,-14.95361328125,95.703125,[0. 0. 0. 0. 0. 0. 0. 0. 0.],0.2890625,-0.08349609375,1.01904296875,[0. 0. 0. 0. 0. 0. 0. 0. 0.]
8.916707992553711,-0.025327499955892563,0.051239002496004105,-0.5314855575561523,0.8451367616653442,[0. 0. 0. 0. 0. 0. 0. 0. 0.],12.6953125,-7.6904296875,101.62353515625,[0. 0. 0. 0. 0. 0. 0. 0. 0.],0.33837890625,-0.017578125,0.91650390625,[0. 0. 0. 0. 0. 0. 0. 0. 0.]
8.935540437698364,-0.024390961974859238,0.04754948243498802,-0.5159391164779663,0.8549567461013794,[0. 0. 0. 0. 0. 0. 0. 0. 0.],10.19287109375,-18.06640625,107.97119140625,[0. 0. 0. 0. 0. 0. 0. 0. 0.],0.3046875,0.01806640625,0.97314453125,[0. 0. 0. 0. 0. 0. 0. 0. 0.]
8.955484628677368,-0.024490652605891228,0.043982379138469696,-0.4993755519390106,0.8649219274520874,[0. 0. 0. 0. 0. 0. 0. 0. 0.],3.90625,-9.82666015625,112.6708984375,[0. 0. 0. 0. 0. 0. 0. 0. 0.],0.3076171875,0.0654296875,0.8037109375,[0. 0. 0. 0. 0. 0. 0. 0. 0.]
8.977262258529663,-0.024582911282777786,0.03874223679304123,-0.4777165949344635,0.8773150444030762,[0. 0. 0. 0. 0. 0. 0. 0. 0.],1.953125,-11.1083984375,114.013671875,[0. 0. 0. 0. 0. 0. 0. 0. 0.],0.49951171875,0.11962890625,0.94921875,[0. 0. 0. 0. 0. 0. 0. 0. 0.]
8.995316743850708,-0.023340845480561256,0.03698819875717163,-0.4648860692977905,0.884289562702179,[0. 0. 0. 0. 0. 0. 0. 0. 0.],14.83154296875,-4.5166015625,113.037109375,[0. 0. 0. 0. 0. 0. 0. 0. 0.],0.57861328125,0.119140625,1.14794921875,[0. 0. 0. 0. 0. 0. 0. 0. 0.]
9.018994331359863,-0.02067725919187069,0.032646797597408295,-0.44313347339630127,0.8956223726272583,[0. 0. 0. 0. 0. 0. 0. 0. 0.],13.671875,-6.77490234375,113.76953125,[0. 0. 0. 0. 0. 0. 0. 0. 0.],0.51953125,0.1640625,1.0849609375,[0. 0. 0. 0. 0. 0. 0. 0. 0.]
9.035306453704834,-0.019309306517243385,0.030322037637233734,-0.4297178089618683,0.902247428894043,[0. 0. 0. 0. 0. 0. 0. 0. 0.],10.3759765625,-5.859375,116.88232421875,[0. 0. 0. 0. 0. 0. 0. 0. 0.],0.4853515625,0.1748046875,0.958984375,[0. 0. 0. 0. 0. 0. 0. 0. 0.]
9.055476665496826,-0.01674276776611805,0.027059858664870262,-0.41126254200935364,0.9109613299369812,[0. 0. 0. 0. 0. 0. 0. 0. 0.],16.41845703125,-6.65283203125,117.98095703125,[0. 0. 0. 0. 0. 0. 0. 0. 0.],0.49560546875,0.23193359375,1.05078125,[0. 0. 0. 0. 0. 0. 0. 0. 0.]
9.075272798538208,-0.014239422976970673,0.024954412132501602,-0.39165496826171875,0.9196635484695435,[0. 0. 0. 0. 0. 0. 0. 0. 0.],7.99560546875,-4.8828125,126.220703125,[0. 0. 0. 0. 0. 0. 0. 0. 0.],0.4169921875,0.31201171875,0.87939453125,[0. 0. 0. 0. 0. 0. 0. 0. 0.]
