time,imu.ypr.x,imu.ypr.y,imu.ypr.z,imu.linear_acceleration.x,imu.linear_acceleration.y,imu.linear_acceleration.z,imu.angular_velocity.x,imu.angular_velocity.y,imu.angular_velocity.z,imu.compass.x,imu.compass.y,imu.compass.z,imu.orientation.x,imu.orientation.y,imu.orientation.z,imu.orientation.w
0.25118422508239746,-1.7059040983992708,1.986925081445158,10.364432989995414,-0.0341796875,0.0302734375,1.00048828125,-0.1220703125,-0.48828125,-0.1220703125,0.0,0.0,0.0,0.01638907939195633,0.015921160578727722,-0.09055693447589874,0.9956291317939758
0.27031874656677246,-1.699931845022035,1.967683584779586,10.368394499714022,-0.03515625,0.029296875,1.00146484375,0.06103515625,-0.42724609375,-0.1220703125,0.0,0.0,0.0,0.01632261462509632,0.015758128836750984,-0.09058830887079239,0.9956299662590027
0.29529905319213867,-1.7793243631086766,2.0300733074228328,10.369334504498545,-0.03564453125,0.03076171875,1.0029296875,0.06103515625,-0.67138671875,-0.06103515625,0.0,0.0,0.0,0.01706158183515072,0.01623731292784214,-0.0906149372458458,0.9956074357032776
0.31057095527648926,-1.6561548147538963,2.001249268795144,10.376704278612989,-0.03515625,0.029296875,1.0029296875,-0.06103515625,-0.91552734375,-0.18310546875,0.0,0.0,0.0,0.015969809144735336,0.01608322747051716,-0.09065824002027512,0.9956241250038147
0.33052873611450195,-1.7066092087093687,1.8659086435045185,10.3786261230907,-0.033203125,0.029296875,1.0029296875,-0.18310546875,-0.732421875,-0.244140625,0.0,0.0,0.0,0.016301946714520454,0.014867075718939304,-0.0906662866473198,0.9956369400024414
0.36209726333618164,-1.7374224332111177,1.8410495296900222,10.381728736521179,-0.0322265625,0.0302734375,1.00244140625,-0.18310546875,-0.79345703125,-0.244140625,0.0,0.0,0.0,0.016550501808524132,0.014626248739659786,-0.09069428592920303,0.9956338405609131
0.3724846839904785,-1.7594870391597266,1.9924746101457935,10.384126132919853,-0.0341796875,0.03076171875,1.0029296875,-0.18310546875,-0.54931640625,-0.18310546875,0.0,0.0,0.0,0.016861729323863983,0.015924138948321342,-0.09073612838983536,0.9956048727035522
0.39637017250061035,-1.8132583437308867,1.9244205262464904,10.386614029325031,-0.0341796875,0.03173828125,1.00048828125,-0.244140625,-0.42724609375,-0.30517578125,0.0,0.0,0.0,0.017275668680667877,0.015289880335330963,-0.09075675904750824,0.9956059455871582
0.41659021377563477,-1.6714513435652572,1.951077900803404,10.393291393012364,-0.0341796875,0.029296875,1.0009765625,0.06103515625,-0.8544921875,-0.06103515625,0.0,0.0,0.0,0.016065500676631927,0.015632865950465202,-0.09079881012439728,0.9956170320510864
0.43628835678100586,-1.7284877987248006,2.00647927270867,10.396470846071004,-0.03515625,0.0302734375,1.0,0.1220703125,-0.91552734375,-0.244140625,0.0,0.0,0.0,0.016605153679847717,0.016068575903773308,-0.09084071964025497,0.9955973625183105
0.4554905891418457,-1.7305842399131715,1.892128885954551,10.399401850998586,-0.03369140625,0.0302734375,1.00146484375,-0.244140625,-0.67138671875,-0.244140625,0.0,0.0,0.0,0.01653362065553665,0.01507293526083231,-0.0908529981970787,0.9956130385398865
0.47545957565307617,-1.7817451315609172,1.97534428226399,10.401298082266912,-0.03466796875,0.03125,1.00390625,-0.244140625,-0.30517578125,-0.06103515625,0.0,0.0,0.0,0.01704399287700653,0.015755118802189827,-0.09088633954524994,0.9955907464027405
0.4966120719909668,-1.7534813818885813,2.061361977123838,10.406419870370774,-0.0361328125,0.0302734375,1.0009765625,0.0,-0.48828125,-0.1220703125,0.0,0.0,0.0,0.01686699129641056,0.01652415283024311,-0.09093718975782394,0.9955766797065735
0.5123848915100098,-1.71406329297138,1.9871750236800982,10.41193268680462,-0.03515625,0.029296875,1.00146484375,0.0,-0.54931640625,0.06103515625,0.0,0.0,0.0,0.016466762870550156,0.015910061076283455,-0.09097078442573547,0.995590329170227
0.5358624458312988,-1.7438301111479417,1.9338899432004784,10.414172988852386,-0.03369140625,0.03076171875,1.0029296875,-0.1220703125,-0.9765625,-0.244140625,0.0,0.0,0.0,0.01668362133204937,0.015423132106661797,-0.09098805487155914,0.9955928325653076
0.5504305362701416,-1.7042397733976091,1.9451074616951665,10.419480899611132,-0.0341796875,0.02978515625,1.00048828125,-0.1220703125,-0.6103515625,-0.3662109375,0.0,0.0,0.0,0.016349229961633682,0.015551273711025715,-0.09103014320135117,0.9955925345420837
0.5704193115234375,-1.591091713380824,1.9083542137713279,10.426393051051184,-0.0341796875,0.0283203125,1.001953125,-0.18310546875,-0.30517578125,-0.06103515625,0.0,0.0,0.0,0.015338055789470673,0.015320885926485062,-0.09107086062431335,0.995608389377594
0.5952262878417969,-1.5981085588142485,2.003939936441306,10.429023527655286,-0.03515625,0.02783203125,1.00048828125,0.06103515625,-0.54931640625,-0.1220703125,0.0,0.0,0.0,0.015474963933229446,0.016145462170243263,-0.09110493212938309,0.9955902099609375
0.6102900505065918,-1.5987200741883763,2.0311524773116947,10.43334106098438,-0.03564453125,0.02783203125,1.00146484375,0.06103515625,-0.8544921875,-0.30517578125,0.0,0.0,0.0,0.015502413734793663,0.016380829736590385,-0.09114544838666916,0.9955822229385376
0.630976676940918,-1.7903057064684704,1.9412439225024665,10.429965239987101,-0.0341796875,0.03125,1.0029296875,-0.18310546875,-0.91552734375,-0.244140625,0.0,0.0,0.0,0.01709534414112568,0.015447767451405525,-0.09113241732120514,0.9955722093582153
0.6503560543060303,-1.7291132946423857,1.9591908848769097,10.434157268590196,-0.0341796875,0.0302734375,1.00244140625,-0.244140625,-0.54931640625,-0.244140625,0.0,0.0,0.0,0.016578465700149536,0.015651753172278404,-0.09116267412900925,0.9955750703811646
0.6753880977630615,-1.7369958665531093,1.9890650650894877,10.438241721713863,-0.03466796875,0.0302734375,1.00146484375,-0.1220703125,-0.3662109375,-0.06103515625,0.0,0.0,0.0,0.01667114719748497,0.015904448926448822,-0.0912027582526207,0.9955658316612244
0.6954851150512695,-1.7311046149505618,2.047557311037596,10.441940269149427,-0.0361328125,0.0302734375,1.00244140625,0.18310546875,-0.67138671875,-0.1220703125,0.0,0.0,0.0,0.016666779294610023,0.016416799277067184,-0.09124093502759933,0.9955540895462036
0.7102932929992676,-1.6632743264682825,2.01403154094,10.447340387461967,-0.03515625,0.029296875,1.0009765625,-0.06103515625,-0.79345703125,-0.1220703125,0.0,0.0,0.0,0.016051698476076126,0.016178766265511513,-0.09127436578273773,0.9955650568008423
0.7354440689086914,-1.7572939081059178,2.0261781786052215,10.446130590205229,-0.03515625,0.0302734375,1.00146484375,-0.18310546875,-0.79345703125,-0.18310546875,0.0,0.0,0.0,0.016877977177500725,0.01620958186686039,-0.09127853810787201,0.9955505132675171
0.7556514739990234,-1.6943492325926075,1.9663327014278043,10.451170416039052,-0.0341796875,0.02978515625,1.001953125,-0.30517578125,-0.48828125,-0.18310546875,0.0,0.0,0.0,0.01628442108631134,0.015739046037197113,-0.09130655229091644,0.9955652952194214
0.7758939266204834,-1.7563112146390822,1.8679312332724884,10.452971024658996,-0.03271484375,0.03076171875,1.00146484375,-0.244140625,-0.42724609375,0.0,0.0,0.0,0.0,0.016745001077651978,0.01483446266502142,-0.09131889790296555,0.9955704808235168
0.7974977493286133,-1.705071882537587,1.9781747553447255,10.45687447776966,-0.03466796875,0.02978515625,1.0009765625,0.1220703125,-0.67138671875,-0.1220703125,0.0,0.0,0.0,0.016387751325964928,0.015832575038075447,-0.0913589596748352,0.9955572485923767
0.8164169788360596,-1.598141108934512,1.979045177577079,10.463924086766758,-0.03466796875,0.02880859375,1.0029296875,-0.1220703125,-0.9765625,-0.18310546875,0.0,0.0,0.0,0.01546041201800108,0.015924427658319473,-0.0914054811000824,0.9955664277076721
0.8375592231750488,-1.6867425362913289,1.944189228138623,10.465220115161769,-0.0341796875,0.02978515625,1.0029296875,0.0,-0.8544921875,-0.244140625,0.0,0.0,0.0,0.016202691942453384,0.015550728887319565,-0.09142503887414932,0.9955587983131409
0.85520339012146,-1.7119141312603532,1.9840512793518752,10.466697997343429,-0.0341796875,0.02978515625,1.00146484375,-0.06103515625,-0.67138671875,-0.1220703125,0.0,0.0,0.0,0.01645321398973465,0.015876764431595802,-0.0914459377527237,0.9955475330352783
0.8703722953796387,-1.65727315150878,1.9422953447478253,10.472616356259246,-0.0341796875,0.02880859375,1.00341796875,-0.244140625,-0.42724609375,-0.244140625,0.0,0.0,0.0,0.015946166589856148,0.015556754544377327,-0.09148508310317993,0.9955573081970215
0.8956925868988037,-1.6445415721741705,1.9176084797664605,10.47556016779152,-0.03369140625,0.02880859375,1.00390625,-0.06103515625,-0.3662109375,-0.06103515625,0.0,0.0,0.0,0.015816347673535347,0.015352027490735054,-0.09150619059801102,0.9955605864524841
0.915562629699707,-1.5948013598737873,2.0011162935497406,10.4807357436351,-0.03515625,0.02783203125,1.001953125,0.06103515625,-0.8544921875,-0.18310546875,0.0,0.0,0.0,0.015451272949576378,0.016116587445139885,-0.09155343472957611,0.9955498576164246
0.930574893951416,-1.647109403136978,1.934480968007096,10.48131374839361,-0.0341796875,0.0283203125,1.00146484375,-0.1220703125,-1.03759765625,-0.1220703125,0.0,0.0,0.0,0.01585283689200878,0.01549577433615923,-0.09155839681625366,0.9955529570579529
0.9551458358764648,-1.657300899152283,1.9475428510210993,10.48275321076119,-0.0341796875,0.02880859375,1.001953125,-0.30517578125,-0.6103515625,-0.244140625,0.0,0.0,0.0,0.015951955690979958,0.015600915998220444,-0.09157374501228333,0.9955483078956604
0.9771468639373779,-1.6755005785260169,1.928602736452654,10.485588593040392,-0.0341796875,0.029296875,1.00146484375,-0.18310546875,-0.54931640625,-0.1220703125,0.0,0.0,0.0,0.016095396131277084,0.015421416610479355,-0.09159870445728302,0.9955465793609619
0.9954683780670166,-1.7054487168807013,1.9634354205592495,10.487664970548076,-0.03466796875,0.029296875,1.00244140625,0.1220703125,-0.54931640625,-0.18310546875,0.0,0.0,0.0,0.01638355851173401,0.015699811279773712,-0.09162480384111404,0.9955350160598755
1.0109643936157227,-1.7660446610931735,1.9712201286657716,10.488078196992863,-0.03466796875,0.0302734375,1.00439453125,0.06103515625,-0.91552734375,-0.06103515625,0.0,0.0,0.0,0.016916239634156227,0.015718931332230568,-0.09163761883974075,0.9955246448516846
1.0354194641113281,-1.6637670605838755,1.9406236559484646,10.493974357793876,-0.0341796875,0.02880859375,1.00439453125,-0.06103515625,-0.91552734375,-0.244140625,0.0,0.0,0.0,0.016004154458642006,0.015534065663814545,-0.09167134016752243,0.9955395460128784
1.056663990020752,-1.7512425739446982,1.943217420285777,10.49456346160979,-0.03369140625,0.03076171875,1.00341796875,-0.18310546875,-0.8544921875,-0.18310546875,0.0,0.0,0.0,0.016766255721449852,0.01548653095960617,-0.0916885957121849,0.995526134967804
1.0751721858978271,-1.7056221396525961,1.896807992422833,10.497883787320061,-0.033203125,0.02978515625,1.0029296875,-0.1220703125,-0.3662109375,-0.06103515625,0.0,0.0,0.0,0.016333431005477905,0.015119349583983421,-0.09170588105916977,0.9955374002456665
1.095926284790039,-1.6974751113549462,1.9245867986640979,10.500308504475417,-0.03369140625,0.029296875,1.0029296875,0.06103515625,-0.67138671875,-0.06103515625,0.0,0.0,0.0,0.016285089775919914,0.015366868115961552,-0.09172908961772919,0.995532214641571
1.1153643131256104,-1.6999781622423442,1.9475161705946538,10.505428585031988,-0.0341796875,0.02978515625,1.0029296875,-0.06103515625,-0.91552734375,-0.18310546875,0.0,0.0,0.0,0.016325784847140312,0.01556334737688303,-0.09177654981613159,0.9955241680145264
1.139258623123169,-1.7320229552288111,2.0007399928151552,10.508071014467136,-0.03466796875,0.0302734375,1.00390625,-0.1220703125,-0.91552734375,-0.1220703125,0.0,0.0,0.0,0.016646934673190117,0.015999702736735344,-0.09181010723114014,0.9955088496208191
1.1551563739776611,-1.7091911269373394,1.9480700562476596,10.509654764580933,-0.03369140625,0.02978515625,1.0009765625,-0.244140625,-0.42724609375,-0.244140625,0.0,0.0,0.0,0.016406837850809097,0.01556017529219389,-0.0918145701289177,0.9955194592475891
1.1859138011932373,-1.6949236088131232,1.9908543612086194,10.514790213063137,-0.03466796875,0.0302734375,1.00341796875,-0.244140625,-0.3662109375,-0.1220703125,0.0,0.0,0.0,0.016317691653966904,0.015942580997943878,-0.09186214208602905,0.9955105185508728
1.1917264461517334,-1.6231124939834902,1.9817477980542884,10.520653076691946,-0.03466796875,0.02880859375,1.0029296875,0.06103515625,-0.67138671875,-0.06103515625,0.0,0.0,0.0,0.01568738929927349,0.015920227393507957,-0.09190209209918976,0.9955171942710876
1.2154483795166016,-1.6639404833557703,2.0293335125583556,10.523533708974398,-0.0361328125,0.02880859375,1.001953125,0.1220703125,-0.91552734375,-0.3662109375,0.0,0.0,0.0,0.016080448403954506,0.016300493851304054,-0.09193811565637589,0.9955015182495117
1.2386515140533447,-1.6746715643155066,1.952387589576754,10.526667058256141,-0.03466796875,0.029296875,1.00390625,0.06103515625,-0.91552734375,-0.18310546875,0.0,0.0,0.0,0.016112707555294037,0.01562295202165842,-0.09195816516876221,0.9955099821090698
1.2553234100341797,-1.7117538352582693,1.9083650993853176,10.52621882709186,-0.03369140625,0.02978515625,1.00341796875,-0.244140625,-0.3662109375,-0.1220703125,0.0,0.0,0.0,0.01639966107904911,0.01521079521626234,-0.09195420145988464,0.995512068271637
1.2751190662384033,-1.6746235395479048,1.9933125889795893,10.531761525603326,-0.03466796875,0.029296875,1.001953125,-0.1220703125,-0.3662109375,-0.1220703125,0.0,0.0,0.0,0.01614566519856453,0.015977822244167328,-0.09200705587863922,0.9954992532730103
1.2951536178588867,-1.6769798480898535,1.9239819000357288,10.535956969301006,-0.03369140625,0.029296875,1.00048828125,-0.06103515625,-0.732421875,-0.18310546875,0.0,0.0,0.0,0.016111334785819054,0.015373007394373417,-0.09203596413135529,0.9955066442489624
1.3165688514709473,-1.6442025173149029,1.9433832658165615,10.53896908272498,-0.03369140625,0.02880859375,1.0029296875,-0.06103515625,-0.42724609375,-0.06103515625,0.0,0.0,0.0,0.015842493623495102,0.015567473135888577,-0.0920598953962326,0.995505690574646
1.3304026126861572,-1.7455848294344003,1.9857329999915794,10.537834417549112,-0.03466796875,0.0302734375,1.00390625,-0.06103515625,-0.91552734375,-0.1220703125,0.0,0.0,0.0,0.016756916418671608,0.015854107216000557,-0.09206878393888474,0.9954854249954224
1.3552868366241455,-1.7292109450031756,1.9918833718957643,10.540537464913145,-0.0341796875,0.02978515625,1.001953125,-0.18310546875,-0.67138671875,-0.18310546875,0.0,0.0,0.0,0.016619959846138954,0.015920300036668777,-0.09209071844816208,0.9954847097396851
1.3753166198730469,-1.7148359581212376,1.8950887057426937,10.543211483973206,-0.03369140625,0.03076171875,1.00146484375,-0.18310546875,-0.42724609375,-0.1220703125,0.0,0.0,0.0,0.016418080776929855,0.01509054470807314,-0.09210068732500076,0.9954999685287476
1.3952021598815918,-1.6801205611692958,2.0432523708697836,10.548827607018248,-0.03515625,0.02978515625,1.0009765625,-0.06103515625,-0.6103515625,-0.06103515625,0.0,0.0,0.0,0.01623573713004589,0.016404854133725166,-0.09216172993183136,0.9954765439033508
1.4169671535491943,-1.7052474397435975,1.9819166317928347,10.552390404444056,-0.0341796875,0.02978515625,1.00146484375,-0.06103515625,-0.6103515625,0.0,0.0,0.0,0.0,0.016405461356043816,0.015851275995373726,-0.09218921512365341,0.9954801201820374
1.4352362155914307,-1.6869463747493714,1.930513481872965,10.556003574514992,-0.03369140625,0.029296875,1.00048828125,-0.06103515625,-0.9765625,-0.18310546875,0.0,0.0,0.0,0.016205832362174988,0.015418913215398788,-0.09221219271421432,0.995488166809082
1.4551727771759033,-1.716228889825097,1.9446498390207756,10.558055192586936,-0.03369140625,0.0302734375,1.0009765625,-0.18310546875,-0.54931640625,-0.244140625,0.0,0.0,0.0,0.01647181063890457,0.015517867170274258,-0.09223560988903046,0.9954800009727478
1.475189447402954,-1.7254223244479343,1.9503212439094135,10.56114499941272,-0.0341796875,0.0302734375,1.0029296875,-0.06103515625,-0.48828125,-0.06103515625,0.0,0.0,0.0,0.01655663549900055,0.015559292398393154,-0.09226436167955399,0.9954752922058105
1.495373249053955,-1.6866423246096,1.967285512817021,10.565956867682994,-0.03466796875,0.02978515625,1.00390625,0.0,-0.6103515625,-0.1220703125,0.0,0.0,0.0,0.01623399183154106,0.01573721133172512,-0.0923028215765953,0.9954742193222046
1.5154805183410645,-1.5560574319720073,1.9190338548688777,10.574674750384869,-0.0341796875,0.02783203125,1.00244140625,-0.06103515625,-0.8544921875,-0.3662109375,0.0,0.0,0.0,0.015062078833580017,0.015422044321894646,-0.09235552698373795,0.995492696762085
1.535309076309204,-1.758406161723572,1.9490956518402194,10.569965334952146,-0.0341796875,0.03076171875,1.00244140625,-0.244140625,-0.8544921875,-0.244140625,0.0,0.0,0.0,0.016843384131789207,0.015520789660513401,-0.09234529733657837,0.9954636096954346
1.5512564182281494,-1.8051688384326527,1.9963947118425576,10.57107780201321,-0.03466796875,0.03173828125,1.00048828125,-0.18310546875,-0.48828125,-0.244140625,0.0,0.0,0.0,0.017287664115428925,0.0158938430249691,-0.09236712753772736,0.9954480528831482
1.575204849243164,-1.8027592757595192,1.9878840826933102,10.573664736161353,-0.03466796875,0.03125,1.0029296875,-0.1220703125,-0.3662109375,-0.1220703125,0.0,0.0,0.0,0.017260268330574036,0.015821458771824837,-0.09238820523023605,0.9954477548599243
1.59564208984375,-1.687353411335222,1.9765560005114324,10.581310279163537,-0.03466796875,0.029296875,1.00439453125,-0.1220703125,-0.3662109375,-0.06103515625,0.0,0.0,0.0,0.01624971255660057,0.015814999118447304,-0.09243735671043396,0.9954603314399719
1.6158866882324219,-1.729665472748099,2.031946486802709,10.583448982147397,-0.03564453125,0.0302734375,1.00244140625,0.06103515625,-0.91552734375,-0.18310546875,0.0,0.0,0.0,0.01666201464831829,0.0162617526948452,-0.0924682542681694,0.9954434037208557
1.635328769683838,-1.6128072326298217,1.9745812220676524,10.590516520391068,-0.03466796875,0.0283203125,1.00341796875,-0.244140625,-0.732421875,-0.18310546875,0.0,0.0,0.0,0.015601814724504948,0.01585671864449978,-0.09250680357217789,0.9954636096954346
1.655538558959961,-1.712288190839117,1.9540880932366755,10.590163911875166,-0.0341796875,0.0302734375,1.0029296875,-0.244140625,-0.48828125,-0.18310546875,0.0,0.0,0.0,0.016449501737952232,0.015598424710333347,-0.09251509606838226,0.9954532384872437
1.6750664710998535,-1.6655361863006144,2.0554950580702087,10.595608426417312,-0.03662109375,0.02880859375,1.00244140625,0.06103515625,-0.3662109375,-0.1220703125,0.0,0.0,0.0,0.016125574707984924,0.016516361385583878,-0.09256740659475327,0.995438814163208
1.6952009201049805,-1.6993822282372606,2.037560475413636,10.598752874756457,-0.03564453125,0.02978515625,1.00341796875,0.1220703125,-0.79345703125,0.0,0.0,0.0,0.0,0.016405630856752396,0.01633276604115963,-0.09259752929210663,0.995434582233429
1.7151813507080078,-1.6745597199678475,1.939554091013123,10.60344179962167,-0.0341796875,0.029296875,1.00439453125,0.0,-0.9765625,-0.3662109375,0.0,0.0,0.0,0.016111882403492928,0.015500755980610847,-0.09262365847826004,0.9954501390457153
1.7352943420410156,-1.5845812624413325,1.9710446781814668,10.609519814209335,-0.0341796875,0.02783203125,1.00439453125,-0.244140625,-0.67138671875,-0.18310546875,0.0,0.0,0.0,0.015356401912868023,0.015846237540245056,-0.0926676094532013,0.9954525828361511
1.755204677581787,-1.594992498448842,2.0121869629772733,10.611907819097901,-0.03515625,0.0283203125,1.00146484375,-0.244140625,-0.3662109375,-0.1220703125,0.0,0.0,0.0,0.015480280853807926,0.016194909811019897,-0.09269419312477112,0.9954425692558289
1.7752716541290283,-1.7110047556053893,1.98868983157196,10.610462380314797,-0.03466796875,0.02978515625,1.00341796875,-0.1220703125,-0.3662109375,-0.06103515625,0.0,0.0,0.0,0.016468951478600502,0.01589713990688324,-0.09269525855779648,0.9954314231872559
1.7954399585723877,-1.7595218304358113,1.8880339741037169,10.611692668139046,-0.033203125,0.03076171875,1.00341796875,-0.1220703125,-0.54931640625,0.0,0.0,0.0,0.0,0.016809599474072456,0.01498329546302557,-0.09270061552524567,0.9954394102096558
1.815244436264038,-1.7128935163543095,1.9611492281779994,10.617222560045818,-0.0341796875,0.0302734375,1.00244140625,0.0,-0.8544921875,-0.18310546875,0.0,0.0,0.0,0.016464129090309143,0.0156553927809,-0.09275104850530624,0.9954301118850708
1.836510181427002,-1.6874126418819306,1.8612338059044677,10.623040173671376,-0.033203125,0.02978515625,1.001953125,0.06103515625,-0.8544921875,-0.244140625,0.0,0.0,0.0,0.016163095831871033,0.014807202853262424,-0.09278666973114014,0.9954447150230408
1.8554165363311768,-1.7203134496704704,1.9927638259684612,10.624265338853746,-0.03466796875,0.0302734375,1.0029296875,-0.18310546875,-0.54931640625,-0.1220703125,0.0,0.0,0.0,0.01655500940978527,0.01592301018536091,-0.09281693398952484,0.9954182505607605
1.870241641998291,-1.7529706118047113,1.973788493237108,10.626850565454596,-0.03466796875,0.03076171875,1.0029296875,-0.18310546875,-0.3662109375,-0.18310546875,0.0,0.0,0.0,0.01682376116514206,0.015731336548924446,-0.09284165501594543,0.9954145550727844
1.8956859111785889,-1.665782073110735,1.93276210821378,10.633550127256733,-0.0341796875,0.02880859375,1.001953125,-0.06103515625,-0.54931640625,-0.18310546875,0.0,0.0,0.0,0.01603422872722149,0.015444633550941944,-0.09288325160741806,0.9954280853271484
1.9152514934539795,-1.6905501533101994,1.9794575502482186,10.636068759513174,-0.03466796875,0.02978515625,1.00146484375,-0.06103515625,-0.9765625,-0.244140625,0.0,0.0,0.0,0.01628737710416317,0.015829844400286674,-0.09291379898786545,0.9954151511192322
1.9351651668548584,-1.7465182174731648,1.9344389196550182,10.63773703321795,-0.0341796875,0.03076171875,1.0029296875,-0.1220703125,-0.91552734375,-0.30517578125,0.0,0.0,0.0,0.016737474128603935,0.015393142588436604,-0.09293068200349808,0.9954128861427307
1.9552574157714844,-1.6583733455736809,1.8778659568636835,10.644056665747504,-0.033203125,0.029296875,1.00244140625,-0.244140625,-0.42724609375,-0.18310546875,0.0,0.0,0.0,0.01592697948217392,0.014972285367548466,-0.09296736121177673,0.9954291582107544
1.9758803844451904,-1.770700075342772,2.020396636916217,10.644288892179285,-0.03515625,0.03076171875,1.0029296875,-0.244140625,-0.42724609375,-0.18310546875,0.0,0.0,0.0,0.017017770558595657,0.01611926779150963,-0.09300117194652557,0.9953900575637817
1.9902536869049072,-1.6404832658684192,2.0276118780006893,10.65112505776482,-0.03564453125,0.02880859375,1.001953125,0.1220703125,-0.67138671875,0.0,0.0,0.0,0.0,0.01589343696832657,0.01628667116165161,-0.09304296970367432,0.9954020380973816
2.0152275562286377,-1.6445586476470955,2.004583895213991,10.654918374075118,-0.03515625,0.02880859375,1.00048828125,-0.06103515625,-0.91552734375,-0.244140625,0.0,0.0,0.0,0.01591077446937561,0.016082793474197388,-0.09307396411895752,0.9954021573066711
2.0370776653289795,-1.6308598494929887,1.8824846588464932,10.659667916869216,-0.03369140625,0.0283203125,1.00390625,0.1220703125,-0.9765625,-0.18310546875,0.0,0.0,0.0,0.015693750232458115,0.015032590366899967,-0.09309987723827362,0.9954196214675903
2.0568647384643555,-1.7353075291676467,1.9783248060630543,10.657835718624359,-0.03466796875,0.0302734375,1.00537109375,-0.244140625,-0.42724609375,-0.06103515625,0.0,0.0,0.0,0.016678251326084137,0.01578054390847683,-0.09310892969369888,0.9953911900520325
2.07537841796875,-1.784009125827365,2.072858466157439,10.659195780042838,-0.03564453125,0.03076171875,1.00244140625,-0.1220703125,-0.3662109375,-0.1220703125,0.0,0.0,0.0,0.01717785932123661,0.01656195893883705,-0.09313886612653732,0.995367169380188
2.0951647758483887,-1.6013686934824602,1.9763376479014036,10.668060511811868,-0.03466796875,0.02783203125,1.0029296875,0.1220703125,-0.6103515625,-0.1220703125,0.0,0.0,0.0,0.015514601953327656,0.0158707182854414,-0.09317902475595474,0.9954019784927368
2.1102426052093506,-1.6774717284318001,2.0311904702389527,10.669060280751628,-0.03564453125,0.029296875,1.00341796875,-0.06103515625,-1.03759765625,-0.18310546875,0.0,0.0,0.0,0.016220176592469215,0.016285186633467674,-0.09320442378520966,0.9953816533088684
2.1308887004852295,-1.7296989833637142,1.8695852062686893,10.670917238432226,-0.03271484375,0.0302734375,1.00244140625,-0.18310546875,-0.67138671875,-0.18310546875,0.0,0.0,0.0,0.01654336042702198,0.01483860332518816,-0.09320900589227676,0.9953985810279846
2.1552019119262695,-1.6549412822374554,1.9435350240821827,10.67676985677728,-0.0341796875,0.02880859375,1.0,-0.1220703125,-0.42724609375,-0.06103515625,0.0,0.0,0.0,0.015954606235027313,0.015540988184511662,-0.09325841814279556,0.9953928589820862
2.175180435180664,-1.6711937173675007,1.9458575018433986,10.677508370981288,-0.03466796875,0.02880859375,1.0009765625,0.0,-0.48828125,0.0,0.0,0.0,0.0,0.01609775982797146,0.01554783247411251,-0.0932672992348671,0.9953896403312683
2.1954214572906494,-1.6424565502083182,2.043142020626006,10.68311083364799,-0.03564453125,0.02880859375,1.0029296875,0.06103515625,-0.79345703125,-0.1220703125,0.0,0.0,0.0,0.01592770218849182,0.016415530815720558,-0.09332280606031418,0.9953731894493103
2.2158961296081543,-1.6862499088974416,2.0403779284462664,10.684913149815229,-0.03515625,0.02978515625,1.0009765625,-0.1220703125,-0.91552734375,-0.30517578125,0.0,0.0,0.0,0.016306119039654732,0.016355600208044052,-0.09334441274404526,0.9953660368919373
2.2305655479431152,-1.7663341970809585,1.9617848626576335,10.685842909315996,-0.03466796875,0.03076171875,1.0009765625,-0.06103515625,-0.79345703125,-0.18310546875,0.0,0.0,0.0,0.016938213258981705,0.015607516281306744,-0.0933544859290123,0.9953665137290955
2.2552390098571777,-1.6940067626387547,1.9484606576908197,10.6911038625242,-0.0341796875,0.02978515625,1.0009765625,-0.18310546875,-0.6103515625,-0.1220703125,0.0,0.0,0.0,0.01629987731575966,0.015549943782389164,-0.09338878840208054,0.9953749179840088
2.2750444412231445,-1.6821798632040545,1.914227109240481,10.694897178834495,-0.03369140625,0.029296875,1.0029296875,-0.1220703125,-0.30517578125,-0.1220703125,0.0,0.0,0.0,0.016169901937246323,0.015261671505868435,-0.0934162437915802,0.9953787922859192
2.2957983016967773,-1.6402788938018478,1.9429915971563436,10.700707962270883,-0.0341796875,0.029296875,1.001953125,-0.06103515625,-0.48828125,-0.1220703125,0.0,0.0,0.0,0.01583004929125309,0.015544893220067024,-0.09346430748701096,0.9953754544258118
2.3177356719970703,-1.6100867896277469,2.007827381296101,10.705520684314804,-0.03564453125,0.02783203125,1.00390625,0.1220703125,-0.54931640625,-0.06103515625,0.0,0.0,0.0,0.015621079131960869,0.016132069751620293,-0.0935090184211731,0.9953652024269104
2.3303120136260986,-1.6784280616373077,1.9467663438898335,10.70514331636316,-0.0341796875,0.02880859375,1.00146484375,-0.18310546875,-0.8544921875,-0.244140625,0.0,0.0,0.0,0.01616508886218071,0.015545942820608616,-0.09350843727588654,0.9953658580780029
2.355365514755249,-1.680346491020435,1.9404582373045034,10.708452543016032,-0.0341796875,0.02978515625,1.00390625,-0.244140625,-0.6103515625,-0.244140625,0.0,0.0,0.0,0.01617707870900631,0.015489112585783005,-0.09353671222925186,0.9953639507293701
2.3704116344451904,-1.6751945006738356,1.9207049033380035,10.710875552624094,-0.03369140625,0.029296875,1.00390625,-0.06103515625,-0.54931640625,-0.06103515625,0.0,0.0,0.0,0.016116613522171974,0.015321388840675354,-0.09355483949184418,0.9953657388687134
2.395434617996216,-1.7229797847677142,2.008127909619582,10.713127807502905,-0.03515625,0.029296875,1.00146484375,0.0,-0.6103515625,-0.1220703125,0.0,0.0,0.0,0.01660298928618431,0.016041448339819908,-0.09359096735715866,0.9953430891036987
2.4153623580932617,-1.70911268648359,1.9695349929314825,10.716993694573132,-0.03466796875,0.0302734375,1.00244140625,0.06103515625,-0.91552734375,-0.1220703125,0.0,0.0,0.0,0.016451725736260414,0.015716983005404472,-0.09361816197633743,0.9953482151031494
2.4352755546569824,-1.6325091267341352,1.9648138381111226,10.722040350596126,-0.03466796875,0.02880859375,1.00341796875,-0.1220703125,-0.79345703125,-0.06103515625,0.0,0.0,0.0,0.015783196315169334,0.015737855806946754,-0.0936509445309639,0.9953556060791016
2.4555673599243164,-1.7325970112842095,1.9779188366942615,10.720749444842992,-0.03466796875,0.0302734375,1.00244140625,-0.18310546875,-0.732421875,-0.1220703125,0.0,0.0,0.0,0.016663040965795517,0.0157700777053833,-0.09365499019622803,0.9953403472900391
2.4715325832366943,-1.7448431135792193,1.8591670333503043,10.723163062940946,-0.033203125,0.0302734375,1.0009765625,-0.30517578125,-0.54931640625,-0.1220703125,0.0,0.0,0.0,0.016673194244503975,0.014728182926774025,-0.09366355091333389,0.9953554272651672
2.495649814605713,-1.6980087198838534,1.8924441418734295,10.728350591615571,-0.03271484375,0.029296875,1.0029296875,0.0,-0.732421875,-0.18310546875,0.0,0.0,0.0,0.016294125467538834,0.015054788440465927,-0.09370642900466919,0.9953526854515076
2.5153391361236572,-1.630170107108523,1.9686246567811667,10.733592761803555,-0.0341796875,0.02880859375,1.00146484375,-0.18310546875,-0.8544921875,-0.1220703125,0.0,0.0,0.0,0.015767566859722137,0.015771280974149704,-0.09375139325857162,0.9953458905220032
2.5351390838623047,-1.619256318588489,2.063906009146256,10.736961752611665,-0.03564453125,0.0283203125,1.0029296875,-0.244140625,-0.732421875,-0.30517578125,0.0,0.0,0.0,0.01575080305337906,0.01660739816725254,-0.0937894806265831,0.9953289031982422
2.5553228855133057,-1.736991704406584,1.9356271591271887,10.73668939881851,-0.0341796875,0.02978515625,1.00048828125,-0.06103515625,-0.67138671875,-0.30517578125,0.0,0.0,0.0,0.016668980941176414,0.015396802686154842,-0.09378906339406967,0.9953334331512451
2.5751914978027344,-1.606441923210193,1.93983498254274,10.742669229436856,-0.0341796875,0.0283203125,1.0009765625,-0.244140625,-0.42724609375,0.1220703125,0.0,0.0,0.0,0.01553926058113575,0.015539382584393024,-0.0938238576054573,0.9953463077545166
2.5954275131225586,-1.6693468982489528,1.987978851568044,10.74390976254486,-0.03466796875,0.029296875,1.0029296875,0.06103515625,-0.732421875,-0.06103515625,0.0,0.0,0.0,0.016125040128827095,0.015905894339084625,-0.0938485637307167,0.9953288435935974
2.6164610385894775,-1.732273004185457,1.974572257444367,10.745832460796219,-0.03466796875,0.03076171875,1.00390625,0.1220703125,-0.91552734375,-0.1220703125,0.0,0.0,0.0,0.01666095107793808,0.01573762483894825,-0.09387242048978806,0.9953204393386841
2.635211706161499,-1.685404566265947,1.938845031999911,10.749389281806502,-0.0341796875,0.02978515625,1.00244140625,-0.18310546875,-0.67138671875,-0.18310546875,0.0,0.0,0.0,0.01622522994875908,0.015465175732970238,-0.09389279782772064,0.9953300356864929
2.65378999710083,-1.6819416603567505,1.9958041139227631,10.752004390484972,-0.03515625,0.02978515625,1.00244140625,-0.1220703125,-0.3662109375,-0.1220703125,0.0,0.0,0.0,0.01624193973839283,0.015962405130267143,-0.09392150491476059,0.995319128036499
2.67553448677063,-1.7298901219387688,2.0088956655709733,10.754057716104207,-0.03515625,0.0302734375,1.00244140625,0.0,-0.48828125,-0.18310546875,0.0,0.0,0.0,0.016669366508722305,0.016036521643400192,-0.09394755214452744,0.9953083992004395
2.695951223373413,-1.7319304275098986,1.9750132315326558,10.756112749270734,-0.0341796875,0.02880859375,1.0029296875,-0.06103515625,-0.54931640625,-0.06103515625,0.0,0.0,0.0,0.016659745946526527,0.01574024185538292,-0.09396170824766159,0.9953120350837708
2.715446710586548,-1.630288354758529,1.9706873739105106,10.762984773349412,-0.03466796875,0.0283203125,1.001953125,0.18310546875,-0.9765625,-0.1220703125,0.0,0.0,0.0,0.015774322673678398,0.015785057097673416,-0.09400693327188492,0.9953214526176453
2.736778497695923,-1.7314993785402473,1.9795875372858602,10.762605697850477,-0.03466796875,0.0302734375,1.001953125,0.0,-0.8544921875,-0.244140625,0.0,0.0,0.0,0.016660626977682114,0.015779385343194008,-0.09401858597993851,0.9953059554100037
2.7505626678466797,-1.6892271243236268,1.9561076947968836,10.766819070794728,-0.03466796875,0.029296875,1.001953125,-0.30517578125,-0.6103515625,-0.18310546875,0.0,0.0,0.0,0.01627487689256668,0.015609516762197018,-0.09404667466878891,0.9953123927116394
2.7759106159210205,-1.7882124669312731,1.9242265061853798,10.768639316208537,-0.0341796875,0.03125,1.0009765625,-0.30517578125,-0.48828125,-0.18310546875,0.0,0.0,0.0,0.017108852043747902,0.015251077711582184,-0.09407205879688263,0.9953016042709351
2.7904112339019775,-1.685514382901196,1.9265101372456912,10.774937604396936,-0.03369140625,0.029296875,1.00146484375,0.1220703125,-0.67138671875,-0.06103515625,0.0,0.0,0.0,0.016219554468989372,0.015354324132204056,-0.0941133201122284,0.9953109622001648
2.8105194568634033,-1.642278965289898,1.9647581293807048,10.780108911372281,-0.03466796875,0.02880859375,1.00341796875,0.0,-1.0986328125,-0.18310546875,0.0,0.0,0.0,0.015875982120633125,0.01572134532034397,-0.0941566675901413,0.9953066110610962
2.8352248668670654,-1.6781243316626537,2.0321059290311463,10.78315432196846,-0.03515625,0.02978515625,1.00341796875,-0.18310546875,-0.67138671875,-0.3662109375,0.0,0.0,0.0,0.016242800280451775,0.016276443377137184,-0.09419563412666321,0.995288074016571
2.8551645278930664,-1.6689080585947793,2.0055742726436434,10.78741806755784,-0.03466796875,0.02880859375,1.0029296875,-0.18310546875,-0.3662109375,-0.18310546875,0.0,0.0,0.0,0.016141656786203384,0.016052965074777603,-0.09422837942838669,0.9952903389930725
2.8754608631134033,-1.712209110055133,1.9952229075130774,10.788136944967984,-0.03515625,0.02978515625,1.00341796875,-0.1220703125,-0.48828125,-0.1220703125,0.0,0.0,0.0,0.01650938391685486,0.01592734269797802,-0.0942394882440567,0.9952852725982666
2.8954243659973145,-1.606951732798711,1.9936701066939573,10.7957978558958,-0.03466796875,0.02880859375,1.001953125,0.0,-0.67138671875,-0.06103515625,0.0,0.0,0.0,0.015594963915646076,0.01599936932325363,-0.09429120272397995,0.995293915271759
2.9153945446014404,-1.671294142492641,1.9029940093767488,10.797861426798791,-0.033203125,0.02978515625,1.00146484375,0.0,-0.9765625,-0.30517578125,0.0,0.0,0.0,0.01607985980808735,0.015158523805439472,-0.09430786222219467,0.9952978491783142
2.935464382171631,-1.6657801521200308,1.9276433083176787,10.802056016722824,-0.03369140625,0.02978515625,1.00341796875,-0.18310546875,-0.732421875,-0.244140625,0.0,0.0,0.0,0.016052711755037308,0.015376576222479343,-0.09434633702039719,0.9952912926673889
2.9551212787628174,-1.7037531224192457,1.9565687325658596,10.8032572762431,-0.03369140625,0.02978515625,1.0009765625,-0.1220703125,-0.42724609375,-0.06103515625,0.0,0.0,0.0,0.016406381502747536,0.015596384182572365,-0.094365194439888,0.9952803254127502
2.975163221359253,-1.6184241027268054,2.0005944244084692,10.810775606971992,-0.03466796875,0.0283203125,1.00048828125,-0.1220703125,-0.42724609375,-0.1220703125,0.0,0.0,0.0,0.015702374279499054,0.016048023477196693,-0.09442363679409027,0.9952788949012756
2.99544095993042,-1.5293302614195128,2.0675247287458935,10.817512734814564,-0.03564453125,0.02685546875,1.00048828125,-0.1220703125,-0.8544921875,-0.06103515625,0.0,0.0,0.0,0.014984400942921638,0.016701899468898773,-0.09447642415761948,0.9952742457389832
3.0164265632629395,-1.7507858050439535,1.915098385246481,10.813000541094123,-0.03369140625,0.0302734375,1.0029296875,0.0,-0.79345703125,-0.06103515625,0.0,0.0,0.0,0.016782207414507866,0.015196017920970917,-0.09445128589868546,0.9952720403671265
3.0354201793670654,-1.6947119796705585,1.9622121763675826,10.817814970685337,-0.0341796875,0.02978515625,1.0009765625,-0.06103515625,-0.67138671875,-0.18310546875,0.0,0.0,0.0,0.016334468498826027,0.01565077342092991,-0.09449105709791183,0.9952685832977295
3.0555639266967773,-1.6418893243420898,1.994545224681365,10.822757466323488,-0.03515625,0.02880859375,1.00390625,-0.244140625,-0.6103515625,-0.18310546875,0.0,0.0,0.0,0.015902891755104065,0.015974480658769608,-0.09453032165765762,0.9952667951583862
3.0752625465393066,-1.6438851269619088,1.9172686778552523,10.82362660789537,-0.03369140625,0.02880859375,1.00390625,0.0,-0.6103515625,0.0,0.0,0.0,0.0,0.015856925398111343,0.015301506035029888,-0.09452959895133972,0.9952781796455383
3.095876455307007,-1.7439876323856751,1.9924780252403784,10.823959579617409,-0.0341796875,0.0302734375,1.0009765625,0.0,-0.54931640625,-0.06103515625,0.0,0.0,0.0,0.016788113862276077,0.01587211899459362,-0.09455470740795135,0.9952515959739685
3.1102914810180664,-1.69745376701379,1.9216120378371457,10.828780839397792,-0.03369140625,0.02978515625,1.00341796875,-0.06103515625,-0.8544921875,-0.244140625,0.0,0.0,0.0,0.01632644236087799,0.015294304117560387,-0.09458200633525848,0.9952657222747803
3.135331153869629,-1.6938340869188004,2.0795275055517215,10.83215922171601,-0.03662109375,0.02978515625,1.00341796875,-0.244140625,-0.54931640625,-0.1220703125,0.0,0.0,0.0,0.01642514020204544,0.01666840724647045,-0.09462887793779373,0.9952375888824463
3.155564785003662,-1.6575668496430906,1.9707089316950783,10.837754854193543,-0.03369140625,0.02880859375,1.00244140625,-0.30517578125,-0.6103515625,-0.30517578125,0.0,0.0,0.0,0.01602155901491642,0.015752416104078293,-0.09466011077165604,0.9952560663223267
3.1788909435272217,-1.7334905921267176,1.8987793557720278,10.838599236329685,-0.03369140625,0.02978515625,1.00244140625,-0.244140625,-0.54931640625,-0.1220703125,0.0,0.0,0.0,0.01662197895348072,0.015064817853271961,-0.094669409096241,0.9952560067176819
3.195115804672241,-1.6909023349392782,1.9289363485049267,10.842453170568865,-0.03369140625,0.029296875,1.0,0.0,-0.6103515625,-0.06103515625,0.0,0.0,0.0,0.016277387738227844,0.015361388213932514,-0.09470071643590927,0.9952542185783386
3.2107255458831787,-1.7570522901640286,2.0012059397825968,10.842912500790549,-0.03515625,0.03076171875,1.001953125,0.0,-0.9765625,-0.06103515625,0.0,0.0,0.0,0.016911379992961884,0.015934349969029427,-0.09472215920686722,0.9952325820922852
3.243680238723755,-1.6204269489792058,2.0132836352258834,10.850861133437151,-0.03515625,0.0283203125,1.00341796875,-0.06103515625,-0.67138671875,0.0,0.0,0.0,0.0,0.015735819935798645,0.016151081770658493,-0.09477344155311584,0.9952435493469238
3.2504680156707764,-1.7219486396464538,1.9819631624565555,10.848000991722207,-0.03466796875,0.0302734375,1.001953125,-0.18310546875,-0.42724609375,-0.1220703125,0.0,0.0,0.0,0.01659138686954975,0.015795493498444557,-0.09475924074649811,0.9952366352081299
3.270663022994995,-1.7058827540581145,1.951802968072483,10.851049817412973,-0.03369140625,0.0302734375,1.00146484375,0.0,-0.42724609375,0.0,0.0,0.0,0.0,0.016427461057901382,0.015546386130154133,-0.09478002786636353,0.9952412843704224
3.2954394817352295,-1.6676489559099699,1.9270729875219825,10.855461265843154,-0.0341796875,0.02880859375,1.001953125,0.06103515625,-0.732421875,0.0,0.0,0.0,0.0,0.01607563905417919,0.015362595207989216,-0.0948103740811348,0.9952470064163208
3.315286159515381,-1.7391321149377366,1.945042788341463,10.856384195154753,-0.0341796875,0.03076171875,1.00244140625,0.0,-0.9765625,-0.244140625,0.0,0.0,0.0,0.016711393371224403,0.015459390357136726,-0.09483006596565247,0.9952331781387329
3.3412225246429443,-1.6480392693594517,2.006079706642224,10.86549993637578,-0.03515625,0.02880859375,1.001953125,0.1220703125,-0.79345703125,0.0,0.0,0.0,0.0,0.01597176305949688,0.016063636168837547,-0.09490367770195007,0.9952287673950195
3.3553664684295654,-1.6691002643868917,1.9118952399691564,10.86512427597143,-0.03369140625,0.029296875,1.0029296875,-0.244140625,-0.30517578125,-0.06103515625,0.0,0.0,0.0,0.016077036038041115,0.015228211879730225,-0.09489278495311737,0.9952411651611328
3.380579948425293,-1.593434148101021,1.9655702815617015,10.869551946100891,-0.0341796875,0.0283203125,1.00341796875,-0.18310546875,-0.67138671875,0.0,0.0,0.0,0.0,0.01546469796448946,0.01575646735727787,-0.09492690116167068,0.9952393770217896
3.395261764526367,-1.7094681764855482,2.063946563394453,10.869161771544555,-0.03564453125,0.02978515625,1.00439453125,0.0,-0.79345703125,-0.1220703125,0.0,0.0,0.0,0.016553465276956558,0.016514824703335762,-0.09495073556900024,0.9952073097229004
3.415250062942505,-1.6418671262272873,1.9854179575161124,10.875987691846335,-0.03466796875,0.02880859375,1.00439453125,-0.18310546875,-0.9765625,-0.244140625,0.0,0.0,0.0,0.01590259000658989,0.01588783785700798,-0.09499163180589676,0.9952242374420166
3.433908700942993,-1.6934519164903972,1.970758450566561,10.879189343019778,-0.0341796875,0.029296875,1.00341796875,0.0,-0.79345703125,-0.18310546875,0.0,0.0,0.0,0.016338951885700226,0.015717292204499245,-0.09502489864826202,0.9952167272567749
3.4552829265594482,-1.6556895081166891,1.9249142208574355,10.882169013045196,-0.033203125,0.02880859375,1.001953125,-0.1220703125,-0.18310546875,-0.1220703125,0.0,0.0,0.0,0.015973569825291634,0.015350017696619034,-0.09504047781229019,0.9952269196510315
3.4884445667266846,-1.7313997004670474,1.9445345795785318,10.881820673397526,-0.0341796875,0.02978515625,1.0009765625,0.06103515625,-0.54931640625,0.0,0.0,0.0,0.0,0.016647249460220337,0.015457679517567158,-0.09504988044500351,0.9952133297920227
3.4945881366729736,-1.7579724447112763,1.9898987750550523,10.884345282069493,-0.03515625,0.0302734375,1.00146484375,0.0,-0.6103515625,-0.06103515625,0.0,0.0,0.0,0.016915803775191307,0.015829265117645264,-0.09508078545331955,0.9951999187469482
3.515442132949829,-1.6914832211838466,1.8960718260963525,10.889492683382743,-0.033203125,0.02978515625,1.0009765625,-0.18310546875,-0.91552734375,-0.18310546875,0.0,0.0,0.0,0.016261601820588112,0.015068783424794674,-0.09510558098554611,0.9952203035354614
3.535126209259033,-1.6837937088388817,1.9556686416992988,10.89274129210673,-0.0341796875,0.029296875,1.00244140625,-0.1220703125,-0.3662109375,-0.18310546875,0.0,0.0,0.0,0.016244469210505486,0.015592320822179317,-0.09513956308364868,0.995209276676178
3.556793689727783,-1.7268168569773805,1.894659897928864,10.896257131981994,-0.03369140625,0.0302734375,1.0029296875,-0.244140625,-0.48828125,-0.1220703125,0.0,0.0,0.0,0.016568191349506378,0.01502621453255415,-0.09516879916191101,0.9952099323272705
3.575622797012329,-1.672256131948555,1.9464393485833191,10.901802391814398,-0.0341796875,0.029296875,1.00244140625,0.0,-0.67138671875,-0.06103515625,0.0,0.0,0.0,0.016137871891260147,0.015520465560257435,-0.09521564096212387,0.9952048659324646
3.595154285430908,-1.7946390346100203,1.9247473081095932,10.900700170037087,-0.0341796875,0.03076171875,1.00048828125,0.0,-0.9765625,-0.18310546875,0.0,0.0,0.0,0.017182661220431328,0.015230533666908741,-0.09521994739770889,0.9951914548873901
3.6151678562164307,-1.754559271116974,1.9188189173534338,10.905112472240916,-0.03369140625,0.03076171875,1.00244140625,-0.244140625,-0.91552734375,-0.1220703125,0.0,0.0,0.0,0.016830263659358025,0.015211701393127441,-0.09525223076343536,0.995194673538208
3.6314332485198975,-1.6653060943029496,1.9591439273263658,10.909827010315517,-0.0341796875,0.029296875,1.00244140625,-0.1220703125,-0.67138671875,-0.18310546875,0.0,0.0,0.0,0.01608910970389843,0.015635455027222633,-0.0952858254313469,0.995197057723999
3.655324697494507,-1.7800579681142183,1.9511348901942913,10.909509406519112,-0.0341796875,0.03076171875,1.00048828125,-0.244140625,-0.54931640625,-0.18310546875,0.0,0.0,0.0,0.017079023644328117,0.015470516867935658,-0.09529770910739899,0.9951820373535156
3.675631284713745,-1.688088297001233,1.9936357423046955,10.916402774938947,-0.03466796875,0.02978515625,1.0029296875,0.0,-0.42724609375,0.0,0.0,0.0,0.0,0.016316408291459084,0.01591513864696026,-0.09534995257854462,0.9951828718185425
3.6951372623443604,-1.6399528589906855,1.9857598938614363,10.92077068091317,-0.03466796875,0.02880859375,1.0029296875,-0.06103515625,-0.732421875,-0.1220703125,0.0,0.0,0.0,0.015892455354332924,0.015886181965470314,-0.09538032114505768,0.9951873421669006
3.7155420780181885,-1.658680383921214,1.9287372058019385,10.923493365071065,-0.0341796875,0.029296875,1.00341796875,0.06103515625,-0.9765625,-0.1220703125,0.0,0.0,0.0,0.016008244827389717,0.015374966897070408,-0.09540020674467087,0.9951915740966797
3.730602741241455,-1.5723660027192936,1.9914729202153287,10.929163275855823,-0.03466796875,0.02783203125,1.0009765625,-0.18310546875,-0.6103515625,-0.244140625,0.0,0.0,0.0,0.015311386436223984,0.015990931540727615,-0.09544441848993301,0.9951886534690857
3.7553000450134277,-1.6733514168149901,1.956863924804051,10.929837757036362,-0.0341796875,0.029296875,1.00244140625,-0.30517578125,-0.30517578125,-0.18310546875,0.0,0.0,0.0,0.016159819439053535,0.015606142580509186,-0.095460444688797,0.9951797127723694
3.7751874923706055,-1.670882943760265,1.9412227916047218,10.933730964863269,-0.03369140625,0.029296875,1.00390625,0.06103515625,-0.54931640625,-0.06103515625,0.0,0.0,0.0,0.01612594537436962,0.0154718067497015,-0.0954921618103981,0.995179295539856
3.795201301574707,-1.586883889965273,2.0061381901369923,10.939911432288485,-0.03515625,0.02783203125,1.00341796875,-0.06103515625,-0.79345703125,-0.18310546875,0.0,0.0,0.0,0.01545113604515791,0.016104761511087418,-0.0955413430929184,0.9951752424240112
3.815558910369873,-1.6212075115352913,2.0945720644157326,10.941103300298652,-0.03662109375,0.0283203125,1.0009765625,-0.06103515625,-0.91552734375,-0.1220703125,0.0,0.0,0.0,0.015822743996977806,0.0168440118432045,-0.09556607156991959,0.995154857635498
3.835566282272339,-1.7031486506776996,2.025429205674047,10.942275531514955,-0.03564453125,0.02978515625,1.00146484375,-0.18310546875,-0.6103515625,-0.30517578125,0.0,0.0,0.0,0.01647716574370861,0.016175013035535812,-0.09558036923408508,0.9951539635658264
3.851644277572632,-1.6205636594843118,1.879202752950302,10.949758003750704,-0.033203125,0.0283203125,1.001953125,-0.18310546875,-0.54931640625,-0.244140625,0.0,0.0,0.0,0.015639612451195717,0.014972902834415436,-0.09561778604984283,0.9951826930046082
3.8754475116729736,-1.6145859633000812,1.9508525045607936,10.95210246618331,-0.03369140625,0.0283203125,1.00244140625,0.0,-0.48828125,-0.06103515625,0.0,0.0,0.0,0.015647511929273605,0.015599844045937061,-0.09564514458179474,0.9951702952384949
3.8904645442962646,-1.7124092132534732,1.982379377109103,10.95307064549816,-0.03466796875,0.0302734375,1.00341796875,0.1220703125,-0.732421875,-0.18310546875,0.0,0.0,0.0,0.016523363068699837,0.01579185388982296,-0.09567046165466309,0.9951506853103638
3.915412664413452,-1.5827134191467456,2.0242014791707374,10.96057104698048,-0.03564453125,0.02734375,1.00341796875,0.0,-0.79345703125,-0.18310546875,0.0,0.0,0.0,0.015432832762598991,0.01626233570277691,-0.09572207927703857,0.9951555728912354
3.935622215270996,-1.6146878825291024,1.9269807799681875,10.962590221653866,-0.03369140625,0.0283203125,1.00244140625,-0.1220703125,-0.54931640625,-0.244140625,0.0,0.0,0.0,0.015629980713129044,0.015391005203127861,-0.0957336500287056,0.9951652884483337
3.9558374881744385,-1.6398342911755623,1.9656498959542146,10.964834792569862,-0.0341796875,0.02880859375,1.0009765625,-0.18310546875,-0.30517578125,-0.18310546875,0.0,0.0,0.0,0.01588081568479538,0.015705522149801254,-0.0957607850432396,0.9951537847518921
3.975166082382202,-1.64061858899135,1.9839870328849947,10.967611264467472,-0.03515625,0.02880859375,1.00146484375,-0.1220703125,-0.54931640625,-0.06103515625,0.0,0.0,0.0,0.015903256833553314,0.015863733366131783,-0.09578701853752136,0.9951483607292175
3.9953460693359375,-1.643191649317741,1.9430652351333328,10.971418241156107,-0.0341796875,0.02880859375,1.00244140625,-0.06103515625,-0.8544921875,-0.18310546875,0.0,0.0,0.0,0.015892086550593376,0.015505659393966198,-0.09581592679023743,0.9951514005661011
4.015725612640381,-1.7989196422289142,1.9180567109307427,10.968360023955233,-0.033203125,0.03125,1.00341796875,-0.06103515625,-0.91552734375,-0.18310546875,0.0,0.0,0.0,0.017223257571458817,0.015158701688051224,-0.0958072766661644,0.9951355457305908
4.0355918407440186,-1.710836455475372,1.938414303195377,10.974761618754828,-0.0341796875,0.0302734375,1.0029296875,-0.1220703125,-0.48828125,-0.244140625,0.0,0.0,0.0,0.016476113349199295,0.015408221632242203,-0.09585355222225189,0.9951398372650146
4.055370569229126,-1.7293078483120252,1.9801298969946417,10.976586986810513,-0.03466796875,0.02978515625,1.00390625,-0.06103515625,-0.42724609375,-0.1220703125,0.0,0.0,0.0,0.01667148247361183,0.015754787251353264,-0.09587676078081131,0.9951289296150208
4.075350046157837,-1.6938966258383883,1.9638221800210014,10.98244643534474,-0.03466796875,0.029296875,1.00341796875,0.30517578125,-0.732421875,-0.18310546875,0.0,0.0,0.0,0.01635119505226612,0.01564195565879345,-0.09592091292142868,0.9951317310333252
4.096116542816162,-1.4947404759152756,1.9698598538038812,10.992394605870862,-0.03466796875,0.0263671875,1.0009765625,0.06103515625,-0.732421875,0.0,0.0,0.0,0.0,0.014628073200583458,0.015859803184866905,-0.09598056972026825,0.9951493144035339
4.115999937057495,-1.6811772127782378,1.9740943576458776,10.988768629195231,-0.03515625,0.0302734375,1.00146484375,0.06103515625,-0.79345703125,0.0,0.0,0.0,0.0,0.016250157728791237,0.015740912407636642,-0.09597522765398026,0.9951266646385193
4.135417222976685,-1.7374024762521365,2.0019527782796556,10.983632326939382,-0.03515625,0.0302734375,1.0029296875,-0.244140625,-0.54931640625,0.06103515625,0.0,0.0,0.0,0.016760917380452156,0.015936506912112236,-0.09594161063432693,0.9951183199882507
4.156338453292847,-1.7190219035871035,1.8145142447645228,10.982272265520903,-0.03076171875,0.03076171875,1.00390625,-0.244140625,0.30517578125,-0.18310546875,0.0,0.0,0.0,0.01644502952694893,0.014324258081614971,-0.09590541571378708,0.9951516389846802
4.170331954956055,-1.6405051438181044,1.8500457426005754,10.999857441312749,-0.0341796875,0.02880859375,1.00048828125,-0.06103515625,-0.42724609375,-0.8544921875,0.0,0.0,0.0,0.015795012935996056,0.014696130529046059,-0.09605225175619125,0.99514240026474
4.196042060852051,-1.717180100388727,2.042090171493824,11.011174210993813,-0.0400390625,0.03076171875,1.001953125,0.18310546875,-0.8544921875,-0.79345703125,0.0,0.0,0.0,0.016622642055153847,0.016298016533255577,-0.09618259966373444,0.9950914978981018
4.2152769565582275,-1.6627265239525062,2.024493683201167,11.023022881656493,-0.03369140625,0.02880859375,1.0029296875,-0.06103515625,-0.9765625,-0.42724609375,0.0,0.0,0.0,0.016136761754751205,0.01618923805654049,-0.09627579152584076,0.9950921535491943
4.236103773117065,-1.6409540153126212,1.7411496887855349,11.025326362954079,-0.029296875,0.0283203125,1.0009765625,-0.06103515625,-0.67138671875,0.0,0.0,0.0,0.0,0.015711115673184395,0.013746530748903751,-0.09626135975122452,0.9951372742652893
4.255286931991577,-1.6350470756193238,1.7704372197814322,11.02713465553684,-0.03173828125,0.029296875,1.00390625,0.0,-0.3662109375,-0.30517578125,0.0,0.0,0.0,0.01568453200161457,0.014005595818161964,-0.09627961367368698,0.9951322674751282
4.276078224182129,-1.6460822067188314,1.9681441956617387,11.034926193832533,-0.041015625,0.02783203125,1.001953125,0.3662109375,-0.732421875,-0.244140625,0.0,0.0,0.0,0.0159467626363039,0.015712210908532143,-0.09637059271335602,0.9950937032699585
4.291126012802124,-1.618311938214029,2.162438744999683,11.04033399610789,-0.0380859375,0.0283203125,1.00341796875,-0.06103515625,-0.9765625,-0.1220703125,0.0,0.0,0.0,0.015868982300162315,0.01742209680378437,-0.09643461555242538,0.995060384273529
4.31615948677063,-1.5818667958547814,1.8806023013999198,11.048676218405413,-0.02978515625,0.02734375,1.00439453125,0.0,-0.79345703125,-0.42724609375,0.0,0.0,0.0,0.015317662619054317,0.015004128217697144,-0.09647190570831299,0.9951048493385315
4.335284471511841,-1.6265455178150678,1.915627724907157,11.050440968532216,-0.0361328125,0.02880859375,1.00146484375,-0.244140625,-0.42724609375,-0.1220703125,0.0,0.0,0.0,0.015735231339931488,0.015270440839231014,-0.09649690240621567,0.9950917959213257
4.352080821990967,-1.723019058355442,2.1290205503815147,11.049454859970796,-0.03759765625,0.03076171875,1.00244140625,-0.18310546875,-0.67138671875,-0.1220703125,0.0,0.0,0.0,0.016751598566770554,0.01704244129359722,-0.09652586281299591,0.9950435757637024
4.376716613769531,-1.7725749622699405,1.9701753231661712,11.050834558183137,-0.0341796875,0.03125,1.0048828125,0.0,-0.732421875,-0.18310546875,0.0,0.0,0.0,0.017049061134457588,0.015621091239154339,-0.09652625769376755,0.9950618743896484
4.39551568031311,-1.7254443091193252,1.9896770073504384,11.057996011527896,-0.03466796875,0.0302734375,1.0009765625,0.06103515625,-0.8544921875,-0.244140625,0.0,0.0,0.0,0.01665712706744671,0.01582910493016243,-0.09658428281545639,0.9950594902038574
4.415262699127197,-1.7610564885649487,2.0083364438326785,11.059444865405585,-0.03515625,0.03076171875,0.9990234375,-0.1220703125,-0.79345703125,-0.18310546875,0.0,0.0,0.0,0.01698220707476139,0.01596090942621231,-0.09660398960113525,0.9950500726699829
4.435184717178345,-1.7502419512312912,1.9983304301420215,11.061390615545392,-0.03515625,0.03076171875,1.00390625,-0.244140625,-0.67138671875,0.0,0.0,0.0,0.0,0.016880180686712265,0.01588284969329834,-0.09661819785833359,0.9950516819953918
4.455926895141602,-1.6977044563006705,1.9441458991260756,11.066581559314603,-0.0341796875,0.02978515625,1.00439453125,-0.18310546875,-0.42724609375,-0.1220703125,0.0,0.0,0.0,0.016379229724407196,0.015455863438546658,-0.09664979577064514,0.9950637221336365
4.4758899211883545,-1.7095488580951188,1.996628859265042,11.068516210397009,-0.03466796875,0.02978515625,1.0,-0.1220703125,-0.42724609375,-0.1220703125,0.0,0.0,0.0,0.01652638427913189,0.01590135507285595,-0.09667422622442245,0.9950518608093262
4.495228290557861,-1.6616247290620185,2.005872666533008,11.073559451325416,-0.03515625,0.02880859375,1.0,0.0,-0.9765625,-0.18310546875,0.0,0.0,0.0,0.016118697822093964,0.016021346673369408,-0.0967123955488205,0.9950528740882874
4.510833501815796,-1.636517807446698,1.969117711061877,11.076449475117979,-0.0341796875,0.02880859375,1.0029296875,-0.1220703125,-0.732421875,-0.18310546875,0.0,0.0,0.0,0.015870219096541405,0.015722958371043205,-0.09672996401786804,0.9950599074363708
4.535334348678589,-1.7140544350698002,1.9415401819577158,11.076946371380096,-0.0341796875,0.0302734375,1.00244140625,0.0,-0.732421875,-0.30517578125,0.0,0.0,0.0,0.016520414501428604,0.015417949296534061,-0.0967416986823082,0.9950530529022217
4.556781530380249,-1.6809344208975852,1.9636936870872406,11.081201579233015,-0.0341796875,0.02880859375,1.00048828125,-0.1220703125,-0.42724609375,0.0,0.0,0.0,0.0,0.016252003610134125,0.015637686476111412,-0.09677669405937195,0.9950506091117859
4.575563669204712,-1.4755672811414036,1.8933837197711294,11.090605895946476,-0.033203125,0.02587890625,1.00146484375,-0.1220703125,-0.42724609375,-0.1220703125,0.0,0.0,0.0,0.0144108347594738,0.01519933994859457,-0.0968233123421669,0.9950812458992004
4.590104818344116,-1.6440211971367802,1.9690144044506805,11.088018961798333,-0.03515625,0.029296875,1.00390625,0.0,-0.8544921875,-0.06103515625,0.0,0.0,0.0,0.015936873853206635,0.015714116394519806,-0.09683143347501755,0.9950491786003113
4.615311622619629,-1.6411970206366857,2.050550214554531,11.09093289125299,-0.0361328125,0.029296875,1.00146484375,-0.06103515625,-0.9765625,-0.18310546875,0.0,0.0,0.0,0.015981314703822136,0.016424138098955154,-0.09686528891324997,0.9950336813926697
4.635795831680298,-1.668472634035191,2.0410532634004515,11.093241495192455,-0.0361328125,0.029296875,1.001953125,-0.1220703125,-0.3662109375,-0.244140625,0.0,0.0,0.0,0.01621050015091896,0.016318287700414658,-0.09688818454742432,0.9950295090675354
4.655636787414551,-1.6792448028516531,2.0724115156536262,11.084597037024157,-0.0361328125,0.029296875,1.00146484375,-0.48828125,0.3662109375,0.6103515625,0.0,0.0,0.0,0.01632915809750557,0.01658271625638008,-0.09681817144155502,0.9950299859046936
4.67618727684021,-1.7446383146258246,1.8918268635271895,11.082668362357275,-0.02880859375,0.03271484375,1.00439453125,-0.06103515625,1.28173828125,-0.79345703125,0.0,0.0,0.0,0.016744984313845634,0.014959588646888733,-0.09678962826728821,0.9950516223907471
4.690232276916504,-1.8329410279281593,1.7244950195463993,11.153315570263656,-0.01806640625,0.03857421875,0.99609375,0.06103515625,1.5869140625,-5.615234375,0.0,0.0,0.0,0.017379427328705788,0.013421197421848774,-0.09739355742931366,0.9950037002563477
4.712306976318359,-1.925767994503687,1.922106159334914,11.295085537997378,-0.07275390625,0.03271484375,0.9873046875,-1.52587890625,1.89208984375,-4.8828125,0.0,0.0,0.0,0.018371134996414185,0.015035485848784447,-0.09866143763065338,0.9948378801345825
4.735440254211426,-1.8808341009448772,2.113410366476862,11.361095901230968,-0.06103515625,0.0283203125,0.99609375,-1.3427734375,2.0751953125,-4.57763671875,0.0,0.0,0.0,0.018154432997107506,0.01672462560236454,-0.09925294667482376,0.9947560429573059
4.7553017139434814,-1.8259385899250153,2.037174783168942,11.486376084760987,-0.0068359375,0.0341796875,1.01171875,-0.3662109375,1.8310546875,-7.01904296875,0.0,0.0,0.0,0.017629850655794144,0.016091065481305122,-0.10032307356595993,0.9946686029434204
4.775275230407715,-1.742432483689028,1.954164932864838,11.609322904915802,-0.03662109375,0.0263671875,0.99853515625,-1.52587890625,2.01416015625,-5.31005859375,0.0,0.0,0.0,0.016849283128976822,0.015425510704517365,-0.10136879980564117,0.9945866465568542
4.795273780822754,-1.6053468517871696,2.1737324627922994,11.688787887040668,-0.04736328125,0.02197265625,1.00830078125,-1.52587890625,0.6103515625,-3.11279296875,0.0,0.0,0.0,0.01586480438709259,0.017441585659980774,-0.1020631492137909,0.9944985508918762
4.815841436386108,-1.4041947925225322,2.1612012000994416,11.722647696077361,-0.0322265625,0.0166015625,1.01513671875,-0.06103515625,-0.3662109375,-0.3662109375,0.0,0.0,0.0,0.01411312073469162,0.01750778593122959,-0.10232511162757874,0.9944968819618225
4.8353588581085205,-1.312574741717687,1.9806989371298682,11.70889511018354,-0.02685546875,0.02197265625,1.0009765625,0.244140625,-0.18310546875,1.28173828125,0.0,0.0,0.0,0.013155561871826649,0.016024557873606682,-0.10217668861150742,0.9945501685142517
4.855117321014404,-1.4725971093478,1.87374927378487,11.688406250220794,-0.03271484375,0.03466796875,0.9970703125,0.1220703125,0.30517578125,0.42724609375,0.0,0.0,0.0,0.014446744695305824,0.014956180937588215,-0.1020108088850975,0.9945659637451172
4.87035346031189,-1.602293223619645,2.0298583699073887,11.69064399094762,-0.0546875,0.03515625,0.99853515625,-0.42724609375,-0.244140625,-0.3662109375,0.0,0.0,0.0,0.015711072832345963,0.01619533821940422,-0.10206367820501328,0.994521975517273
4.8959455490112305,-1.5939452383500086,2.2298450281448927,11.696438552684729,-0.0556640625,0.0244140625,1.00341796875,-0.48828125,-1.15966796875,-0.18310546875,0.0,0.0,0.0,0.015816768631339073,0.017937691882252693,-0.1021336168050766,0.994483232498169
4.918547868728638,-1.4329476477724645,2.210753582197649,11.701409222853206,-0.03173828125,0.01904296875,1.00830078125,0.3662109375,-0.91552734375,0.1220703125,0.0,0.0,0.0,0.014403382316231728,0.017914844676852226,-0.10214971005916595,0.9945034980773926
4.936240196228027,-1.3590824602716558,2.001577331318716,11.704144713615797,-0.0283203125,0.02197265625,0.99755859375,-0.06103515625,-0.3662109375,-0.06103515625,0.0,0.0,0.0,0.013577078469097614,0.016164859756827354,-0.1021437868475914,0.9945456385612488
4.955301523208618,-1.3868449380919363,2.0930004805763947,11.708831930933718,-0.04345703125,0.02490234375,1.0,0.06103515625,-0.54931640625,-0.18310546875,0.0,0.0,0.0,0.013899875804781914,0.016933035105466843,-0.10219650715589523,0.9945230484008789
4.9754602909088135,-1.3382130307060933,2.2637927758671488,11.699077567025293,-0.05322265625,0.0166015625,1.00439453125,-0.06103515625,-1.953125,1.46484375,0.0,0.0,0.0,0.013627895154058933,0.018459901213645935,-0.1021190881729126,0.9945076107978821
4.995368003845215,-1.2074049829817115,2.200738390440295,11.665444008004858,-0.02587890625,0.0205078125,1.0068359375,0.42724609375,-1.64794921875,2.13623046875,0.0,0.0,0.0,0.012431394308805466,0.018032843247056007,-0.10180136561393738,0.9945636987686157
5.0106282234191895,-1.3282391402488765,2.0627164890136163,11.636553161589351,-0.04150390625,0.02734375,0.99462890625,0.06103515625,-2.86865234375,2.3193359375,0.0,0.0,0.0,0.013353800401091576,0.016730884090065956,-0.10155797004699707,0.9945992827415466
5.030539512634277,-1.2712721609197968,2.212186000932648,11.539849635773017,-0.05859375,0.01123046875,1.00439453125,0.0,-2.8076171875,6.34765625,0.0,0.0,0.0,0.012976018711924553,0.018089693039655685,-0.10072219371795654,0.9946655631065369
5.055394411087036,-1.1934903935385146,2.0659204880645867,11.418689763859808,-0.009765625,0.02392578125,1.00830078125,0.42724609375,-2.197265625,5.4931640625,0.0,0.0,0.0,0.012154953554272652,0.01690124161541462,-0.09964730590581894,0.994805097579956
5.075990915298462,-1.295649639676101,1.8557589823978795,11.325034209960592,-0.0234375,0.03271484375,1.0,0.30517578125,-0.54931640625,4.150390625,0.0,0.0,0.0,0.01284751109778881,0.014998347498476505,-0.09883170574903488,0.9949082732200623
5.095442295074463,-1.4110982995044168,2.010488807194879,11.266140903842157,-0.05712890625,0.03173828125,0.99755859375,-0.18310546875,-0.54931640625,1.77001953125,0.0,0.0,0.0,0.013974427245557308,0.01624937169253826,-0.09834975749254227,0.9949211478233337
5.11035418510437,-1.4759443289279295,2.2002942147008326,11.265103568861962,-0.06298828125,0.0341796875,1.00439453125,-0.18310546875,-0.9765625,-0.8544921875,0.0,0.0,0.0,0.014699431136250496,0.01784183457493782,-0.09836816787719727,0.9948815703392029
5.13594388961792,-1.6066471490504108,2.3875769345255247,11.291700325489991,-0.044921875,0.03271484375,1.00244140625,0.244140625,-1.953125,-1.03759765625,0.0,0.0,0.0,0.01599857583642006,0.019351931288838387,-0.09863893687725067,0.9948065280914307
5.15536642074585,-1.692293665817551,2.2460927675198836,11.293810853943524,-0.02490234375,0.0341796875,1.00146484375,-0.06103515625,-0.48828125,-0.1220703125,0.0,0.0,0.0,0.016621368005871773,0.01804955303668976,-0.09865601360797882,0.9948190450668335
5.1762166023254395,-1.7298152033013103,2.025338492224133,11.28803336767934,-0.015625,0.03369140625,1.00341796875,0.0,0.06103515625,0.42724609375,0.0,0.0,0.0,0.016757329925894737,0.016101496294140816,-0.09858635067939758,0.9948571920394897
5.195573091506958,-1.8029669561989699,1.9236478610966328,11.283722664539416,-0.03759765625,0.033203125,1.00439453125,-0.06103515625,-0.6103515625,0.0,0.0,0.0,0.0,0.017304830253124237,0.015156308189034462,-0.09854679554700851,0.9948666095733643
5.210299730300903,-1.813112134993966,2.126655170494575,11.286622933615734,-0.056640625,0.03173828125,1.001953125,-0.30517578125,-0.9765625,-0.30517578125,0.0,0.0,0.0,0.01756696216762066,0.016909683123230934,-0.09859813749790192,0.9948285818099976
5.23296594619751,-1.7688882609437202,2.307707690579157,11.293589726569145,-0.0419921875,0.02978515625,1.00244140625,-0.18310546875,-0.91552734375,-0.244140625,0.0,0.0,0.0,0.017339006066322327,0.018518568947911263,-0.09867335110902786,0.9947964549064636
5.254831790924072,-1.683079633905498,2.097801036345856,11.300386618566955,-0.02490234375,0.025390625,1.00244140625,-0.06103515625,-0.30517578125,-0.1220703125,0.0,0.0,0.0,0.016415398567914963,0.01676906831562519,-0.09869515150785446,0.9948410391807556
5.275426626205444,-1.6204289766916156,1.8856760647361814,11.304436920744772,-0.03076171875,0.02734375,1.00439453125,-0.06103515625,-0.244140625,-0.06103515625,0.0,0.0,0.0,0.015690261498093605,0.014980742707848549,-0.09869825839996338,0.9948809742927551
5.295243740081787,-1.5406754190743155,2.072375016830249,11.308581138023678,-0.0458984375,0.02392578125,1.001953125,-0.1220703125,-0.732421875,-0.06103515625,0.0,0.0,0.0,0.015158492140471935,0.0166698656976223,-0.09874281287193298,0.994857907295227
5.315325021743774,-1.4618061575111203,2.2581542412638917,11.314648907327587,-0.04345703125,0.02392578125,1.0009765625,-0.1220703125,-1.03759765625,-0.18310546875,0.0,0.0,0.0,0.01463403832167387,0.018350008875131607,-0.09880155324935913,0.9948303699493408
5.330613136291504,-1.4339974691922366,2.118717636905374,11.319739959580186,-0.03173828125,0.02587890625,1.00341796875,-0.1220703125,-0.54931640625,-0.244140625,0.0,0.0,0.0,0.014273745939135551,0.017162751406431198,-0.09882842749357224,0.9948541522026062
5.355552434921265,-1.4247364797296398,1.8921009248676364,11.32306711547963,-0.0302734375,0.0244140625,1.0029296875,0.0,-0.30517578125,-0.06103515625,0.0,0.0,0.0,0.01399922277778387,0.015202781185507774,-0.09883487969636917,0.9948892593383789
5.3754754066467285,-1.4105550860219893,1.9934500465366358,11.325869200586625,-0.0390625,0.025390625,1.001953125,-0.1220703125,-0.6103515625,-0.06103515625,0.0,0.0,0.0,0.013963541015982628,0.016094617545604706,-0.09886667132377625,0.9948726296424866
5.390326261520386,-1.5024089640842018,2.172890215090272,11.327096927089936,-0.041015625,0.0283203125,1.00341796875,0.06103515625,-1.03759765625,-0.244140625,0.0,0.0,0.0,0.014915297739207745,0.017573118209838867,-0.09890781342983246,0.9948297142982483
5.416148900985718,-1.6659149416344328,2.1210070309377973,11.323910643842126,-0.0361328125,0.02978515625,1.0029296875,-0.18310546875,-0.79345703125,-0.18310546875,0.0,0.0,0.0,0.01628974638879299,0.016981985419988632,-0.09889943152666092,0.994819164276123
5.435570478439331,-1.6697856311814203,1.9009797439018299,11.326494162895683,-0.03369140625,0.029296875,1.0009765625,-0.1220703125,-0.48828125,-0.244140625,0.0,0.0,0.0,0.01613479107618332,0.015067996457219124,-0.09889791905879974,0.9948527216911316
5.455421209335327,-1.689398946269935,2.0825007722747926,11.328469795113108,-0.03759765625,0.0302734375,0.99951171875,-0.1220703125,-0.30517578125,-0.06103515625,0.0,0.0,0.0,0.01646122895181179,0.01662675477564335,-0.09893816709518433,0.9948185682296753
5.475527048110962,-1.719242390631248,2.169577146455993,11.331116493416488,-0.03857421875,0.0302734375,1.00341796875,-0.1220703125,-0.54931640625,-0.06103515625,0.0,0.0,0.0,0.016795480623841286,0.01735657826066017,-0.09897541254758835,0.9947967529296875
5.49559211730957,-1.6808208690026336,2.1574533472358084,11.335772974883145,-0.037109375,0.029296875,1.00048828125,0.0,-0.8544921875,-0.06103515625,0.0,0.0,0.0,0.016452224925160408,0.017283840104937553,-0.09900867938995361,0.9948003888130188
5.515443801879883,-1.6218357822172267,2.0552545073453774,11.341792079089219,-0.03564453125,0.0283203125,1.0009765625,-0.06103515625,-0.91552734375,-0.30517578125,0.0,0.0,0.0,0.015853192657232285,0.016446691006422043,-0.09904107451438904,0.9948211908340454
5.534900903701782,-1.5745259433226044,2.192328293137894,11.347158900229555,-0.0380859375,0.02734375,1.0009765625,-0.1220703125,-1.0986328125,-0.30517578125,0.0,0.0,0.0,0.015561169013381004,0.017676904797554016,-0.09909503161907196,0.9947992563247681
5.55539083480835,-1.6240815270719857,2.10561882818117,11.346363183191249,-0.03662109375,0.0283203125,1.00146484375,-0.244140625,-0.3662109375,-0.1220703125,0.0,0.0,0.0,0.015916667878627777,0.016881370916962624,-0.09908648580312729,0.9948083758354187
5.575499057769775,-1.5097816196847016,2.1189125107401305,11.353657825224824,-0.037109375,0.0263671875,1.001953125,0.1220703125,-0.54931640625,-0.06103515625,0.0,0.0,0.0,0.014936910010874271,0.017094658687710762,-0.09913424402475357,0.9948151111602783
5.597340106964111,-1.5424440111825257,2.1801878453316075,11.356832155641587,-0.0380859375,0.02734375,1.00146484375,0.06103515625,-0.6103515625,-0.06103515625,0.0,0.0,0.0,0.015273697674274445,0.017597956582903862,-0.09917283803224564,0.9947973489761353
5.615402698516846,-1.634217421078579,2.038393118162143,11.356396731081999,-0.0361328125,0.0283203125,1.00244140625,-0.06103515625,-0.9765625,-0.244140625,0.0,0.0,0.0,0.015948260203003883,0.01628756895661354,-0.09916780889034271,0.9948096871376038
5.636473655700684,-1.5414338902373041,2.1409859745903193,11.362927245702176,-0.03759765625,0.02734375,1.001953125,-0.1220703125,-0.54931640625,-0.18310546875,0.0,0.0,0.0,0.015232090838253498,0.017257679253816605,-0.09922164678573608,0.9947991967201233
5.65533709526062,-1.5657196950483423,2.0397375982115777,11.36517693926005,-0.03564453125,0.02783203125,1.00341796875,-0.06103515625,-0.42724609375,-0.06103515625,0.0,0.0,0.0,0.015356016345322132,0.016357339918613434,-0.09923441708087921,0.9948111772537231
5.675309658050537,-1.667533162859197,2.0498486260607236,11.365907769501241,-0.03662109375,0.029296875,1.00048828125,0.0,-0.732421875,-0.06103515625,0.0,0.0,0.0,0.016248706728219986,0.01635684072971344,-0.09925639629364014,0.9947947263717651
5.696642160415649,-1.6544704260715475,2.1409390170397757,11.37037471321843,-0.03759765625,0.02880859375,1.00048828125,0.0,-0.8544921875,-0.18310546875,0.0,0.0,0.0,0.016214460134506226,0.01715833693742752,-0.09930327534675598,0.9947771430015564
5.715174198150635,-1.602841132857127,2.215903971718662,11.37538551074828,-0.03857421875,0.0283203125,1.00048828125,-0.06103515625,-0.91552734375,-0.30517578125,0.0,0.0,0.0,0.015831656754016876,0.01785319298505783,-0.09934690594673157,0.9947667121887207
5.736750841140747,-1.5822374403389603,2.135335060269192,11.37894318553221,-0.03759765625,0.02783203125,1.00146484375,-0.18310546875,-0.91552734375,-0.18310546875,0.0,0.0,0.0,0.01558385044336319,0.017171112820506096,-0.09936625510454178,0.9947807192802429
5.755436420440674,-1.5794909572406748,2.1656098737652734,11.379606567655348,-0.037109375,0.02783203125,1.00341796875,0.0,-0.30517578125,-0.06103515625,0.0,0.0,0.0,0.015586226247251034,0.017436236143112183,-0.09937472641468048,0.9947751760482788
5.775516033172607,-1.5910853100784772,2.0577138023334047,11.381577077230897,-0.0361328125,0.02783203125,1.00048828125,0.0,-0.6103515625,-0.06103515625,0.0,0.0,0.0,0.015594073571264744,0.01648920588195324,-0.09938230365514755,0.9947905540466309
5.795729637145996,-1.5642746831520615,2.1440362943849647,11.384972535022039,-0.03759765625,0.02734375,1.00146484375,-0.06103515625,-0.8544921875,-0.06103515625,0.0,0.0,0.0,0.015436327084898949,0.017261415719985962,-0.09941677749156952,0.9947764873504639
5.815399885177612,-1.5362984417551009,2.036211299609147,11.388391898475277,-0.03564453125,0.02685546875,1.00244140625,-0.18310546875,-0.91552734375,-0.1220703125,0.0,0.0,0.0,0.01510087214410305,0.016349144279956818,-0.09943140298128128,0.9947955012321472
5.835277318954468,-1.612232963131012,2.1309120858947854,11.388774389068798,-0.037109375,0.0283203125,1.00146484375,-0.06103515625,-0.42724609375,-0.18310546875,0.0,0.0,0.0,0.0158418957144022,0.0171053446829319,-0.09945560246706009,0.9947688579559326
5.855609178543091,-1.558145655589033,2.2119804549273128,11.393932035665804,-0.03857421875,0.02685546875,1.0029296875,-0.06103515625,-0.42724609375,-0.06103515625,0.0,0.0,0.0,0.015443159267306328,0.017855379730463028,-0.09950053691864014,0.9947575330734253
5.87548828125,-1.4833609538712114,2.1094031798681803,11.40069050784953,-0.037109375,0.02587890625,1.0048828125,-0.06103515625,-0.8544921875,-0.1220703125,0.0,0.0,0.0,0.014706346206367016,0.017028924077749252,-0.0995376855134964,0.9947793483734131
5.895279169082642,-1.6313009303029833,2.1253284062483,11.399111026603965,-0.037109375,0.02783203125,1.00244140625,-0.06103515625,-0.8544921875,-0.244140625,0.0,0.0,0.0,0.01600414142012596,0.017038876190781593,-0.09954758733510971,0.9947581887245178
5.9155895709991455,-1.5226800050454474,2.1139068358521578,11.40672668752853,-0.037109375,0.0263671875,1.00341796875,-0.244140625,-0.6103515625,-0.244140625,0.0,0.0,0.0,0.015052467584609985,0.01703307405114174,-0.09959638118743896,0.9947682023048401
5.9354188442230225,-1.615681888496751,2.058757327172536,11.40540589969778,-0.0361328125,0.0283203125,1.00341796875,-0.18310546875,-0.54931640625,-0.06103515625,0.0,0.0,0.0,0.015811927616596222,0.016473645344376564,-0.09959281980991364,0.9947662949562073
5.956219434738159,-1.5634894248409217,2.1376310710473736,11.410073480221836,-0.037109375,0.02783203125,1.0048828125,-0.18310546875,-0.3662109375,0.0,0.0,0.0,0.0,0.01542775146663189,0.017203113064169884,-0.09963391721248627,0.9947558045387268
5.975172758102417,-1.5584222782504185,2.148449663805851,11.412102900178976,-0.03759765625,0.02734375,1.0009765625,-0.06103515625,-0.3662109375,0.1220703125,0.0,0.0,0.0,0.01539342850446701,0.01730116456747055,-0.09965186566114426,0.9947528839111328
5.995350122451782,-1.5369982159799098,2.172367278731943,11.415650329679151,-0.0380859375,0.02685546875,1.00146484375,-0.06103515625,-0.91552734375,-0.06103515625,0.0,0.0,0.0,0.015228687785565853,0.017526960000395775,-0.09968183189630508,0.9947484135627747
6.015345096588135,-1.4868167094261204,2.184298125108074,11.42020179698732,-0.03857421875,0.0263671875,1.00341796875,-0.244140625,-0.91552734375,-0.18310546875,0.0,0.0,0.0,0.014804095961153507,0.017673596739768982,-0.09971479326486588,0.9947490096092224
6.03715968132019,-1.5976772964011858,2.0680534280763347,11.419838943187662,-0.0361328125,0.0283203125,1.0009765625,-0.244140625,-0.8544921875,-0.30517578125,0.0,0.0,0.0,0.015665756538510323,0.016568021848797798,-0.09971649944782257,0.9947546124458313
6.051211595535278,-1.662523005659581,2.073552157245018,11.420191551703564,-0.0361328125,0.029296875,1.00244140625,0.0,-0.48828125,-0.244140625,0.0,0.0,0.0,0.01623348332941532,0.016559280455112457,-0.099729523062706,0.9947443604469299
6.075723648071289,-1.5885386100134145,2.1103621811163324,11.427096872954447,-0.037109375,0.02783203125,1.00439453125,0.0,-0.18310546875,-0.244140625,0.0,0.0,0.0,0.01562412828207016,0.016942283138632774,-0.09978260099887848,0.9947423338890076
6.0966150760650635,-1.728277130077588,2.238746899067535,11.425669363417914,-0.04248046875,0.03076171875,0.99853515625,-0.42724609375,-1.03759765625,-0.54931640625,0.0,0.0,0.0,0.016948115080595016,0.01793530583381653,-0.09980548173189163,0.9947010278701782
6.110692739486694,-1.3938388383586178,2.295312818226288,11.429092141965736,-0.0439453125,-0.1240234375,0.90576171875,-13.48876953125,4.21142578125,1.03759765625,0.0,0.0,0.0,0.014094552956521511,0.018717151135206223,-0.09978742152452469,0.9947329759597778
6.136749029159546,-1.1832768061301127,2.259986652952159,11.460827762170554,-0.0341796875,-0.017578125,1.17529296875,14.58740234375,-4.7607421875,-4.21142578125,0.0,0.0,0.0,0.012241234071552753,0.01859041303396225,-0.10002581030130386,0.9947358965873718
6.155647277832031,-1.7144315895780318,2.3205627469273558,11.528247705694104,-0.0166015625,0.29248046875,0.97900390625,11.90185546875,-0.3662109375,-8.544921875,0.0,0.0,0.0,0.016915464773774147,0.01864246465265751,-0.10070290416479111,0.9945980310440063
6.175251483917236,-1.6634808329689696,2.449047142951758,11.60187970626778,-0.06298828125,0.03173828125,0.80517578125,-13.24462890625,-1.15966796875,-5.615234375,0.0,0.0,0.0,0.01659819297492504,0.019791819155216217,-0.10134750604629517,0.9945157170295715
6.19586181640625,-1.3324263663752116,2.533245232728033,11.743829820240864,-0.02099609375,-0.07958984375,1.10302734375,-5.126953125,2.38037109375,-8.4228515625,0.0,0.0,0.0,0.013824806548655033,0.020798219367861748,-0.10252869129180908,0.9944165945053101
6.215267896652222,-1.143347947129041,2.53458459013559,11.904459647820284,-0.05712890625,-0.0361328125,1.0693359375,-1.3427734375,-0.244140625,-6.8359375,0.0,0.0,0.0,0.012214573100209236,0.020961889997124672,-0.10388820618391037,0.9942929744720459
6.23532772064209,-1.0108170909082295,2.6924791403958324,11.981351356175349,-0.0498046875,0.0166015625,0.9765625,-0.79345703125,0.3662109375,-0.732421875,0.0,0.0,0.0,0.011222245171666145,0.022444581612944603,-0.10453985631465912,0.994204044342041
6.255842208862305,-1.0091065554079643,2.521092405203876,11.993807913674159,-0.01904296875,0.02099609375,1.0126953125,0.18310546875,-0.91552734375,-0.1220703125,0.0,0.0,0.0,0.011053933762013912,0.020957889035344124,-0.10463805496692657,0.9942280650138855
6.276102304458618,-1.2055684091469185,2.334617995578773,12.001997310489005,-0.02587890625,0.056640625,0.98974609375,-0.3662109375,1.0986328125,-1.03759765625,0.0,0.0,0.0,0.012590238824486732,0.019159585237503052,-0.10473146289587021,0.9942362904548645
6.296576023101807,-1.4004999803466727,2.3594993075080715,12.023840255454706,-0.0625,0.06689453125,0.99462890625,-1.15966796875,-1.3427734375,-1.5869140625,0.0,0.0,0.0,0.014307810924947262,0.019194556400179863,-0.10495557636022568,0.9941887855529785
6.31057333946228,-1.5326695835934143,2.4399316151741415,12.030318689882463,-0.06494140625,0.0595703125,1.01611328125,-0.18310546875,-1.03759765625,-0.54931640625,0.0,0.0,0.0,0.015528909862041473,0.019770460203289986,-0.10504164546728134,0.9941500425338745
6.3355937004089355,-1.7295962103610467,2.4195930193731363,12.030176109683538,-0.03173828125,0.05322265625,1.0087890625,0.42724609375,-1.3427734375,-0.3662109375,0.0,0.0,0.0,0.017218781635165215,0.019413478672504425,-0.10507196187973022,0.9941260814666748
6.350348472595215,-1.8954396067113033,2.2803051850724776,12.023387755422192,-0.0244140625,0.0537109375,0.98828125,-0.6103515625,-0.244140625,0.30517578125,0.0,0.0,0.0,0.018529530614614487,0.018054045736789703,-0.10502368956804276,0.9941331148147583
6.373342990875244,-2.127654725990924,2.311392150749556,12.004080518185859,-0.05126953125,0.0458984375,1.01025390625,0.0,-0.06103515625,0.6103515625,0.0,0.0,0.0,0.02056931145489216,0.018114350736141205,-0.10489700734615326,0.994105339050293
6.395410060882568,-2.2032440026486317,2.4410342638382754,11.993187220233335,-0.04736328125,0.04052734375,1.0078125,-0.244140625,-0.79345703125,0.54931640625,0.0,0.0,0.0,0.02134103700518608,0.01917191594839096,-0.10483360290527344,0.9940759539604187
6.415278434753418,-2.0954875232079258,2.3764838535397774,11.988470120837794,-0.0380859375,0.0302734375,0.99755859375,-0.48828125,-0.8544921875,0.42724609375,0.0,0.0,0.0,0.02034686505794525,0.01871129497885704,-0.10476559400558472,0.9941127300262451
6.435415744781494,-1.8788477965568728,2.319796911966668,11.98674037543049,-0.03857421875,0.017578125,1.00048828125,-0.3662109375,-0.3662109375,0.54931640625,0.0,0.0,0.0,0.018415668979287148,0.01841777376830578,-0.10470803081989288,0.9941619038581848
6.455289840698242,-1.6631315328259468,2.303702638404591,11.984474460173336,-0.041015625,0.01123046875,1.0029296875,-0.244140625,-0.1220703125,0.48828125,0.0,0.0,0.0,0.016529161483049393,0.01847553439438343,-0.10465177893638611,0.9941999316215515
6.475330591201782,-1.4465341746920892,2.326178869972399,11.990957163469325,-0.04443359375,0.0068359375,1.00439453125,-0.06103515625,-0.48828125,0.06103515625,0.0,0.0,0.0,0.014671416953206062,0.018867500126361847,-0.10467496514320374,0.9942193031311035
6.501419544219971,-1.1841112631476178,2.3691672268348127,12.005802579630348,-0.046875,0.001953125,1.001953125,0.244140625,-0.8544921875,-0.06103515625,0.0,0.0,0.0,0.012436163611710072,0.019478555768728256,-0.10476332902908325,0.994228720664978
6.5153326988220215,-1.0260254675906149,2.389436666970472,12.015618415241303,-0.04345703125,0.00537109375,1.0009765625,-0.06103515625,-0.8544921875,-0.30517578125,0.0,0.0,0.0,0.01108471304178238,0.01979798823595047,-0.10482271760702133,0.9942321181297302
6.5356738567352295,-0.8788836627963822,2.2997417690162183,12.029639086060046,-0.0390625,0.015625,1.00341796875,-0.244140625,-0.48828125,-0.42724609375,0.0,0.0,0.0,0.009728617034852505,0.019153116270899773,-0.10491456836462021,0.9942492246627808
6.555300951004028,-1.082675803618641,2.2792979456133122,12.032821100439627,-0.04150390625,0.02392578125,1.00146484375,0.0,-0.732421875,-0.48828125,0.0,0.0,0.0,0.011478661559522152,0.01878880150616169,-0.10497477650642395,0.9942311644554138
6.57525897026062,-1.2881699422047024,2.3203719285174187,12.03624814785568,-0.04443359375,0.03271484375,1.00341796875,0.0,-1.46484375,-0.30517578125,0.0,0.0,0.0,0.013299616053700447,0.01895650289952755,-0.10504128038883209,0.9941982626914978
6.595339059829712,-1.4936189375092184,2.3365579827464678,12.029135359608757,-0.04052734375,0.03076171875,0.99853515625,-0.244140625,-1.64794921875,0.30517578125,0.0,0.0,0.0,0.01509566605091095,0.0189095176756382,-0.10501491278409958,0.9941762685775757
6.616045951843262,-1.7344203516274856,2.1796681106244518,11.99625653649161,-0.03076171875,0.03955078125,1.00439453125,0.30517578125,-1.40380859375,0.9765625,0.0,0.0,0.0,0.0170368030667305,0.01733248122036457,-0.10475140064954758,0.9942014217376709
6.635355472564697,-1.8765120853041402,2.0711265863160175,11.975271634040391,-0.0361328125,0.03857421875,0.998046875,0.244140625,-2.197265625,1.708984375,0.0,0.0,0.0,0.018167944625020027,0.016264144331216812,-0.10457715392112732,0.9942178130149841
6.650585174560547,-1.9084530380708815,2.2166922182375637,11.89965460973918,-0.06005859375,0.029296875,0.99853515625,0.0,-3.35693359375,5.37109375,0.0,0.0,0.0,0.018565591424703598,0.01751026324927807,-0.10394417494535446,0.9942556619644165
6.675381898880005,-1.7900067789705765,2.181597852508392,11.777950030239662,-0.0244140625,0.0263671875,1.00927734375,0.8544921875,-2.685546875,6.2255859375,0.0,0.0,0.0,0.017487837001681328,0.01733175292611122,-0.1028658077120781,0.9943905472755432
6.695551633834839,-1.808082981330721,1.9231605697880347,11.684267155583766,-0.0126953125,0.03466796875,0.99755859375,-0.18310546875,-2.01416015625,3.84521484375,0.0,0.0,0.0,0.017401674762368202,0.015086944214999676,-0.10202428698539734,0.9945152401924133
6.715664386749268,-1.8310541881699434,1.9868066203517407,11.621845202985375,-0.048828125,0.0263671875,1.0048828125,-1.28173828125,-0.30517578125,2.44140625,0.0,0.0,0.0,0.017648892477154732,0.015628505498170853,-0.10149339586496353,0.9945569634437561
6.735974073410034,-1.439968868795826,2.0738650652863693,11.603320876182654,-0.04638671875,-0.19140625,0.90869140625,-15.0146484375,4.150390625,1.0986328125,0.0,0.0,0.0,0.014328538440167904,0.016732776537537575,-0.10128682106733322,0.9946134090423584
6.750557899475098,-1.047021895986057,2.0961758782102162,11.647462681241153,-0.0244140625,-0.28076171875,1.083984375,-4.2724609375,2.01416015625,-2.44140625,0.0,0.0,0.0,0.010944120585918427,0.017269449308514595,-0.10161340981721878,0.9946138858795166
6.776324987411499,-0.7724526135806287,2.1806106767299136,11.68090670251212,-0.05615234375,-0.28857421875,1.03466796875,-5.0048828125,4.21142578125,-2.01416015625,0.0,0.0,0.0,0.008640911430120468,0.018243245780467987,-0.10186555981636047,0.9945934414863586
6.790484428405762,-0.49593624701407063,2.228398095257908,11.733504281763096,-0.06884765625,-0.30859375,0.9873046875,-5.615234375,-0.06103515625,-2.8076171875,0.0,0.0,0.0,0.006291944067925215,0.01890089549124241,-0.10227873176336288,0.9945563673973083
6.810474395751953,-0.24420757076041438,2.232113718166395,11.76012494405322,-0.0634765625,-0.32958984375,1.03125,-4.57763671875,-3.2958984375,-2.01416015625,0.0,0.0,0.0,0.004114904906600714,0.01915682479739189,-0.10246801376342773,0.9945433735847473
6.835359573364258,-0.019268438893702028,2.209498321494248,11.79714200803375,-0.04541015625,-0.3232421875,1.00244140625,-2.01416015625,-1.28173828125,-1.5869140625,0.0,0.0,0.0,0.0021486214827746153,0.019160956144332886,-0.10275184363126755,0.9945201873779297
6.852218389511108,0.1940075880113115,2.21155122022666,11.897797652058582,-0.04638671875,-0.283203125,0.916015625,-1.8310546875,0.48828125,-6.591796875,0.0,0.0,0.0,0.00031648919684812427,0.019369708374142647,-0.1035894826054573,0.9944314956665039
6.876030206680298,0.42634883900695264,2.2169829281641125,12.172034016102826,-0.0263671875,-0.27587890625,0.93017578125,0.1220703125,5.55419921875,-16.2353515625,0.0,0.0,0.0,-0.001647889381274581,0.019630838185548782,-0.10592925548553467,0.9941785335540771
6.895547151565552,0.673061248243337,2.4720960431927894,12.60655186807882,-0.01123046875,-0.314453125,1.0068359375,0.9765625,19.34814453125,-22.27783203125,0.0,0.0,0.0,-0.003468356328085065,0.022085368633270264,-0.10963775962591171,0.9937202334403992
6.915995359420776,0.9666968436342973,2.6869148840997994,13.201751627826656,-0.0849609375,-0.2705078125,0.955078125,-7.01904296875,14.09912109375,-30.76171875,0.0,0.0,0.0,-0.005682665389031172,0.024258816614747047,-0.11472015827894211,0.9930854439735413
6.935450077056885,1.3403419152930218,2.8649322388719574,14.003419468447515,-0.07861328125,-0.23388671875,0.916015625,-6.65283203125,7.9345703125,-42.236328125,0.0,0.0,0.0,-0.008558468893170357,0.026235856115818024,-0.12156230956315994,0.9922001361846924
6.956967830657959,1.690518136798465,2.8401222170421208,15.008449361416334,-0.12744140625,-0.29931640625,1.02001953125,-3.0517578125,-1.708984375,-52.42919921875,0.0,0.0,0.0,-0.011384991928935051,0.026493286713957787,-0.13018251955509186,0.9910706877708435
6.975695848464966,1.9372384434410772,2.8129600488168607,16.12208267728294,-0.11181640625,-0.3212890625,1.05810546875,2.0751953125,1.40380859375,-56.45751953125,0.0,0.0,0.0,-0.01329127512872219,0.026669053360819817,-0.13975490629673004,0.9897376894950867
6.995213747024536,2.1409859745903193,2.878858140815967,17.301050167655305,-0.1259765625,-0.33740234375,1.03271484375,2.99072265625,0.30517578125,-60.6689453125,0.0,0.0,0.0,-0.014686590060591698,0.02763914130628109,-0.14986954629421234,0.9882102012634277
7.015491008758545,2.271397978064546,2.990890745563924,18.534998973298975,-0.1181640625,-0.32958984375,1.03515625,5.9814453125,3.662109375,-64.63623046875,0.0,0.0,0.0,-0.015352996997535229,0.028942646458745003,-0.16044703125953674,0.9865005612373352
7.035265207290649,2.397764802002833,2.8991429488772584,19.901122184666153,-0.1455078125,-0.28466796875,0.94775390625,3.11279296875,-4.8828125,-70.556640625,0.0,0.0,0.0,-0.016231246292591095,0.02852538973093033,-0.17218390107154846,0.9845179915428162
7.05532693862915,2.5998197268983816,3.189235383636275,21.33276057055209,-0.0654296875,-0.28466796875,0.92626953125,1.953125,15.0146484375,-74.0966796875,0.0,0.0,0.0,-0.01713584177196026,0.03153715655207634,-0.18435031175613403,0.9822050929069519
7.0769219398498535,2.7890219433232586,3.165136128366943,23.32416540231913,-0.1455078125,-0.34912109375,1.09326171875,5.7373046875,14.7705078125,-79.833984375,0.0,0.0,0.0,-0.018244002014398575,0.03195685148239136,-0.20134402811527252,0.9788292050361633
7.095904111862183,2.8933964119077507,3.239352110114655,24.61118990045568,-0.09912109375,-0.267578125,0.9765625,6.16455078125,6.9580078125,-86.181640625,0.0,0.0,0.0,-0.018634989857673645,0.032985344529151917,-0.21227550506591797,0.9764752984046936
7.118780136108398,3.255477759858232,3.3462846979867282,26.451495579856406,-0.1455078125,-0.1650390625,0.7080078125,-9.27734375,7.080078125,-93.07861328125,0.0,0.0,0.0,-0.020962970331311226,0.034907884895801544,-0.22779116034507751,0.9728582501411438
7.135613441467285,3.5944549257240874,3.2995952323678135,28.435593816758825,-0.158203125,-0.36767578125,1.07666015625,2.685546875,2.13623046875,-99.7314453125,0.0,0.0,0.0,-0.023321442306041718,0.03559449687600136,-0.24451063573360443,0.9687123894691467
7.15099024772644,3.705603447861351,3.4545288956228557,30.51245968296836,-0.15869140625,-0.39599609375,1.2236328125,10.8642578125,9.27734375,-106.8115234375,0.0,0.0,0.0,-0.023250993341207504,0.03756825625896454,-0.26193884015083313,0.9640726447105408
7.176000595092773,3.9011901836128975,3.5229394300194685,33.31509462019427,-0.1943359375,-0.29345703125,1.013671875,2.50244140625,17.02880859375,-112.9150390625,0.0,0.0,0.0,-0.023787792772054672,0.039183929562568665,-0.2853469252586365,0.9573274850845337
7.190654993057251,4.030237216470179,3.6301866334801858,35.122693938754395,-0.177734375,-0.32373046875,0.94873046875,12.02392578125,4.21142578125,-122.4365234375,0.0,0.0,0.0,-0.023956581950187683,0.04078354686498642,-0.30032700300216675,0.9526629447937012
7.210436582565308,4.107042693686973,3.5776819021132398,37.6468142521947,-0.19873046875,-0.259765625,0.9462890625,9.09423828125,-1.52587890625,-130.126953125,0.0,0.0,0.0,-0.0238345917314291,0.041083578020334244,-0.3212292492389679,0.9458097219467163
7.237353086471558,4.479446805350871,3.456203572629978,41.02458868357613,-0.17626953125,-0.20654296875,0.71337890625,-5.55419921875,1.46484375,-136.71875,0.0,0.0,0.0,-0.026027105748653412,0.041910842061042786,-0.34887757897377014,0.9358688592910767
7.250826835632324,4.73272345326646,3.342216680005751,43.06331135836572,-0.2158203125,-0.39501953125,1.04931640625,-1.40380859375,9.1552734375,-132.568359375,0.0,0.0,0.0,-0.027697524055838585,0.042251259088516235,-0.365426242351532,0.9294682741165161
7.27567720413208,5.141365133571861,3.489601917010871,46.33688783886402,-0.2763671875,-0.45849609375,1.216796875,1.46484375,19.83642578125,-125.3662109375,0.0,0.0,0.0,-0.029248304665088654,0.0456022173166275,-0.39160194993019104,0.918538510799408
7.296590328216553,5.331173529285576,3.416925075703939,48.80676620501067,-0.412109375,-0.39013671875,0.96826171875,8.97216796875,-10.1318359375,-119.9951171875,0.0,0.0,0.0,-0.030028218403458595,0.0463269017636776,-0.4112650156021118,0.9098424315452576
7.312003135681152,5.408618056076589,3.1586071078506452,50.49818400578887,-0.2763671875,-0.2998046875,0.8916015625,5.18798828125,-11.53564453125,-111.02294921875,0.0,0.0,0.0,-0.03091474436223507,0.04501757398247719,-0.42474135756492615,0.9036661982536316
7.335220813751221,5.628359755827885,3.0197386898537077,52.517290377282194,-0.22705078125,-0.24072265625,0.66943359375,-2.74658203125,-4.82177734375,-96.13037109375,0.0,0.0,0.0,-0.03237172216176987,0.0453157015144825,-0.4405768811702728,0.8959858417510986
7.35059380531311,5.876255068451151,2.807154814909173,54.260887408224704,-0.3134765625,-0.37158203125,1.083984375,-1.03759765625,7.2021484375,-79.04052734375,0.0,0.0,0.0,-0.034448716789484024,0.045138146728277206,-0.4541643559932709,0.8891066908836365
7.375279188156128,5.9694542803364445,3.104005721851917,55.70365900245777,-0.369140625,-0.38720703125,1.21728515625,11.1083984375,21.3623046875,-62.19482421875,0.0,0.0,0.0,-0.033384811133146286,0.04823165386915207,-0.46513479948043823,0.8832943439483643
7.395677089691162,6.050768536179093,3.4208596915526894,56.85130836793833,-0.48779296875,-0.24462890625,0.98876953125,-0.732421875,5.126953125,-53.1005859375,0.0,0.0,0.0,-0.03220602497458458,0.05132525414228439,-0.47375738620758057,0.8785683512687683
7.415203332901001,6.007578688736164,3.372141019420046,57.74881230035093,-0.48095703125,-0.28466796875,1.0703125,9.70458984375,1.15966796875,-42.48046875,0.0,0.0,0.0,-0.031678829342126846,0.0510234609246254,-0.48066890239715576,0.8748431205749512
7.439215660095215,5.996997018164521,3.3487952193935313,58.73322697485736,-0.30322265625,-0.14453125,0.7392578125,1.46484375,-4.45556640625,-38.57421875,0.0,0.0,0.0,-0.03125894442200661,0.05107155814766884,-0.4881834387779236,0.8706845045089722
7.459369421005249,6.227982916836951,3.552959392082144,59.40154049457559,-0.353515625,-0.171875,0.8505859375,-4.08935546875,2.13623046875,-28.86962890625,0.0,0.0,0.0,-0.0318262055516243,0.05379032343626022,-0.493038147687912,0.8677598834037781
7.475301504135132,6.347918050454613,3.604672461835603,59.73791365082038,-0.46337890625,-0.228515625,1.140625,-2.25830078125,-1.64794921875,-18.12744140625,0.0,0.0,0.0,-0.03234988451004028,0.054792340844869614,-0.4954979419708252,0.866275429725647
7.497178077697754,6.253296878561488,3.791640779515063,59.85879433875127,-0.39453125,-0.21240234375,1.21728515625,16.78466796875,-11.1083984375,3.0517578125,0.0,0.0,0.0,-0.03076227754354477,0.055826254189014435,-0.49635323882102966,0.8657774925231934
7.515235185623169,5.90084417635002,3.365498233565386,59.44385351648382,-0.2138671875,-0.0947265625,1.03857421875,14.5263671875,-30.94482421875,27.03857421875,0.0,0.0,0.0,-0.030141260474920273,0.05097650736570358,-0.49360769987106323,0.8676660060882568
7.535297393798828,5.5003022466266085,3.0269976868375505,58.688735122603894,0.0927734375,-0.009765625,0.9736328125,15.2587890625,-20.263671875,45.59326171875,0.0,0.0,0.0,-0.02888103760778904,0.04650209844112396,-0.4882177412509918,0.8710033893585205
7.555633544921875,4.898139535906768,2.480163777263044,57.13279753910748,0.07861328125,0.05517578125,1.0595703125,15.2587890625,-16.90673828125,68.78662109375,0.0,0.0,0.0,-0.02718139998614788,0.03941820561885834,-0.4768160283565521,0.8776980638504028
7.5706541538238525,4.5286890541720775,2.1928211339751926,55.906501960428805,0.05908203125,0.099609375,0.89111328125,13.3056640625,-22.76611328125,85.75439453125,0.0,0.0,0.0,-0.025931520387530327,0.03540610894560814,-0.46763139963150024,0.8828334212303162
7.596104383468628,4.180576937178153,1.750024238951497,53.94297625330646,0.0751953125,0.15478515625,0.7529296875,1.64794921875,-26.30615234375,104.55322265625,0.0,0.0,0.0,-0.025581683963537216,0.03014206700026989,-0.4526959955692291,0.8907880783081055
7.610429525375366,3.9794859227292227,1.4865841628292227,51.652335711359285,0.28662109375,0.1416015625,1.02294921875,2.13623046875,-14.58740234375,117.67578125,0.0,0.0,0.0,-0.025602087378501892,0.026794271543622017,-0.4349375069141388,0.8996977806091309
7.6356236934661865,3.675165136712012,1.171764522284056,49.20230245984611,0.3623046875,0.13037109375,1.16064453125,7.8125,-18.73779296875,124.32861328125,0.0,0.0,0.0,-0.024899471551179886,0.022640930488705635,-0.41576507687568665,0.9088492393493652
7.65247368812561,3.1377831417317457,0.9082632946243688,46.04303602529715,0.52294921875,0.25634765625,1.0654296875,16.9677734375,7.38525390625,127.99072265625,0.0,0.0,0.0,-0.0220990851521492,0.01799894869327545,-0.39071816205978394,0.9200690388679504
7.677034616470337,2.784228004299556,0.8817772617660875,44.10138399899177,0.39794921875,0.28857421875,0.97119140625,16.17431640625,-12.51220703125,130.126953125,0.0,0.0,0.0,-0.01962880603969097,0.016250479966402054,-0.3751315772533417,0.9266211986541748
7.695565462112427,2.516347985051656,0.576764919095413,41.3964958989779,0.3798828125,0.36962890625,0.896484375,-1.03759765625,0.67138671875,134.94873046875,0.0,0.0,0.0,-0.018761465325951576,0.012467901222407818,-0.35325318574905396,0.9352564811706543
7.715750455856323,2.2120261318173875,0.714251611167598,38.720916140692566,0.43359375,0.3037109375,1.0419921875,11.1083984375,0.1220703125,135.3759765625,0.0,0.0,0.0,-0.016144590452313423,0.012278227135539055,-0.3313283920288086,0.9432974457740784
7.735121726989746,2.007765482706748,0.4533739232011362,35.90533799498947,0.18017578125,0.333984375,0.8701171875,5.06591796875,-25.2685546875,141.2353515625,0.0,0.0,0.0,-0.01544769387692213,0.009163431823253632,-0.30811557173728943,0.9511793851852417
7.756251096725464,1.8427816229748553,0.30279127721037735,33.059611394289945,0.4326171875,0.31689453125,0.98876953125,0.91552734375,7.99560546875,143.12744140625,0.0,0.0,0.0,-0.01466428767889738,0.007107963319867849,-0.28443557024002075,0.958556592464447
7.775373697280884,1.7508283870045602,0.09959904577674242,29.51129738461706,0.46435546875,0.287109375,1.01953125,1.220703125,-12.20703125,137.39013671875,0.0,0.0,0.0,-0.014553047716617584,0.004731734748929739,-0.2546546459197998,0.9669109582901001
7.796675443649292,1.601080758320262,-0.04395979452434295,27.54489446030685,0.6328125,0.234375,1.13720703125,11.41357421875,-0.3662109375,128.662109375,0.0,0.0,0.0,-0.01366122905164957,0.002953615505248308,-0.23804837465286255,0.9711527228355408
7.815609693527222,1.3851592687491183,0.01688534487112892,25.108466945620336,0.5361328125,0.28125,0.98681640625,4.638671875,5.4931640625,118.22509765625,0.0,0.0,0.0,-0.011766470037400723,0.0027712020091712475,-0.21734602749347687,0.9760197401046753
7.836669445037842,1.39195178515699,0.05482534149831055,22.943365280617993,0.455078125,0.2900390625,0.85888671875,-6.53076171875,5.31005859375,101.98974609375,0.0,0.0,0.0,-0.01180896908044815,0.002884642221033573,-0.1988631933927536,0.9799519181251526
7.855315923690796,1.42492975273881,0.13151601284010955,21.175452776230234,0.51953125,0.26904296875,1.0830078125,-2.44140625,10.43701171875,79.9560546875,0.0,0.0,0.0,-0.012011965736746788,0.003412796650081873,-0.183712437748909,0.9829006791114807
7.8753602504730225,1.291369138778913,0.274213525599206,19.914977223397525,0.40576171875,0.21533203125,1.0966796875,6.591796875,13.916015625,55.0537109375,0.0,0.0,0.0,-0.010685538873076439,0.004305380396544933,-0.1728793829679489,0.9848756790161133
7.895339250564575,1.1266677714022237,0.4073601393819503,19.096029004176533,0.1611328125,0.26318359375,0.92333984375,-1.03759765625,14.09912109375,32.65380859375,0.0,0.0,0.0,-0.009105975739657879,0.005136306397616863,-0.16583052277565002,0.9860989451408386
7.9109885692596436,1.0423460978906545,0.595345381515375,18.70748857059848,0.11083984375,0.25732421875,1.02734375,-2.38037109375,12.939453125,12.02392578125,0.0,0.0,0.0,-0.008130633272230625,0.006604412104934454,-0.1624739021062851,0.9866572022438049
7.9370951652526855,0.8582372282350501,0.9116678237605029,18.68675040873103,0.0146484375,0.2080078125,0.9970703125,3.2958984375,17.9443359375,-4.39453125,0.0,0.0,0.0,-0.006098284851759672,0.009065832011401653,-0.16228236258029938,0.9866839647293091
7.955378770828247,0.7195073350122171,1.1494843384897688,18.956409692257715,-0.12255859375,0.24365234375,0.93408203125,-3.96728515625,7.14111328125,-18.37158203125,0.0,0.0,0.0,-0.004541024100035429,0.010927739553153515,-0.164598748087883,0.9862896800041199
7.9755470752716064,0.6458355806031373,1.381975973709069,19.5201888742762,-0.07275390625,0.23193359375,0.97216796875,-5.67626953125,13.48876953125,-33.50830078125,0.0,0.0,0.0,-0.003509601578116417,0.012840337119996548,-0.1694411188364029,0.9854505062103271
7.99739146232605,0.5400201021863312,1.7238221391914472,20.34311397114143,-0.11181640625,0.1953125,0.99072265625,-2.197265625,13.7939453125,-45.83740234375,0.0,0.0,0.0,-0.001981517765671015,0.015638159587979317,-0.17650441825389862,0.984173595905304
8.019092798233032,0.33196024039115146,2.023017508566798,21.69474352108984,-0.1982421875,0.189453125,1.06005859375,3.173828125,4.0283203125,-59.4482421875,0.0,0.0,0.0,0.0004775188281200826,0.017882831394672394,-0.1881130486726761,0.9819844961166382
8.035412549972534,0.2136101108673291,2.177257267290849,22.65989364704225,-0.17431640625,0.19287109375,1.01416015625,3.173828125,5.67626953125,-67.5048828125,0.0,0.0,0.0,0.001905071665532887,0.018994878977537155,-0.1963881254196167,0.9803404211997986
8.055456638336182,0.06028496383193165,2.4511638612642277,24.11696424230273,-0.12939453125,0.1708984375,1.03369140625,2.0751953125,11.53564453125,-76.5380859375,0.0,0.0,0.0,0.003953974228352308,0.02102673612535,-0.2088511437177658,0.9777134656906128
8.070671796798706,-0.014841277359870378,2.702155170572213,25.68316760012167,-0.1875,0.150390625,0.9501953125,-1.0986328125,3.84521484375,-79.65087890625,0.0,0.0,0.0,0.005366721656173468,0.022960050031542778,-0.22219733893871307,0.9747166037559509
8.095884084701538,-0.011821698419070012,2.9410160639142564,27.286602319106354,-0.146484375,0.13037109375,0.9423828125,-4.45556640625,10.55908203125,-81.35986328125,0.0,0.0,0.0,0.0061533753760159016,0.02491394616663456,-0.23580147325992584,0.9714624285697937
8.115449666976929,-0.05409326728223617,3.31459816976657,28.872066810384734,-0.18798828125,0.0810546875,1.05322265625,2.5634765625,8.30078125,-77.880859375,0.0,0.0,0.0,0.007667005993425846,0.027890512719750404,-0.24920789897441864,0.9680179357528687
8.136630296707153,-0.13104179494046966,3.5791177359428237,30.396250844429762,-0.2294921875,0.12548828125,1.0654296875,0.91552734375,6.40869140625,-75.62255859375,0.0,0.0,0.0,0.009289833717048168,0.029836731031537056,-0.26206400990486145,0.9645444750785828
8.155436277389526,-0.1645028650039357,3.7676373603375226,31.898001122145878,-0.2138671875,0.142578125,1.04345703125,-0.732421875,-0.732421875,-75.8056640625,0.0,0.0,0.0,0.010412415489554405,0.031213242560625076,-0.27467820048332214,0.9609730839729309
8.177115201950073,-0.21123257804614318,3.9513643263689877,33.38741607822095,-0.18310546875,0.08740234375,0.9814453125,3.2958984375,2.50244140625,-74.40185546875,0.0,0.0,0.0,0.011667815037071705,0.03249307721853256,-0.2871449291706085,0.95726478099823
8.195387601852417,-0.28825826216260336,4.18381999637344,34.82517431360322,-0.2021484375,0.11279296875,0.921875,0.54931640625,2.25830078125,-71.2890625,0.0,0.0,0.0,0.013322034850716591,0.0340774767100811,-0.2991376519203186,0.9535082578659058
8.218650579452515,-0.31743522947131114,4.386587395376785,36.22705698037,-0.19189453125,0.1103515625,1.0625,2.9296875,-2.13623046875,-70.80078125,0.0,0.0,0.0,0.01452932320535183,0.03551348298788071,-0.3107726573944092,0.9497094750404358
8.235166072845459,-0.43157238625727856,4.616941074664166,37.62635100544134,-0.12841796875,0.05810546875,1.02099609375,4.638671875,7.6904296875,-70.73974609375,0.0,0.0,0.0,0.016551446169614792,0.03691376745700836,-0.3223629295825958,0.945751428604126
8.255276203155518,-0.4721558228407605,4.8775879235810224,39.01715510537436,-0.15576171875,0.0693359375,0.85302734375,-2.62451171875,4.39453125,-70.12939453125,0.0,0.0,0.0,0.018090341240167618,0.038734208792448044,-0.33380791544914246,0.9416712522506714
8.275315999984741,-0.3522719156418736,5.085627374849972,40.38129756188223,-0.2412109375,0.04443359375,1.015625,-2.13623046875,-1.64794921875,-67.68798828125,0.0,0.0,0.0,0.01819499582052231,0.0405794121325016,-0.34493154287338257,0.9375737309455872
8.295512676239014,-0.27093148630088265,5.260478936941829,41.73349401753175,-0.19970703125,0.0234375,1.0537109375,0.244140625,-0.67138671875,-67.2607421875,0.0,0.0,0.0,0.01855277083814144,0.042038943618535995,-0.35592085123062134,0.9333857893943787
8.316288948059082,-0.20115308646105554,5.47087864545584,43.06904530217395,-0.18798828125,0.0361328125,0.98876953125,-0.48828125,3.173828125,-66.89453125,0.0,0.0,0.0,0.019148727878928185,0.04374929517507553,-0.36672085523605347,0.9291045665740967
8.336945056915283,-0.040830393945713514,5.741892013985484,44.75985180102143,-0.21435546875,0.02392578125,0.919921875,-3.90625,-2.0751953125,-67.3828125,0.0,0.0,0.0,0.019399307668209076,0.04617845267057419,-0.38028499484062195,0.9235121607780457
8.35313868522644,0.13049373896064226,5.95764189505373,46.102267425779495,-0.14794921875,0.0,0.99560546875,-3.173828125,3.5400390625,-67.87109375,0.0,0.0,0.0,0.019301289692521095,0.048262819647789,-0.3909687101840973,0.9189350605010986
8.375316143035889,0.46919856437355656,6.121708588446138,47.151029312456615,-0.10009765625,-0.087890625,0.99755859375,-5.2490234375,13.671875,-68.115234375,0.0,0.0,0.0,0.01760876737535,0.0505746565759182,-0.399183064699173,0.9153059720993042
8.395411729812622,0.8690979760673109,6.3335678230084165,48.525724411232154,-0.25537109375,-0.15625,1.03564453125,-2.25830078125,4.08935546875,-65.4296875,0.0,0.0,0.0,0.015796098858118057,0.05347340926527977,-0.40990227460861206,0.9104236364364624
8.415428161621094,1.2493578191329282,6.5425208120788545,49.88864767897318,-0.24365234375,-0.1611328125,1.1015625,-3.7841796875,6.04248046875,-67.0166015625,0.0,0.0,0.0,0.014194894582033157,0.0563276931643486,-0.4204610288143158,0.9054492712020874
8.436141729354858,1.6118289147529232,6.666276582763492,51.317506177866925,-0.23681640625,-0.1875,1.05322265625,0.732421875,6.8359375,-69.82421875,0.0,0.0,0.0,0.01251639798283577,0.05848301574587822,-0.43149787187576294,0.9001293182373047
8.45530366897583,1.8014211990124314,6.817767617233437,52.734650902334096,-0.244140625,-0.16357421875,1.01318359375,8.4228515625,3.173828125,-68.66455078125,0.0,0.0,0.0,0.012345480732619762,0.06023769453167915,-0.442446231842041,0.8946844935417175
8.47548770904541,2.013416610471287,6.976093536628448,54.167388948676404,-0.19580078125,-0.09521484375,0.93115234375,-0.6103515625,4.94384765625,-71.044921875,0.0,0.0,0.0,0.012081936001777649,0.06214475631713867,-0.4534262716770172,0.8890425562858582
8.495530128479004,2.3255336305392444,7.066828757770659,55.67342175500212,-0.22509765625,-0.15673828125,0.95947265625,-0.48828125,-1.15966796875,-75.62255859375,0.0,0.0,0.0,0.010862328112125397,0.06394536793231964,-0.46486374735832214,0.8830032348632812
8.515400648117065,2.7060108123586857,7.213312409805337,57.22541490425285,-0.16552734375,-0.1962890625,0.90087890625,2.01416015625,8.85009765625,-77.33154296875,0.0,0.0,0.0,0.009429103694856167,0.06649389117956161,-0.47650086879730225,0.876605212688446
8.535239458084106,3.057714541638979,7.326266663204423,58.81647332046147,-0.283203125,-0.21240234375,1.10107421875,0.732421875,5.06591796875,-76.66015625,0.0,0.0,0.0,0.008165777660906315,0.0687117949128151,-0.48836636543273926,0.8698909878730774
8.55518364906311,3.277084636410744,7.193373380070778,60.49566849771994,-0.2724609375,-0.20556640625,1.02392578125,7.4462890625,-8.6669921875,-82.94677734375,0.0,0.0,0.0,0.0069357240572571754,0.06854549795389175,-0.5009939670562744,0.8627042174339294
8.576347351074219,3.6661531289890035,7.136507359475368,62.297670476255234,-0.10107421875,-0.1513671875,0.802734375,-6.103515625,7.14111328125,-90.63720703125,0.0,0.0,0.0,0.004853788297623396,0.06975127756595612,-0.5142921805381775,0.8547600507736206
8.598318338394165,4.422223053597681,7.1241045897162705,64.75006355812666,-0.17138671875,-0.2373046875,0.9072265625,-7.568359375,4.7607421875,-98.81591796875,0.0,0.0,0.0,0.0007214364013634622,0.0730520486831665,-0.5320019721984863,0.843585729598999
8.616535902023315,4.745375098043439,7.100161361580791,66.25202898680162,-0.271484375,-0.361328125,1.16748046875,4.5166015625,7.75146484375,-95.0927734375,0.0,0.0,0.0,-0.000794543360825628,0.074393130838871,-0.542819082736969,0.8365480303764343
8.635507345199585,4.997785592594907,6.924468405560552,68.15270670827609,-0.31396484375,-0.333984375,1.14013671875,8.1787109375,-8.72802734375,-92.041015625,0.0,0.0,0.0,-0.0022431479301303625,0.07435788959264755,-0.5565618276596069,0.8274689316749573
8.655556440353394,5.2460061929773945,6.746900135726323,69.9458909125929,-0.16796875,-0.33056640625,1.0576171875,4.638671875,9.82666015625,-85.693359375,0.0,0.0,0.0,-0.0037418154533952475,0.07435344904661179,-0.5693901777267456,0.8186894655227661
8.675264596939087,5.487867460355778,6.5501855649880785,71.65558288449547,-0.19873046875,-0.26513671875,0.85546875,-0.244140625,-8.97216796875,-81.9091796875,0.0,0.0,0.0,-0.005347792524844408,0.07424315065145493,-0.5815075039863586,0.8101286292076111
8.695446729660034,5.828996989583833,6.281939276845936,73.09960781844123,-0.236328125,-0.34765625,1.00244140625,3.72314453125,-19.71435546875,-65.185546875,0.0,0.0,0.0,-0.008196895942091942,0.07419446855783463,-0.5916194319725037,0.8027544021606445
8.71548318862915,6.127739645483259,5.927005081531639,74.15918872476364,-0.12158203125,-0.2470703125,0.84765625,-7.87353515625,-9.09423828125,-46.5087890625,0.0,0.0,0.0,-0.011458134278655052,0.07336974889039993,-0.5990523099899292,0.7972591519355774
8.73527193069458,6.610690795750636,5.706591888807565,74.88389911645868,-0.12060546875,-0.31591796875,0.89404296875,-3.60107421875,-14.5263671875,-29.96826171875,0.0,0.0,0.0,-0.015508238226175308,0.0744667649269104,-0.6039146780967712,0.7934111952781677
8.75067663192749,6.907273404325045,5.394552562141417,75.1889695157373,-0.16943359375,-0.41552734375,1.15478515625,-0.42724609375,-17.578125,-8.36181640625,0.0,0.0,0.0,-0.01902177929878235,0.07392971962690353,-0.6060400605201721,0.79176265001297
8.775818109512329,6.980050777478824,5.1570233422441145,74.99454818101289,-0.05419921875,-0.36279296875,1.08349609375,2.5634765625,-2.3193359375,18.61572265625,0.0,0.0,0.0,-0.020913394168019295,0.0726451426744461,-0.6048067808151245,0.7927762269973755
8.790920734405518,7.083908499563922,5.224009141868546,74.39149711881412,-0.03271484375,-0.3212890625,0.9658203125,0.6103515625,2.99072265625,43.64013671875,0.0,0.0,0.0,-0.021663140505552292,0.07354170083999634,-0.600515604019165,0.7959293127059937
8.815707206726074,7.096972090125218,4.765069521628348,73.33479855232144,-0.11669921875,-0.27490234375,0.98388671875,4.638671875,-32.5927734375,60.546875,0.0,0.0,0.0,-0.0248252060264349,0.07020961493253708,-0.5934448838233948,0.8014222383499146
8.8362557888031,7.03044007119377,4.509158982014072,71.88452399528512,0.15771484375,-0.16943359375,0.88818359375,1.5869140625,-3.2958984375,80.38330078125,0.0,0.0,0.0,-0.02655392698943615,0.06775124371051788,-0.5834589600563049,0.8088760375976562
8.85556960105896,6.802931592582523,4.064200759004891,70.20260357254783,0.2373046875,-0.1787109375,1.0966796875,12.75634765625,-22.88818359375,86.42578125,0.0,0.0,0.0,-0.028157005086541176,0.06305532902479172,-0.5719285607337952,0.8173916935920715
8.870643138885498,6.45419280573225,3.9329603816503886,68.41314865151784,0.35400390625,-0.11962890625,1.1240234375,11.65771484375,-2.50244140625,91.30859375,0.0,0.0,0.0,-0.027267910540103912,0.05996234342455864,-0.5593586564064026,0.8263044357299805
8.896063089370728,5.9835769771059155,3.6899785363613007,66.5236929308497,0.2890625,-0.08349609375,1.01904296875,14.34326171875,-14.95361328125,95.703125,0.0,0.0,0.0,-0.025985492393374443,0.055495526641607285,-0.5460295081138611,0.8355218768119812
8.91670560836792,5.592332215503361,3.421762343740189,64.49671135124336,0.33837890625,-0.017578125,0.91650390625,12.6953125,-7.6904296875,101.62353515625,0.0,0.0,0.0,-0.025327499955892563,0.051239002496004105,-0.5314855575561523,0.8451367616653442
8.935539722442627,5.216253035179173,3.218104885710626,62.365917726442,0.3046875,0.01806640625,0.97314453125,10.19287109375,-18.06640625,107.97119140625,0.0,0.0,0.0,-0.024390961974859238,0.04754948243498802,-0.5159391164779663,0.8549567461013794
8.95548391342163,4.956975639190904,2.959071242098362,60.12937228272132,0.3076171875,0.0654296875,0.8037109375,3.90625,-9.82666015625,112.6708984375,0.0,0.0,0.0,-0.024490652605891228,0.043982379138469696,-0.4993755519390106,0.8649219274520874
8.977261543273926,4.601727682061609,2.5499862398271453,57.24092967895253,0.49951171875,0.11962890625,0.94921875,1.953125,-11.1083984375,114.013671875,0.0,0.0,0.0,-0.024582911282777786,0.03874223679304123,-0.4777165949344635,0.8773150444030762
8.995315790176392,4.343922191839478,2.505477312100757,55.55837746371701,0.57861328125,0.119140625,1.14794921875,14.83154296875,-4.5166015625,113.037109375,0.0,0.0,0.0,-0.023340845480561256,0.03698819875717163,-0.4648860692977905,0.884289562702179
9.018992900848389,3.785710467768199,2.301206417706363,52.726369297965455,0.51953125,0.1640625,1.0849609375,13.671875,-6.77490234375,113.76953125,0.0,0.0,0.0,-0.02067725919187069,0.032646797597408295,-0.44313347339630127,0.8956223726272583
9.035305500030518,3.4942108005967487,2.184693422306289,51.00122743816031,0.4853515625,0.1748046875,0.958984375,10.3759765625,-5.859375,116.88232421875,0.0,0.0,0.0,-0.019309306517243385,0.030322037637233734,-0.4297178089618683,0.902247428894043
9.05547571182251,3.0263246997608926,2.036125922244522,48.64832972192847,0.49560546875,0.23193359375,1.05078125,16.41845703125,-6.65283203125,117.98095703125,0.0,0.0,0.0,-0.01674276776611805,0.027059858664870262,-0.41126254200935364,0.9109613299369812
9.075271844863892,2.6230938099386116,1.9911683364670285,46.18077020500504,0.4169921875,0.31201171875,0.87939453125,7.99560546875,-4.8828125,126.220703125,0.0,0.0,0.0,-0.014239422976970673,0.024954412132501602,-0.39165496826171875,0.9196635484695435
9.095829963684082,2.2731885548441473,1.6741758419921517,42.826382341341734,0.2509765625,0.3076171875,0.884765625,7.568359375,-25.146484375,138.73291015625,0.0,0.0,0.0,-0.013132074847817421,0.02083946019411087,-0.3647105395793915,0.9307951331138611
9.115631103515625,1.9781352683135864,1.458781237482451,40.74157296512748,0.45849609375,0.29052734375,1.0625,10.07080078125,-1.220703125,138.18359375,0.0,0.0,0.0,-0.011750217527151108,0.01794019527733326,-0.3478080630302429,0.9373205304145813
9.135684728622437,1.523375617123731,1.5585355099802525,37.87544800447171,0.43408203125,0.30908203125,1.07177734375,18.12744140625,2.5634765625,145.263671875,0.0,0.0,0.0,-0.008159373886883259,0.017176968976855278,-0.3243105411529541,0.9457595348358154
9.155881404876709,1.1549533990242449,1.5230989944623454,34.868532354454466,0.328125,0.35986328125,0.900390625,0.9765625,-1.03759765625,151.9775390625,0.0,0.0,0.0,-0.005632868502289057,0.0156993567943573,-0.2994419038295746,0.9539688229560852
9.17349886894226,0.8719489930764094,1.6011805431151676,31.78192888739068,0.43115234375,0.296875,1.02294921875,7.50732421875,12.14599609375,155.82275390625,0.0,0.0,0.0,-0.0034919565077871084,0.015521356835961342,-0.27367061376571655,0.9616919159889221
9.195684909820557,0.5289692829960737,1.578955641164475,28.666823040920438,0.37255859375,0.2900390625,1.0263671875,10.80322265625,0.91552734375,156.494140625,0.0,0.0,0.0,-0.0010609569726511836,0.014492178335785866,-0.24747630953788757,0.9687849283218384
9.215262174606323,0.27854698714288817,1.5339181208293515,25.488906774842754,0.3466796875,0.326171875,0.90576171875,0.18310546875,-0.42724609375,161.31591796875,0.0,0.0,0.0,0.0005822057137265801,0.013591940514743328,-0.22055086493492126,0.9752805829048157
9.235880374908447,0.06696988475005602,1.515149401320391,22.264852580921634,0.416015625,0.28564453125,1.056640625,5.4931640625,6.7138671875,159.0576171875,0.0,0.0,0.0,0.001979450462386012,0.013085825368762016,-0.19305279850959778,0.9810991883277893
9.255013942718506,-0.45811652908435796,1.2554911155641881,18.342645478345787,0.34619140625,0.27490234375,1.0390625,14.09912109375,-7.87353515625,153.80859375,0.0,0.0,0.0,0.005692698527127504,0.010178701020777225,-0.15941950678825378,0.987142026424408
9.275396347045898,-0.6847513304512254,1.1004188208133359,16.001878178079885,0.34716796875,0.3173828125,0.87255859375,2.3193359375,0.91552734375,156.494140625,0.0,0.0,0.0,0.007253692485392094,0.008677477948367596,-0.13923723995685577,0.9901944994926453
9.296122312545776,-0.8647623000482337,0.8219214325832096,12.108634492679474,0.31982421875,0.2919921875,0.93505859375,-0.18310546875,-4.150390625,157.2265625,0.0,0.0,0.0,0.008260596543550491,0.006336439400911331,-0.1055193543434143,0.9943627119064331
9.317132949829102,-1.0122259241462503,0.5898511346583344,9.020887822703362,0.416015625,0.31787109375,1.04638671875,0.8544921875,-2.25830078125,152.03857421875,0.0,0.0,0.0,0.009210528805851936,0.004436615388840437,-0.07868202775716782,0.99684739112854
9.335726261138916,-1.1221482138840853,0.3744840643487253,6.828704884528743,0.45947265625,0.34130859375,1.03515625,4.39453125,-7.32421875,143.12744140625,0.0,0.0,0.0,0.009969620034098625,0.0026788273826241493,-0.059585198760032654,0.9981698989868164
9.355799674987793,-1.30016716948183,0.1482409183018626,4.062642195213659,0.46142578125,0.333984375,1.01806640625,2.99072265625,2.3193359375,136.474609375,0.0,0.0,0.0,0.011384567245841026,0.0008905867580324411,-0.03545817360281944,0.9993059635162354
9.375418424606323,-1.444979025995442,-0.10039537646485715,1.391019677778695,0.34521484375,0.2861328125,0.95166015625,5.9814453125,-8.11767578125,132.50732421875,0.0,0.0,0.0,0.012597918510437012,-0.0010290425270795822,-0.012126621790230274,0.9998465776443481
9.396476030349731,-1.6896092947520303,-0.30801269002658765,-1.1628653194040584,0.396484375,0.28564453125,0.9521484375,8.7890625,3.23486328125,125.0,0.0,0.0,0.0,0.014770548790693283,-0.0025378651916980743,0.010186227969825268,0.9998358488082886
9.415681838989258,-1.8143285489964631,-0.45647637654905576,-3.5288490377554105,0.39208984375,0.3583984375,0.99609375,-0.9765625,0.67138671875,114.013671875,0.0,0.0,0.0,0.01594734564423561,-0.0034936335869133472,0.030849086120724678,0.999390721321106
9.435820579528809,-1.8536981862592397,-0.6956570081216201,-5.674691490289021,0.390625,0.34326171875,1.03857421875,-2.13623046875,-3.2958984375,103.515625,0.0,0.0,0.0,0.016456197947263718,-0.005261776968836784,0.04959147423505783,0.9986201524734497
9.455367803573608,-1.9217147041181075,-0.9387955208747952,-7.594917640054889,0.36767578125,0.31787109375,1.01171875,1.0986328125,-2.62451171875,91.85791015625,0.0,0.0,0.0,0.017274463549256325,-0.0070627168752253056,0.06635519117116928,0.9976215958595276
9.477348566055298,-2.0603566586553765,-1.1725360134951501,-9.302298446697057,0.32080078125,0.29638671875,0.96435546875,4.8828125,-1.220703125,82.51953125,0.0,0.0,0.0,0.018748465925455093,-0.00873896386474371,0.081254743039608,0.9964786767959595
9.495423793792725,-2.2739117011225227,-1.3316034353019308,-10.840556085526893,0.30029296875,0.3154296875,0.97314453125,6.9580078125,1.0986328125,74.27978515625,0.0,0.0,0.0,0.020849697291851044,-0.00969174224883318,0.09466521441936493,0.9952436685562134
9.515326261520386,-2.4203110430096335,-1.5380874177091153,-12.161563336105196,0.390625,0.35595703125,0.958984375,-0.6103515625,-5.79833984375,59.63134765625,0.0,0.0,0.0,0.022420383989810944,-0.011106434278190136,0.10617924481630325,0.9940322041511536
9.535367250442505,-2.3301442216724144,-1.87944693221313,-13.05008556975923,0.59423828125,0.1455078125,1.02880859375,-7.32421875,-4.45556640625,37.2314453125,0.0,0.0,0.0,0.022061845287680626,-0.013980654068291187,0.11393000185489655,0.9931454062461853
9.555393934249878,-2.2980451073377046,-1.8881039835427096,-13.716996339376676,0.35400390625,0.11181640625,1.078125,0.79345703125,11.04736328125,30.70068359375,0.0,0.0,0.0,0.021873822435736656,-0.013960535638034344,0.11970550566911697,0.9924703240394592
9.575327157974243,-2.3904208545411887,-1.709751949501221,-14.359002531732964,0.01123046875,0.12841796875,0.962890625,-2.197265625,13.36669921875,33.447265625,0.0,0.0,0.0,0.022557243704795837,-0.01219303347170353,0.12524592876434326,0.9917944073677063
9.590439319610596,-2.417586224417622,-1.4473261564706934,-15.071215384794165,-0.0634765625,0.11279296875,0.927734375,-5.7373046875,7.568359375,36.376953125,0.0,0.0,0.0,0.022567948326468468,-0.009751765057444572,0.1313668191432953,0.9910289645195007
9.6105318069458,-2.136225973069055,-1.2056668065596492,-15.812845862610613,0.02685546875,-0.06201171875,1.0419921875,-10.009765625,11.04736328125,35.64453125,0.0,0.0,0.0,0.01990978606045246,-0.007855375297367573,0.1377183049917221,0.9902402758598328
9.635809183120728,-1.8849454479384018,-1.0636395327932866,-16.544384735928364,0.01513671875,-0.01953125,1.09228515625,0.18310546875,5.37109375,36.376953125,0.0,0.0,0.0,0.017611928284168243,-0.006817616987973452,0.1440013349056244,0.9893973469734192
9.655415534973145,-1.7247155065905437,-0.9925255241458179,-17.282823807855124,0.0029296875,-0.00048828125,0.9658203125,0.42724609375,0.0,36.7431640625,0.0,0.0,0.0,0.016180217266082764,-0.0063007790595293045,0.15035617351531982,0.9884794354438782
9.67543911933899,-1.5111982436072444,-0.9978733488225263,-18.027411757582186,0.00732421875,-0.005859375,0.93896484375,-0.244140625,-2.0751953125,37.59765625,0.0,0.0,0.0,0.01438813004642725,-0.006533706095069647,0.15676458179950714,0.9875096082687378
9.695570945739746,-1.2912578280397828,-0.9582254880727775,-18.788115538655894,0.0087890625,-0.0087890625,0.998046875,-2.62451171875,0.06103515625,38.26904296875,0.0,0.0,0.0,0.012481396086513996,-0.006410173140466213,0.1633005440235138,0.9864766001701355
9.715696811676025,-1.1514368120970404,-1.071038762098526,-19.532290261938172,0.08740234375,-0.00244140625,1.083984375,0.18310546875,2.685546875,35.64453125,0.0,0.0,0.0,0.011487297713756561,-0.007506188005208969,0.16970379650592804,0.985399603843689
9.73530125617981,-1.0953624531151167,-1.229937136723349,-20.268022871406313,0.060546875,-0.0087890625,1.03173828125,2.99072265625,-2.38037109375,36.2548828125,0.0,0.0,0.0,0.011297427117824554,-0.008883324451744556,0.17603391408920288,0.984279215335846
9.755352258682251,-0.9820743742203464,-1.4207641911187485,-21.022514595429893,0.04638671875,0.00390625,0.90625,-1.28173828125,-0.1220703125,38.2080078125,0.0,0.0,0.0,0.01068735122680664,-0.010626373812556267,0.18251246213912964,0.9830880165100098
9.775436639785767,-0.9274724546130892,-1.5785772059957741,-21.997068184322114,0.02587890625,0.0478515625,0.98486328125,-2.0751953125,0.8544921875,39.55078125,0.0,0.0,0.0,0.010572226718068123,-0.011977795511484146,0.19086897373199463,0.9814855456352234
9.79618525505066,-1.1006760201242691,-1.4949275590655104,-22.81277206368735,-0.0244140625,0.119140625,1.0283203125,-0.244140625,-0.1220703125,41.07666015625,0.0,0.0,0.0,0.01199436467140913,-0.010887688025832176,0.19786347448825836,0.9800958037376404
9.815476179122925,-1.1889453295326944,-1.4465295856587406,-23.434860570650233,-0.04248046875,0.126953125,1.00048828125,-3.35693359375,-2.685546875,41.07666015625,0.0,0.0,0.0,0.012721708044409752,-0.010252394713461399,0.20318631827831268,0.9790037870407104
9.835282325744629,-1.3390058662583437,-1.3750284973844027,-24.236147628224867,-0.0087890625,0.1591796875,1.078125,3.90625,1.5869140625,38.818359375,0.0,0.0,0.0,0.013942333869636059,-0.009278152137994766,0.21003462374210358,0.9775505661964417
