time,orientation.x,orientation.y,orientation.z,orientation.w,orientation_covariance,angular_velocity.x,angular_velocity.y,angular_velocity.z,angular_velocity_covariance,linear_acceleration.x,linear_acceleration.y,linear_acceleration.z,linear_acceleration_covariance
2.6158337593078613,-0.019012179225683212,0.012790318578481674,0.9688528180122375,-0.2465747743844986,[0. 0. 0. 0. 0. 0. 0. 0. 0.],-0.30517578125,-0.42724609375,-0.06103515625,[0. 0. 0. 0. 0. 0. 0. 0. 0.],-0.03076171875,0.03515625,1.00537109375,[0. 0. 0. 0. 0. 0. 0. 0. 0.]
2.6355502605438232,-0.018898241221904755,0.012856799177825451,0.9688597321510315,-0.24655281007289886,[0. 0. 0. 0. 0. 0. 0. 0. 0.],-0.1220703125,-0.244140625,-0.06103515625,[0. 0. 0. 0. 0. 0. 0. 0. 0.],-0.03076171875,0.0341796875,1.0048828125,[0. 0. 0. 0. 0. 0. 0. 0. 0.]
2.6546971797943115,-0.01846148818731308,0.012503948993980885,0.9688813090324402,-0.2465192973613739,[0. 0. 0. 0. 0. 0. 0. 0. 0.],0.0,-0.244140625,-0.1220703125,[0. 0. 0. 0. 0. 0. 0. 0. 0.],-0.02978515625,0.03369140625,1.00634765625,[0. 0. 0. 0. 0. 0. 0. 0. 0.]
2.67576003074646,-0.018511207774281502,0.012079758569598198,0.9688937067985535,-0.2464885413646698,[0. 0. 0. 0. 0. 0. 0. 0. 0.],0.1220703125,-0.9765625,-0.30517578125,[0. 0. 0. 0. 0. 0. 0. 0. 0.],-0.0302734375,0.03271484375,1.0068359375,[0. 0. 0. 0. 0. 0. 0. 0. 0.]
2.695033311843872,-0.01963530108332634,0.011880219914019108,0.9688860177993774,-0.24644139409065247,[0. 0. 0. 0. 0. 0. 0. 0. 0.],-0.244140625,-0.8544921875,-0.244140625,[0. 0. 0. 0. 0. 0. 0. 0. 0.],-0.03173828125,0.03271484375,1.00341796875,[0. 0. 0. 0. 0. 0. 0. 0. 0.]
2.7112135887145996,-0.01825231872498989,0.012774495407938957,0.9689012765884399,-0.24644264578819275,[0. 0. 0. 0. 0. 0. 0. 0. 0.],-0.1220703125,-0.54931640625,-0.06103515625,[0. 0. 0. 0. 0. 0. 0. 0. 0.],-0.02978515625,0.0341796875,1.00537109375,[0. 0. 0. 0. 0. 0. 0. 0. 0.]
2.7355782985687256,-0.018988022580742836,0.012672891840338707,0.9689000248908997,-0.24639759957790375,[0. 0. 0. 0. 0. 0. 0. 0. 0.],0.0,-0.18310546875,0.1220703125,[0. 0. 0. 0. 0. 0. 0. 0. 0.],-0.03076171875,0.0341796875,1.0029296875,[0. 0. 0. 0. 0. 0. 0. 0. 0.]
2.754554510116577,-0.018521612510085106,0.01245242077857256,0.9689155220985413,-0.24638302624225616,[0. 0. 0. 0. 0. 0. 0. 0. 0.],-0.1220703125,-1.0986328125,-0.06103515625,[0. 0. 0. 0. 0. 0. 0. 0. 0.],-0.0302734375,0.03369140625,1.00439453125,[0. 0. 0. 0. 0. 0. 0. 0. 0.]
2.7752976417541504,-0.019149301573634148,0.012006422504782677,0.9689198136329651,-0.24634049832820892,[0. 0. 0. 0. 0. 0. 0. 0. 0.],-0.18310546875,-1.15966796875,-0.18310546875,[0. 0. 0. 0. 0. 0. 0. 0. 0.],-0.03125,0.033203125,1.00537109375,[0. 0. 0. 0. 0. 0. 0. 0. 0.]
2.7961068153381348,-0.019137779250741005,0.012012415565550327,0.9689256548881531,-0.24631786346435547,[0. 0. 0. 0. 0. 0. 0. 0. 0.],-0.06103515625,-0.42724609375,-0.18310546875,[0. 0. 0. 0. 0. 0. 0. 0. 0.],-0.03125,0.03369140625,1.0048828125,[0. 0. 0. 0. 0. 0. 0. 0. 0.]
2.809839963912964,-0.01830248162150383,0.012783677317202091,0.9689346551895142,-0.24630743265151978,[0. 0. 0. 0. 0. 0. 0. 0. 0.],-0.06103515625,-0.244140625,0.0,[0. 0. 0. 0. 0. 0. 0. 0. 0.],-0.029296875,0.0341796875,1.00244140625,[0. 0. 0. 0. 0. 0. 0. 0. 0.]
2.8357083797454834,-0.018922477960586548,0.013206596486270428,0.968928337097168,-0.24626317620277405,[0. 0. 0. 0. 0. 0. 0. 0. 0.],-0.06103515625,-0.6103515625,0.0,[0. 0. 0. 0. 0. 0. 0. 0. 0.],-0.02978515625,0.03466796875,1.00439453125,[0. 0. 0. 0. 0. 0. 0. 0. 0.]
2.8545985221862793,-0.018442369997501373,0.012262522242963314,0.9689608812332153,-0.24622005224227905,[0. 0. 0. 0. 0. 0. 0. 0. 0.],0.06103515625,-0.9765625,-0.3662109375,[0. 0. 0. 0. 0. 0. 0. 0. 0.],-0.029296875,0.03125,1.005859375,[0. 0. 0. 0. 0. 0. 0. 0. 0.]
2.874691963195801,-0.018893497064709663,0.012108588591217995,0.9689642786979675,-0.246180459856987,[0. 0. 0. 0. 0. 0. 0. 0. 0.],0.18310546875,-0.79345703125,-0.244140625,[0. 0. 0. 0. 0. 0. 0. 0. 0.],-0.03076171875,0.03271484375,1.0068359375,[0. 0. 0. 0. 0. 0. 0. 0. 0.]
2.8944485187530518,-0.018517106771469116,0.012449350208044052,0.9689651727676392,-0.24618837237358093,[0. 0. 0. 0. 0. 0. 0. 0. 0.],-0.30517578125,-0.48828125,-0.244140625,[0. 0. 0. 0. 0. 0. 0. 0. 0.],-0.0302734375,0.033203125,1.00390625,[0. 0. 0. 0. 0. 0. 0. 0. 0.]
2.9148271083831787,-0.01889570616185665,0.012168078683316708,0.968974769115448,-0.24613574147224426,[0. 0. 0. 0. 0. 0. 0. 0. 0.],-0.30517578125,-0.30517578125,-0.1220703125,[0. 0. 0. 0. 0. 0. 0. 0. 0.],-0.0302734375,0.03271484375,1.00439453125,[0. 0. 0. 0. 0. 0. 0. 0. 0.]
2.930598258972168,-0.018412521108984947,0.011581948958337307,0.9690008163452148,-0.24609823524951935,[0. 0. 0. 0. 0. 0. 0. 0. 0.],0.06103515625,-0.48828125,-0.06103515625,[0. 0. 0. 0. 0. 0. 0. 0. 0.],-0.0302734375,0.03173828125,1.00634765625,[0. 0. 0. 0. 0. 0. 0. 0. 0.]
2.954861879348755,-0.01842361129820347,0.011620460078120232,0.9690079092979431,-0.24606767296791077,[0. 0. 0. 0. 0. 0. 0. 0. 0.],0.1220703125,-0.9765625,-0.244140625,[0. 0. 0. 0. 0. 0. 0. 0. 0.],-0.0302734375,0.03173828125,1.00634765625,[0. 0. 0. 0. 0. 0. 0. 0. 0.]
2.974611759185791,-0.018871091306209564,0.011471026577055454,0.9690135717391968,-0.24601827561855316,[0. 0. 0. 0. 0. 0. 0. 0. 0.],-0.1220703125,-1.28173828125,-0.244140625,[0. 0. 0. 0. 0. 0. 0. 0. 0.],-0.03125,0.03173828125,1.005859375,[0. 0. 0. 0. 0. 0. 0. 0. 0.]
2.9959514141082764,-0.019307419657707214,0.012901611626148224,0.9689900279045105,-0.24600668251514435,[0. 0. 0. 0. 0. 0. 0. 0. 0.],0.30517578125,-0.91552734375,-0.18310546875,[0. 0. 0. 0. 0. 0. 0. 0. 0.],-0.03125,0.03466796875,1.005859375,[0. 0. 0. 0. 0. 0. 0. 0. 0.]
3.0148444175720215,-0.01876719295978546,0.013112190179526806,0.9689987897872925,-0.24600248038768768,[0. 0. 0. 0. 0. 0. 0. 0. 0.],0.06103515625,-0.18310546875,-0.18310546875,[0. 0. 0. 0. 0. 0. 0. 0. 0.],-0.0302734375,0.03466796875,1.005859375,[0. 0. 0. 0. 0. 0. 0. 0. 0.]
3.0351576805114746,-0.018671587109565735,0.01253330148756504,0.9690189361572266,-0.24596081674098969,[0. 0. 0. 0. 0. 0. 0. 0. 0.],0.06103515625,-0.6103515625,-0.18310546875,[0. 0. 0. 0. 0. 0. 0. 0. 0.],-0.0302734375,0.03369140625,1.0048828125,[0. 0. 0. 0. 0. 0. 0. 0. 0.]
3.0497405529022217,-0.018337948247790337,0.01271909661591053,0.9690279960632324,-0.245940700173378,[0. 0. 0. 0. 0. 0. 0. 0. 0.],0.0,-0.79345703125,-0.244140625,[0. 0. 0. 0. 0. 0. 0. 0. 0.],-0.02978515625,0.0341796875,1.00537109375,[0. 0. 0. 0. 0. 0. 0. 0. 0.]
3.074944257736206,-0.018375277519226074,0.012913360260426998,0.9690293669700623,-0.24592244625091553,[0. 0. 0. 0. 0. 0. 0. 0. 0.],0.30517578125,-0.91552734375,-0.244140625,[0. 0. 0. 0. 0. 0. 0. 0. 0.],-0.029296875,0.03466796875,1.0048828125,[0. 0. 0. 0. 0. 0. 0. 0. 0.]
3.0896153450012207,-0.018672285601496696,0.012714044190943241,0.9690349698066711,-0.24588832259178162,[0. 0. 0. 0. 0. 0. 0. 0. 0.],0.0,-0.67138671875,-0.1220703125,[0. 0. 0. 0. 0. 0. 0. 0. 0.],-0.0302734375,0.033203125,1.00341796875,[0. 0. 0. 0. 0. 0. 0. 0. 0.]
3.114685297012329,-0.018778493627905846,0.011813768185675144,0.9690560698509216,-0.24584195017814636,[0. 0. 0. 0. 0. 0. 0. 0. 0.],-0.3662109375,-0.54931640625,-0.06103515625,[0. 0. 0. 0. 0. 0. 0. 0. 0.],-0.03076171875,0.0322265625,1.00537109375,[0. 0. 0. 0. 0. 0. 0. 0. 0.]
3.1359546184539795,-0.019443148747086525,0.012454984709620476,0.9690426588058472,-0.2458113729953766,[0. 0. 0. 0. 0. 0. 0. 0. 0.],-0.18310546875,-0.42724609375,0.06103515625,[0. 0. 0. 0. 0. 0. 0. 0. 0.],-0.03173828125,0.03369140625,1.00439453125,[0. 0. 0. 0. 0. 0. 0. 0. 0.]
3.155189275741577,-0.018375098705291748,0.012941726483404636,0.9690610766410828,-0.24579569697380066,[0. 0. 0. 0. 0. 0. 0. 0. 0.],0.0,-0.18310546875,-0.18310546875,[0. 0. 0. 0. 0. 0. 0. 0. 0.],-0.029296875,0.03466796875,1.00634765625,[0. 0. 0. 0. 0. 0. 0. 0. 0.]
3.175389289855957,-0.018374569714069366,0.012979167513549328,0.9690651297569275,-0.24577786028385162,[0. 0. 0. 0. 0. 0. 0. 0. 0.],0.06103515625,-0.9765625,-0.18310546875,[0. 0. 0. 0. 0. 0. 0. 0. 0.],-0.029296875,0.0341796875,1.0068359375,[0. 0. 0. 0. 0. 0. 0. 0. 0.]
3.1987104415893555,-0.01793401502072811,0.012969687581062317,0.9690811634063721,-0.24574759602546692,[0. 0. 0. 0. 0. 0. 0. 0. 0.],-0.06103515625,-1.220703125,-0.244140625,[0. 0. 0. 0. 0. 0. 0. 0. 0.],-0.02880859375,0.03466796875,1.00244140625,[0. 0. 0. 0. 0. 0. 0. 0. 0.]
3.2095577716827393,-0.01899968460202217,0.013037219643592834,0.969070553779602,-0.2457057237625122,[0. 0. 0. 0. 0. 0. 0. 0. 0.],-0.244140625,-0.1220703125,0.0,[0. 0. 0. 0. 0. 0. 0. 0. 0.],-0.03076171875,0.03515625,1.00341796875,[0. 0. 0. 0. 0. 0. 0. 0. 0.]
3.2359585762023926,-0.019574880599975586,0.01234608143568039,0.9690833687782288,-0.24564561247825623,[0. 0. 0. 0. 0. 0. 0. 0. 0.],-0.244140625,-0.1220703125,-0.06103515625,[0. 0. 0. 0. 0. 0. 0. 0. 0.],-0.0322265625,0.033203125,1.0029296875,[0. 0. 0. 0. 0. 0. 0. 0. 0.]
3.249784231185913,-0.01864195615053177,0.012050731107592583,0.9691076278686523,-0.24563759565353394,[0. 0. 0. 0. 0. 0. 0. 0. 0.],-0.18310546875,-1.0986328125,-0.06103515625,[0. 0. 0. 0. 0. 0. 0. 0. 0.],-0.03076171875,0.03271484375,1.00390625,[0. 0. 0. 0. 0. 0. 0. 0. 0.]
3.279445171356201,-0.01860436052083969,0.012322837486863136,0.9691118001937866,-0.24561038613319397,[0. 0. 0. 0. 0. 0. 0. 0. 0.],0.0,-1.03759765625,-0.30517578125,[0. 0. 0. 0. 0. 0. 0. 0. 0.],-0.0302734375,0.033203125,1.0048828125,[0. 0. 0. 0. 0. 0. 0. 0. 0.]
3.2945330142974854,-0.01932208426296711,0.012427867390215397,0.9691006541252136,-0.24559345841407776,[0. 0. 0. 0. 0. 0. 0. 0. 0.],-0.06103515625,-0.30517578125,-0.1220703125,[0. 0. 0. 0. 0. 0. 0. 0. 0.],-0.03125,0.0341796875,1.0029296875,[0. 0. 0. 0. 0. 0. 0. 0. 0.]
3.314890146255493,-0.017922930419445038,0.012278511188924313,0.9691318273544312,-0.2455839067697525,[0. 0. 0. 0. 0. 0. 0. 0. 0.],-0.244140625,-0.48828125,-0.06103515625,[0. 0. 0. 0. 0. 0. 0. 0. 0.],-0.029296875,0.03271484375,1.00244140625,[0. 0. 0. 0. 0. 0. 0. 0. 0.]
3.3346948623657227,-0.018242457881569862,0.012136529199779034,0.9691363573074341,-0.24554981291294098,[0. 0. 0. 0. 0. 0. 0. 0. 0.],-0.244140625,-0.732421875,-0.06103515625,[0. 0. 0. 0. 0. 0. 0. 0. 0.],-0.02978515625,0.03271484375,1.00537109375,[0. 0. 0. 0. 0. 0. 0. 0. 0.]
3.356619119644165,-0.01939704641699791,0.012370418757200241,0.9691257476806641,-0.24549148976802826,[0. 0. 0. 0. 0. 0. 0. 0. 0.],0.06103515625,-0.48828125,-0.06103515625,[0. 0. 0. 0. 0. 0. 0. 0. 0.],-0.03173828125,0.03369140625,1.00439453125,[0. 0. 0. 0. 0. 0. 0. 0. 0.]
3.3745296001434326,-0.019295506179332733,0.012431380338966846,0.9691306948661804,-0.24547716975212097,[0. 0. 0. 0. 0. 0. 0. 0. 0.],0.06103515625,-0.732421875,-0.244140625,[0. 0. 0. 0. 0. 0. 0. 0. 0.],-0.03125,0.03369140625,1.0048828125,[0. 0. 0. 0. 0. 0. 0. 0. 0.]
3.3956077098846436,-0.018194638192653656,0.01320104394108057,0.9691401124000549,-0.24548335373401642,[0. 0. 0. 0. 0. 0. 0. 0. 0.],-0.244140625,-1.03759765625,-0.18310546875,[0. 0. 0. 0. 0. 0. 0. 0. 0.],-0.029296875,0.03515625,1.00439453125,[0. 0. 0. 0. 0. 0. 0. 0. 0.]
3.4146673679351807,-0.018858134746551514,0.012472681701183319,0.9691460132598877,-0.2454485446214676,[0. 0. 0. 0. 0. 0. 0. 0. 0.],-0.30517578125,-0.244140625,0.1220703125,[0. 0. 0. 0. 0. 0. 0. 0. 0.],-0.03125,0.03369140625,1.0048828125,[0. 0. 0. 0. 0. 0. 0. 0. 0.]
3.42995548248291,-0.01984226517379284,0.0113258957862854,0.969156801700592,-0.24538373947143555,[0. 0. 0. 0. 0. 0. 0. 0. 0.],0.18310546875,-0.54931640625,-0.06103515625,[0. 0. 0. 0. 0. 0. 0. 0. 0.],-0.033203125,0.03173828125,1.00439453125,[0. 0. 0. 0. 0. 0. 0. 0. 0.]
3.4546937942504883,-0.01932210475206375,0.01272351760417223,0.9691498279571533,-0.24538420140743256,[0. 0. 0. 0. 0. 0. 0. 0. 0.],0.244140625,-0.9765625,-0.30517578125,[0. 0. 0. 0. 0. 0. 0. 0. 0.],-0.03076171875,0.0341796875,1.00390625,[0. 0. 0. 0. 0. 0. 0. 0. 0.]
3.474823474884033,-0.01776173897087574,0.012771982699632645,0.9691758751869202,-0.24539652466773987,[0. 0. 0. 0. 0. 0. 0. 0. 0.],-0.244140625,-1.03759765625,-0.18310546875,[0. 0. 0. 0. 0. 0. 0. 0. 0.],-0.0283203125,0.033203125,1.00634765625,[0. 0. 0. 0. 0. 0. 0. 0. 0.]
3.4945313930511475,-0.017845043912529945,0.012597342021763325,0.9691855907440186,-0.24536114931106567,[0. 0. 0. 0. 0. 0. 0. 0. 0.],-0.42724609375,-0.48828125,-0.1220703125,[0. 0. 0. 0. 0. 0. 0. 0. 0.],-0.029296875,0.0341796875,1.00439453125,[0. 0. 0. 0. 0. 0. 0. 0. 0.]
3.518028974533081,-0.018360650166869164,0.01158875972032547,0.9692079424858093,-0.24528475105762482,[0. 0. 0. 0. 0. 0. 0. 0. 0.],0.244140625,-1.0986328125,-0.244140625,[0. 0. 0. 0. 0. 0. 0. 0. 0.],-0.0302734375,0.03173828125,1.00732421875,[0. 0. 0. 0. 0. 0. 0. 0. 0.]
3.5346479415893555,-0.018531696870923042,0.012251223437488079,0.9691970348358154,-0.24528272449970245,[0. 0. 0. 0. 0. 0. 0. 0. 0.],-0.18310546875,-0.42724609375,-0.06103515625,[0. 0. 0. 0. 0. 0. 0. 0. 0.],-0.0302734375,0.033203125,1.00634765625,[0. 0. 0. 0. 0. 0. 0. 0. 0.]
3.552511215209961,-0.018297526985406876,0.013342073187232018,0.9691926836967468,-0.24526061117649078,[0. 0. 0. 0. 0. 0. 0. 0. 0.],-0.18310546875,-0.30517578125,-0.18310546875,[0. 0. 0. 0. 0. 0. 0. 0. 0.],-0.029296875,0.03466796875,1.00439453125,[0. 0. 0. 0. 0. 0. 0. 0. 0.]
3.574869155883789,-0.018704283982515335,0.013250324875116348,0.9691962599754333,-0.2452208548784256,[0. 0. 0. 0. 0. 0. 0. 0. 0.],0.1220703125,-0.9765625,-0.244140625,[0. 0. 0. 0. 0. 0. 0. 0. 0.],-0.029296875,0.0341796875,1.00390625,[0. 0. 0. 0. 0. 0. 0. 0. 0.]
3.599544048309326,-0.01904008723795414,0.012875095941126347,0.9692039489746094,-0.24518431723117828,[0. 0. 0. 0. 0. 0. 0. 0. 0.],0.18310546875,-0.9765625,-0.244140625,[0. 0. 0. 0. 0. 0. 0. 0. 0.],-0.03076171875,0.03466796875,1.00732421875,[0. 0. 0. 0. 0. 0. 0. 0. 0.]
3.614762544631958,-0.01910267397761345,0.01290659885853529,0.9692036509513855,-0.24517934024333954,[0. 0. 0. 0. 0. 0. 0. 0. 0.],-0.48828125,-0.42724609375,0.0,[0. 0. 0. 0. 0. 0. 0. 0. 0.],-0.03125,0.0341796875,1.00537109375,[0. 0. 0. 0. 0. 0. 0. 0. 0.]
3.6363277435302734,-0.017943991348147392,0.013338534161448479,0.969220757484436,-0.24517589807510376,[0. 0. 0. 0. 0. 0. 0. 0. 0.],-0.30517578125,-0.54931640625,-0.06103515625,[0. 0. 0. 0. 0. 0. 0. 0. 0.],-0.02880859375,0.03564453125,1.00634765625,[0. 0. 0. 0. 0. 0. 0. 0. 0.]
3.655773401260376,-0.018937738612294197,0.01299253385514021,0.9692192077636719,-0.24512599408626556,[0. 0. 0. 0. 0. 0. 0. 0. 0.],0.18310546875,-0.67138671875,-0.244140625,[0. 0. 0. 0. 0. 0. 0. 0. 0.],-0.03076171875,0.0341796875,1.0048828125,[0. 0. 0. 0. 0. 0. 0. 0. 0.]
3.6745357513427734,-0.018429430201649666,0.011707124300301075,0.9692546725273132,-0.24508951604366302,[0. 0. 0. 0. 0. 0. 0. 0. 0.],0.0,-0.8544921875,-0.244140625,[0. 0. 0. 0. 0. 0. 0. 0. 0.],-0.0302734375,0.03173828125,1.00439453125,[0. 0. 0. 0. 0. 0. 0. 0. 0.]
3.6945557594299316,-0.018834779039025307,0.012570131570100784,0.9692422151565552,-0.24506479501724243,[0. 0. 0. 0. 0. 0. 0. 0. 0.],-0.42724609375,-0.6103515625,-0.1220703125,[0. 0. 0. 0. 0. 0. 0. 0. 0.],-0.03125,0.03515625,1.0048828125,[0. 0. 0. 0. 0. 0. 0. 0. 0.]
3.7145698070526123,-0.019181780517101288,0.012386707589030266,0.9692481756210327,-0.2450241893529892,[0. 0. 0. 0. 0. 0. 0. 0. 0.],-0.30517578125,-0.244140625,-0.06103515625,[0. 0. 0. 0. 0. 0. 0. 0. 0.],-0.03125,0.03369140625,1.00390625,[0. 0. 0. 0. 0. 0. 0. 0. 0.]
3.734811305999756,-0.01940051279962063,0.012179183773696423,0.969258189201355,-0.2449774295091629,[0. 0. 0. 0. 0. 0. 0. 0. 0.],0.18310546875,-0.42724609375,-0.1220703125,[0. 0. 0. 0. 0. 0. 0. 0. 0.],-0.03173828125,0.033203125,1.005859375,[0. 0. 0. 0. 0. 0. 0. 0. 0.]
3.758301019668579,-0.01888762228190899,0.012431656010448933,0.9692696332931519,-0.24495920538902283,[0. 0. 0. 0. 0. 0. 0. 0. 0.],-0.1220703125,-0.732421875,-0.1220703125,[0. 0. 0. 0. 0. 0. 0. 0. 0.],-0.03076171875,0.03369140625,1.0078125,[0. 0. 0. 0. 0. 0. 0. 0. 0.]
3.774392604827881,-0.018704470247030258,0.01297898031771183,0.9692661762237549,-0.244958758354187,[0. 0. 0. 0. 0. 0. 0. 0. 0.],-0.18310546875,-1.0986328125,-0.1220703125,[0. 0. 0. 0. 0. 0. 0. 0. 0.],-0.0302734375,0.03466796875,1.00732421875,[0. 0. 0. 0. 0. 0. 0. 0. 0.]
3.794487953186035,-0.019167430698871613,0.0127369724214077,0.9692662954330444,-0.2449352741241455,[0. 0. 0. 0. 0. 0. 0. 0. 0.],-0.1220703125,-0.18310546875,0.06103515625,[0. 0. 0. 0. 0. 0. 0. 0. 0.],-0.03125,0.03466796875,1.00341796875,[0. 0. 0. 0. 0. 0. 0. 0. 0.]
3.8121519088745117,-0.018320169299840927,0.012228949926793575,0.9692986011505127,-0.24489791691303253,[0. 0. 0. 0. 0. 0. 0. 0. 0.],-0.30517578125,-0.48828125,0.0,[0. 0. 0. 0. 0. 0. 0. 0. 0.],-0.02978515625,0.03271484375,1.00439453125,[0. 0. 0. 0. 0. 0. 0. 0. 0.]
3.8346948623657227,-0.01792186312377453,0.011797324754297733,0.9693188071250916,-0.24486900866031647,[0. 0. 0. 0. 0. 0. 0. 0. 0.],-0.244140625,-0.8544921875,-0.18310546875,[0. 0. 0. 0. 0. 0. 0. 0. 0.],-0.02978515625,0.0322265625,1.0078125,[0. 0. 0. 0. 0. 0. 0. 0. 0.]
3.854529857635498,-0.018681664019823074,0.012074867263436317,0.9693077802658081,-0.24484199285507202,[0. 0. 0. 0. 0. 0. 0. 0. 0.],0.06103515625,-1.0986328125,-0.18310546875,[0. 0. 0. 0. 0. 0. 0. 0. 0.],-0.03076171875,0.033203125,1.00390625,[0. 0. 0. 0. 0. 0. 0. 0. 0.]
3.8709402084350586,-0.01891169138252735,0.012404195964336395,0.9693019986152649,-0.24483083188533783,[0. 0. 0. 0. 0. 0. 0. 0. 0.],-0.06103515625,-0.79345703125,-0.1220703125,[0. 0. 0. 0. 0. 0. 0. 0. 0.],-0.03076171875,0.03271484375,1.0048828125,[0. 0. 0. 0. 0. 0. 0. 0. 0.]
3.8945324420928955,-0.01924036256968975,0.012089627794921398,0.9693086743354797,-0.24479450285434723,[0. 0. 0. 0. 0. 0. 0. 0. 0.],-0.18310546875,-0.30517578125,-0.06103515625,[0. 0. 0. 0. 0. 0. 0. 0. 0.],-0.03173828125,0.033203125,1.00439453125,[0. 0. 0. 0. 0. 0. 0. 0. 0.]
3.9150376319885254,-0.019088737666606903,0.01336070615798235,0.9692975878715515,-0.2447846382856369,[0. 0. 0. 0. 0. 0. 0. 0. 0.],-0.3662109375,-0.42724609375,0.0,[0. 0. 0. 0. 0. 0. 0. 0. 0.],-0.03125,0.03515625,1.0048828125,[0. 0. 0. 0. 0. 0. 0. 0. 0.]
3.9345126152038574,-0.018752671778202057,0.012071696110069752,0.9693318605422974,-0.24474181234836578,[0. 0. 0. 0. 0. 0. 0. 0. 0.],0.0,-0.6103515625,-0.244140625,[0. 0. 0. 0. 0. 0. 0. 0. 0.],-0.03076171875,0.033203125,1.00732421875,[0. 0. 0. 0. 0. 0. 0. 0. 0.]
3.9582607746124268,-0.018709467723965645,0.011623102240264416,0.9693478345870972,-0.244703009724617,[0. 0. 0. 0. 0. 0. 0. 0. 0.],0.18310546875,-0.79345703125,-0.1220703125,[0. 0. 0. 0. 0. 0. 0. 0. 0.],-0.03076171875,0.0322265625,1.00439453125,[0. 0. 0. 0. 0. 0. 0. 0. 0.]
3.974407196044922,-0.018731819465756416,0.012645258568227291,0.9693350195884705,-0.24470144510269165,[0. 0. 0. 0. 0. 0. 0. 0. 0.],-0.244140625,-1.15966796875,-0.244140625,[0. 0. 0. 0. 0. 0. 0. 0. 0.],-0.03076171875,0.03369140625,1.00341796875,[0. 0. 0. 0. 0. 0. 0. 0. 0.]
4.0003662109375,-0.018911903724074364,0.011951444670557976,0.9693514704704285,-0.24465727806091309,[0. 0. 0. 0. 0. 0. 0. 0. 0.],0.06103515625,-1.28173828125,-0.18310546875,[0. 0. 0. 0. 0. 0. 0. 0. 0.],-0.03076171875,0.0322265625,1.00537109375,[0. 0. 0. 0. 0. 0. 0. 0. 0.]
4.014528512954712,-0.01864532195031643,0.011763690039515495,0.9693636894226074,-0.2446388304233551,[0. 0. 0. 0. 0. 0. 0. 0. 0.],-0.06103515625,-0.06103515625,-0.06103515625,[0. 0. 0. 0. 0. 0. 0. 0. 0.],-0.03076171875,0.0322265625,1.00537109375,[0. 0. 0. 0. 0. 0. 0. 0. 0.]
4.035808324813843,-0.01995820552110672,0.01253107376396656,0.969336986541748,-0.24460257589817047,[0. 0. 0. 0. 0. 0. 0. 0. 0.],-0.3662109375,-0.42724609375,-0.06103515625,[0. 0. 0. 0. 0. 0. 0. 0. 0.],-0.03271484375,0.03466796875,1.00390625,[0. 0. 0. 0. 0. 0. 0. 0. 0.]
4.054682970046997,-0.01863863319158554,0.012839636765420437,0.9693603515625,-0.2445983737707138,[0. 0. 0. 0. 0. 0. 0. 0. 0.],-0.06103515625,-1.0986328125,-0.244140625,[0. 0. 0. 0. 0. 0. 0. 0. 0.],-0.02978515625,0.0341796875,1.00537109375,[0. 0. 0. 0. 0. 0. 0. 0. 0.]
4.07475209236145,-0.01839696243405342,0.01208213809877634,0.9693803787231445,-0.24457594752311707,[0. 0. 0. 0. 0. 0. 0. 0. 0.],0.0,-0.9765625,-0.1220703125,[0. 0. 0. 0. 0. 0. 0. 0. 0.],-0.02978515625,0.0322265625,1.0048828125,[0. 0. 0. 0. 0. 0. 0. 0. 0.]
4.096386909484863,-0.019078336656093597,0.012204397469758987,0.9693740010261536,-0.2445429265499115,[0. 0. 0. 0. 0. 0. 0. 0. 0.],0.0,-0.48828125,-0.18310546875,[0. 0. 0. 0. 0. 0. 0. 0. 0.],-0.03076171875,0.033203125,1.00390625,[0. 0. 0. 0. 0. 0. 0. 0. 0.]
4.117279291152954,-0.019750667735934258,0.01226421445608139,0.9693689942359924,-0.24450618028640747,[0. 0. 0. 0. 0. 0. 0. 0. 0.],-0.3662109375,-0.67138671875,-0.06103515625,[0. 0. 0. 0. 0. 0. 0. 0. 0.],-0.03271484375,0.0341796875,1.00390625,[0. 0. 0. 0. 0. 0. 0. 0. 0.]
4.134493350982666,-0.0185299813747406,0.01232666801661253,0.9693950414657593,-0.24449549615383148,[0. 0. 0. 0. 0. 0. 0. 0. 0.],-0.18310546875,-0.6103515625,-0.18310546875,[0. 0. 0. 0. 0. 0. 0. 0. 0.],-0.03076171875,0.03271484375,1.00390625,[0. 0. 0. 0. 0. 0. 0. 0. 0.]
4.154627323150635,-0.018605470657348633,0.011860822327435017,0.9694084525108337,-0.24445970356464386,[0. 0. 0. 0. 0. 0. 0. 0. 0.],0.30517578125,-0.8544921875,-0.18310546875,[0. 0. 0. 0. 0. 0. 0. 0. 0.],-0.0302734375,0.03173828125,1.00732421875,[0. 0. 0. 0. 0. 0. 0. 0. 0.]
4.169745445251465,-0.018708618357777596,0.01184156071394682,0.9694123864173889,-0.2444368600845337,[0. 0. 0. 0. 0. 0. 0. 0. 0.],0.0,-0.79345703125,-0.1220703125,[0. 0. 0. 0. 0. 0. 0. 0. 0.],-0.03125,0.0322265625,1.00341796875,[0. 0. 0. 0. 0. 0. 0. 0. 0.]
4.190614938735962,-0.01892748475074768,0.012715840712189674,0.9694011211395264,-0.24442066252231598,[0. 0. 0. 0. 0. 0. 0. 0. 0.],-0.42724609375,-0.48828125,-0.18310546875,[0. 0. 0. 0. 0. 0. 0. 0. 0.],-0.03076171875,0.03466796875,1.005859375,[0. 0. 0. 0. 0. 0. 0. 0. 0.]
4.214585304260254,-0.01872711256146431,0.012787733227014542,0.9694150686264038,-0.24437738955020905,[0. 0. 0. 0. 0. 0. 0. 0. 0.],-0.18310546875,-0.244140625,-0.06103515625,[0. 0. 0. 0. 0. 0. 0. 0. 0.],-0.0302734375,0.0341796875,1.0048828125,[0. 0. 0. 0. 0. 0. 0. 0. 0.]
4.236530780792236,-0.01784389093518257,0.013231142424046993,0.9694280624389648,-0.24436798691749573,[0. 0. 0. 0. 0. 0. 0. 0. 0.],0.0,-0.1220703125,0.0,[0. 0. 0. 0. 0. 0. 0. 0. 0.],-0.0283203125,0.03466796875,1.005859375,[0. 0. 0. 0. 0. 0. 0. 0. 0.]
4.25360631942749,-0.018008138984441757,0.01287583727389574,0.9694378972053528,-0.24433638155460358,[0. 0. 0. 0. 0. 0. 0. 0. 0.],0.0,-1.220703125,-0.30517578125,[0. 0. 0. 0. 0. 0. 0. 0. 0.],-0.02880859375,0.0341796875,1.00732421875,[0. 0. 0. 0. 0. 0. 0. 0. 0.]
4.274609565734863,-0.018878862261772156,0.013270612806081772,0.9694257378578186,-0.24429789185523987,[0. 0. 0. 0. 0. 0. 0. 0. 0.],-0.30517578125,-1.03759765625,-0.30517578125,[0. 0. 0. 0. 0. 0. 0. 0. 0.],-0.0302734375,0.03515625,1.00146484375,[0. 0. 0. 0. 0. 0. 0. 0. 0.]
4.2946624755859375,-0.018394142389297485,0.012418863363564014,0.969451904296875,-0.2442755252122879,[0. 0. 0. 0. 0. 0. 0. 0. 0.],-0.1220703125,-0.244140625,0.06103515625,[0. 0. 0. 0. 0. 0. 0. 0. 0.],-0.0302734375,0.03369140625,1.001953125,[0. 0. 0. 0. 0. 0. 0. 0. 0.]
4.3144614696502686,-0.01867215521633625,0.012005713768303394,0.9694626927375793,-0.24423249065876007,[0. 0. 0. 0. 0. 0. 0. 0. 0.],-0.06103515625,-0.18310546875,-0.06103515625,[0. 0. 0. 0. 0. 0. 0. 0. 0.],-0.03076171875,0.03271484375,1.00537109375,[0. 0. 0. 0. 0. 0. 0. 0. 0.]
4.33452296257019,-0.018984535709023476,0.012025246396660805,0.9694637656211853,-0.24420282244682312,[0. 0. 0. 0. 0. 0. 0. 0. 0.],-0.244140625,-0.91552734375,-0.18310546875,[0. 0. 0. 0. 0. 0. 0. 0. 0.],-0.03125,0.0322265625,1.0048828125,[0. 0. 0. 0. 0. 0. 0. 0. 0.]
4.355327367782593,-0.01855934038758278,0.012442328035831451,0.9694697856903076,-0.2441907525062561,[0. 0. 0. 0. 0. 0. 0. 0. 0.],-0.06103515625,-1.0986328125,-0.30517578125,[0. 0. 0. 0. 0. 0. 0. 0. 0.],-0.0302734375,0.03271484375,1.0048828125,[0. 0. 0. 0. 0. 0. 0. 0. 0.]
4.37481427192688,-0.018883634358644485,0.01162084098905325,0.9694847464561462,-0.24414685368537903,[0. 0. 0. 0. 0. 0. 0. 0. 0.],0.18310546875,-0.54931640625,-0.244140625,[0. 0. 0. 0. 0. 0. 0. 0. 0.],-0.03076171875,0.0322265625,1.00537109375,[0. 0. 0. 0. 0. 0. 0. 0. 0.]
4.396446228027344,-0.019739605486392975,0.012057449668645859,0.9694733023643494,-0.24410337209701538,[0. 0. 0. 0. 0. 0. 0. 0. 0.],-0.30517578125,-0.79345703125,-0.18310546875,[0. 0. 0. 0. 0. 0. 0. 0. 0.],-0.03271484375,0.03369140625,1.00341796875,[0. 0. 0. 0. 0. 0. 0. 0. 0.]
4.414834022521973,-0.01922641322016716,0.012678437866270542,0.9694817066192627,-0.24407970905303955,[0. 0. 0. 0. 0. 0. 0. 0. 0.],-0.30517578125,-0.48828125,0.0,[0. 0. 0. 0. 0. 0. 0. 0. 0.],-0.03125,0.03466796875,1.0029296875,[0. 0. 0. 0. 0. 0. 0. 0. 0.]
4.433435440063477,-0.019580170512199402,0.012583180330693722,0.9694854617118835,-0.24404144287109375,[0. 0. 0. 0. 0. 0. 0. 0. 0.],-0.1220703125,-0.1220703125,-0.06103515625,[0. 0. 0. 0. 0. 0. 0. 0. 0.],-0.0322265625,0.0341796875,1.0048828125,[0. 0. 0. 0. 0. 0. 0. 0. 0.]
4.455119848251343,-0.019484201446175575,0.011841473169624805,0.96950763463974,-0.24399857223033905,[0. 0. 0. 0. 0. 0. 0. 0. 0.],0.244140625,-0.91552734375,-0.244140625,[0. 0. 0. 0. 0. 0. 0. 0. 0.],-0.0322265625,0.03271484375,1.00244140625,[0. 0. 0. 0. 0. 0. 0. 0. 0.]
4.474510192871094,-0.01971421018242836,0.012819997034966946,0.9694938063621521,-0.2439851015806198,[0. 0. 0. 0. 0. 0. 0. 0. 0.],-0.18310546875,-1.220703125,-0.244140625,[0. 0. 0. 0. 0. 0. 0. 0. 0.],-0.0322265625,0.03466796875,1.00390625,[0. 0. 0. 0. 0. 0. 0. 0. 0.]
4.495628356933594,-0.01847427897155285,0.012894906103610992,0.9695224165916443,-0.24396471679210663,[0. 0. 0. 0. 0. 0. 0. 0. 0.],0.06103515625,-0.9765625,-0.30517578125,[0. 0. 0. 0. 0. 0. 0. 0. 0.],-0.0302734375,0.0341796875,1.00634765625,[0. 0. 0. 0. 0. 0. 0. 0. 0.]
4.509608268737793,-0.018629224970936775,0.012941055931150913,0.9695225954055786,-0.24394968152046204,[0. 0. 0. 0. 0. 0. 0. 0. 0.],0.06103515625,-0.06103515625,0.06103515625,[0. 0. 0. 0. 0. 0. 0. 0. 0.],-0.02978515625,0.0341796875,1.00341796875,[0. 0. 0. 0. 0. 0. 0. 0. 0.]
4.534518003463745,-0.01861216314136982,0.012800873257219791,0.9695318937301636,-0.2439212203025818,[0. 0. 0. 0. 0. 0. 0. 0. 0.],-0.06103515625,-0.42724609375,-0.1220703125,[0. 0. 0. 0. 0. 0. 0. 0. 0.],-0.02978515625,0.03369140625,1.00390625,[0. 0. 0. 0. 0. 0. 0. 0. 0.]
4.557028532028198,-0.01821731962263584,0.012251847423613071,0.9695549607276917,-0.24388794600963593,[0. 0. 0. 0. 0. 0. 0. 0. 0.],0.0,-1.0986328125,-0.18310546875,[0. 0. 0. 0. 0. 0. 0. 0. 0.],-0.02978515625,0.0322265625,1.00634765625,[0. 0. 0. 0. 0. 0. 0. 0. 0.]
4.574870347976685,-0.019635239616036415,0.011691807769238949,0.9695471525192261,-0.24383626878261566,[0. 0. 0. 0. 0. 0. 0. 0. 0.],0.0,-0.8544921875,-0.06103515625,[0. 0. 0. 0. 0. 0. 0. 0. 0.],-0.0322265625,0.03271484375,1.00341796875,[0. 0. 0. 0. 0. 0. 0. 0. 0.]
4.594516277313232,-0.01989687606692314,0.012509176507592201,0.9695358872413635,-0.24381941556930542,[0. 0. 0. 0. 0. 0. 0. 0. 0.],0.0,-0.42724609375,0.0,[0. 0. 0. 0. 0. 0. 0. 0. 0.],-0.03271484375,0.0341796875,1.00439453125,[0. 0. 0. 0. 0. 0. 0. 0. 0.]
4.614991664886475,-0.01886812038719654,0.013349642977118492,0.9695460200309753,-0.24381625652313232,[0. 0. 0. 0. 0. 0. 0. 0. 0.],-0.42724609375,-0.732421875,-0.1220703125,[0. 0. 0. 0. 0. 0. 0. 0. 0.],-0.03076171875,0.03515625,1.00439453125,[0. 0. 0. 0. 0. 0. 0. 0. 0.]
4.634844779968262,-0.01896427385509014,0.012318332679569721,0.9695682525634766,-0.24377457797527313,[0. 0. 0. 0. 0. 0. 0. 0. 0.],-0.18310546875,-0.732421875,0.0,[0. 0. 0. 0. 0. 0. 0. 0. 0.],-0.03076171875,0.03369140625,1.00634765625,[0. 0. 0. 0. 0. 0. 0. 0. 0.]
4.655204772949219,-0.01831233501434326,0.013370535336434841,0.96956467628479,-0.2437833994626999,[0. 0. 0. 0. 0. 0. 0. 0. 0.],0.244140625,-1.03759765625,-0.244140625,[0. 0. 0. 0. 0. 0. 0. 0. 0.],-0.029296875,0.03515625,1.00830078125,[0. 0. 0. 0. 0. 0. 0. 0. 0.]
4.674850940704346,-0.018859535455703735,0.013332584872841835,0.9695613384246826,-0.2437569946050644,[0. 0. 0. 0. 0. 0. 0. 0. 0.],0.0,-0.732421875,-0.244140625,[0. 0. 0. 0. 0. 0. 0. 0. 0.],-0.0302734375,0.03515625,1.00341796875,[0. 0. 0. 0. 0. 0. 0. 0. 0.]
4.691880226135254,-0.01839606463909149,0.01270267367362976,0.9695859551429749,-0.24372801184654236,[0. 0. 0. 0. 0. 0. 0. 0. 0.],-0.244140625,-1.03759765625,-0.06103515625,[0. 0. 0. 0. 0. 0. 0. 0. 0.],-0.02978515625,0.03369140625,1.00244140625,[0. 0. 0. 0. 0. 0. 0. 0. 0.]
4.714684963226318,-0.018624011427164078,0.012154392898082733,0.9695993661880493,-0.2436850666999817,[0. 0. 0. 0. 0. 0. 0. 0. 0.],-0.1220703125,-0.3662109375,-0.1220703125,[0. 0. 0. 0. 0. 0. 0. 0. 0.],-0.0302734375,0.03271484375,1.0048828125,[0. 0. 0. 0. 0. 0. 0. 0. 0.]
4.734652996063232,-0.019206078723073006,0.012755301780998707,0.9695876836776733,-0.24365565180778503,[0. 0. 0. 0. 0. 0. 0. 0. 0.],0.1220703125,-0.67138671875,-0.18310546875,[0. 0. 0. 0. 0. 0. 0. 0. 0.],-0.03125,0.0341796875,1.0068359375,[0. 0. 0. 0. 0. 0. 0. 0. 0.]
4.755023002624512,-0.019615240395069122,0.013194623403251171,0.9695810079574585,-0.2436264306306839,[0. 0. 0. 0. 0. 0. 0. 0. 0.],0.0,-1.03759765625,-0.244140625,[0. 0. 0. 0. 0. 0. 0. 0. 0.],-0.03173828125,0.03515625,1.00634765625,[0. 0. 0. 0. 0. 0. 0. 0. 0.]
4.774509429931641,-0.01845596171915531,0.013340667821466923,0.9696001410484314,-0.24363282322883606,[0. 0. 0. 0. 0. 0. 0. 0. 0.],-0.244140625,-0.91552734375,-0.1220703125,[0. 0. 0. 0. 0. 0. 0. 0. 0.],-0.02978515625,0.03515625,1.0029296875,[0. 0. 0. 0. 0. 0. 0. 0. 0.]
4.791738986968994,-0.018286986276507378,0.012442260980606079,0.9696271419525146,-0.2435854971408844,[0. 0. 0. 0. 0. 0. 0. 0. 0.],0.06103515625,-0.42724609375,-0.18310546875,[0. 0. 0. 0. 0. 0. 0. 0. 0.],-0.02978515625,0.033203125,1.00439453125,[0. 0. 0. 0. 0. 0. 0. 0. 0.]
4.814425230026245,-0.01845169998705387,0.011931500397622585,0.9696394801139832,-0.24354948103427887,[0. 0. 0. 0. 0. 0. 0. 0. 0.],-0.06103515625,-0.30517578125,-0.1220703125,[0. 0. 0. 0. 0. 0. 0. 0. 0.],-0.0302734375,0.03271484375,1.00244140625,[0. 0. 0. 0. 0. 0. 0. 0. 0.]
4.835626840591431,-0.018481150269508362,0.01189593505114317,0.9696484208106995,-0.24351394176483154,[0. 0. 0. 0. 0. 0. 0. 0. 0.],-0.06103515625,-0.91552734375,-0.244140625,[0. 0. 0. 0. 0. 0. 0. 0. 0.],-0.0302734375,0.0322265625,1.00390625,[0. 0. 0. 0. 0. 0. 0. 0. 0.]
4.849775552749634,-0.0195136908441782,0.012667817063629627,0.9696233868598938,-0.243493914604187,[0. 0. 0. 0. 0. 0. 0. 0. 0.],0.0,-1.28173828125,-0.18310546875,[0. 0. 0. 0. 0. 0. 0. 0. 0.],-0.0322265625,0.03369140625,1.00390625,[0. 0. 0. 0. 0. 0. 0. 0. 0.]
4.878794431686401,-0.018971730023622513,0.01220161933451891,0.9696478247642517,-0.24346335232257843,[0. 0. 0. 0. 0. 0. 0. 0. 0.],0.1220703125,-0.9765625,-0.244140625,[0. 0. 0. 0. 0. 0. 0. 0. 0.],-0.0302734375,0.03271484375,1.00537109375,[0. 0. 0. 0. 0. 0. 0. 0. 0.]
4.894470691680908,-0.01814490742981434,0.012362373061478138,0.9696601033210754,-0.24346940219402313,[0. 0. 0. 0. 0. 0. 0. 0. 0.],-0.244140625,-0.1220703125,0.06103515625,[0. 0. 0. 0. 0. 0. 0. 0. 0.],-0.029296875,0.033203125,1.00341796875,[0. 0. 0. 0. 0. 0. 0. 0. 0.]
4.915012836456299,-0.018128741532564163,0.013141343370079994,0.9696531295776367,-0.2434576004743576,[0. 0. 0. 0. 0. 0. 0. 0. 0.],-0.30517578125,-0.3662109375,0.0,[0. 0. 0. 0. 0. 0. 0. 0. 0.],-0.029296875,0.0341796875,1.0068359375,[0. 0. 0. 0. 0. 0. 0. 0. 0.]
4.929725885391235,-0.01856113411486149,0.012319570407271385,0.9696673154830933,-0.24341127276420593,[0. 0. 0. 0. 0. 0. 0. 0. 0.],0.06103515625,-0.30517578125,-0.244140625,[0. 0. 0. 0. 0. 0. 0. 0. 0.],-0.0302734375,0.033203125,1.00634765625,[0. 0. 0. 0. 0. 0. 0. 0. 0.]
4.954878330230713,-0.01799951307475567,0.012033775448799133,0.9696895480155945,-0.2433794140815735,[0. 0. 0. 0. 0. 0. 0. 0. 0.],0.18310546875,-0.8544921875,-0.244140625,[0. 0. 0. 0. 0. 0. 0. 0. 0.],-0.02978515625,0.0322265625,1.00537109375,[0. 0. 0. 0. 0. 0. 0. 0. 0.]
4.9781553745269775,-0.018704192712903023,0.01206748466938734,0.9696846008300781,-0.24334445595741272,[0. 0. 0. 0. 0. 0. 0. 0. 0.],0.0,-0.9765625,-0.18310546875,[0. 0. 0. 0. 0. 0. 0. 0. 0.],-0.0302734375,0.03271484375,1.00439453125,[0. 0. 0. 0. 0. 0. 0. 0. 0.]
4.995122909545898,-0.01922166533768177,0.013105886988341808,0.9696625471115112,-0.2433381974697113,[0. 0. 0. 0. 0. 0. 0. 0. 0.],-0.3662109375,-0.67138671875,-0.06103515625,[0. 0. 0. 0. 0. 0. 0. 0. 0.],-0.03125,0.03515625,1.0009765625,[0. 0. 0. 0. 0. 0. 0. 0. 0.]
5.00976824760437,-0.01955536939203739,0.012910443358123302,0.9696682095527649,-0.24329903721809387,[0. 0. 0. 0. 0. 0. 0. 0. 0.],0.0,-0.06103515625,0.0,[0. 0. 0. 0. 0. 0. 0. 0. 0.],-0.03173828125,0.03515625,1.00341796875,[0. 0. 0. 0. 0. 0. 0. 0. 0.]
5.031541585922241,-0.01823958195745945,0.011978833004832268,0.9697092175483704,-0.24328549206256866,[0. 0. 0. 0. 0. 0. 0. 0. 0.],-0.1220703125,-0.54931640625,-0.06103515625,[0. 0. 0. 0. 0. 0. 0. 0. 0.],-0.02978515625,0.03271484375,1.0068359375,[0. 0. 0. 0. 0. 0. 0. 0. 0.]
5.0554358959198,-0.018831470981240273,0.012123147025704384,0.9697051644325256,-0.24324972927570343,[0. 0. 0. 0. 0. 0. 0. 0. 0.],-0.06103515625,-1.03759765625,-0.18310546875,[0. 0. 0. 0. 0. 0. 0. 0. 0.],-0.03076171875,0.03271484375,1.0068359375,[0. 0. 0. 0. 0. 0. 0. 0. 0.]
5.074599266052246,-0.018572725355625153,0.012921605259180069,0.9696999788284302,-0.24324920773506165,[0. 0. 0. 0. 0. 0. 0. 0. 0.],-0.18310546875,-0.732421875,-0.1220703125,[0. 0. 0. 0. 0. 0. 0. 0. 0.],-0.0302734375,0.0341796875,1.00390625,[0. 0. 0. 0. 0. 0. 0. 0. 0.]
5.090078115463257,-0.018514683470129967,0.013096737675368786,0.9697043299674988,-0.2432268112897873,[0. 0. 0. 0. 0. 0. 0. 0. 0.],0.06103515625,-0.30517578125,-0.06103515625,[0. 0. 0. 0. 0. 0. 0. 0. 0.],-0.02978515625,0.03515625,1.0029296875,[0. 0. 0. 0. 0. 0. 0. 0. 0.]
5.114789724349976,-0.019246820360422134,0.01195979118347168,0.9697208404541016,-0.24316279590129852,[0. 0. 0. 0. 0. 0. 0. 0. 0.],-0.3662109375,-0.42724609375,-0.06103515625,[0. 0. 0. 0. 0. 0. 0. 0. 0.],-0.03173828125,0.03271484375,1.00390625,[0. 0. 0. 0. 0. 0. 0. 0. 0.]
5.134845018386841,-0.01875436305999756,0.012273677624762058,0.9697338342666626,-0.24313373863697052,[0. 0. 0. 0. 0. 0. 0. 0. 0.],-0.06103515625,-0.8544921875,-0.244140625,[0. 0. 0. 0. 0. 0. 0. 0. 0.],-0.03076171875,0.033203125,1.0048828125,[0. 0. 0. 0. 0. 0. 0. 0. 0.]
5.154737949371338,-0.018655668944120407,0.01293065957725048,0.9697287678718567,-0.24312737584114075,[0. 0. 0. 0. 0. 0. 0. 0. 0.],0.1220703125,-0.9765625,-0.1220703125,[0. 0. 0. 0. 0. 0. 0. 0. 0.],-0.0302734375,0.03466796875,1.0048828125,[0. 0. 0. 0. 0. 0. 0. 0. 0.]
5.175194263458252,-0.018920820206403732,0.01328394003212452,0.9697233438491821,-0.24310961365699768,[0. 0. 0. 0. 0. 0. 0. 0. 0.],0.06103515625,-0.54931640625,-0.1220703125,[0. 0. 0. 0. 0. 0. 0. 0. 0.],-0.0302734375,0.03515625,1.00390625,[0. 0. 0. 0. 0. 0. 0. 0. 0.]
5.196673154830933,-0.019593391567468643,0.013276622630655766,0.9697197675704956,-0.24307090044021606,[0. 0. 0. 0. 0. 0. 0. 0. 0.],-0.18310546875,-0.79345703125,-0.18310546875,[0. 0. 0. 0. 0. 0. 0. 0. 0.],-0.0322265625,0.03564453125,1.00390625,[0. 0. 0. 0. 0. 0. 0. 0. 0.]
5.21619439125061,-0.019219018518924713,0.01270783506333828,0.9697446227073669,-0.2430320531129837,[0. 0. 0. 0. 0. 0. 0. 0. 0.],-0.3662109375,-0.244140625,0.0,[0. 0. 0. 0. 0. 0. 0. 0. 0.],-0.03125,0.0341796875,1.00341796875,[0. 0. 0. 0. 0. 0. 0. 0. 0.]
5.234762907028198,-0.01862051896750927,0.011573800817131996,0.9697815775871277,-0.24298802018165588,[0. 0. 0. 0. 0. 0. 0. 0. 0.],0.244140625,-0.6103515625,-0.18310546875,[0. 0. 0. 0. 0. 0. 0. 0. 0.],-0.03076171875,0.03173828125,1.00634765625,[0. 0. 0. 0. 0. 0. 0. 0. 0.]
5.254671573638916,-0.01901385746896267,0.012278945185244083,0.9697699546813965,-0.2429693341255188,[0. 0. 0. 0. 0. 0. 0. 0. 0.],-0.1220703125,-1.03759765625,-0.244140625,[0. 0. 0. 0. 0. 0. 0. 0. 0.],-0.03125,0.033203125,1.00634765625,[0. 0. 0. 0. 0. 0. 0. 0. 0.]
5.275005102157593,-0.01974586956202984,0.012314035557210445,0.9697650074958801,-0.24292874336242676,[0. 0. 0. 0. 0. 0. 0. 0. 0.],-0.30517578125,-0.79345703125,-0.18310546875,[0. 0. 0. 0. 0. 0. 0. 0. 0.],-0.03271484375,0.03369140625,1.0048828125,[0. 0. 0. 0. 0. 0. 0. 0. 0.]
5.294698476791382,-0.018757639452815056,0.01304207369685173,0.9697756767272949,-0.24292662739753723,[0. 0. 0. 0. 0. 0. 0. 0. 0.],-0.06103515625,-0.06103515625,0.06103515625,[0. 0. 0. 0. 0. 0. 0. 0. 0.],-0.0302734375,0.03515625,1.00439453125,[0. 0. 0. 0. 0. 0. 0. 0. 0.]
5.314763784408569,-0.018757613375782967,0.012860027141869068,0.9697842001914978,-0.24290212988853455,[0. 0. 0. 0. 0. 0. 0. 0. 0.],0.06103515625,-0.3662109375,-0.1220703125,[0. 0. 0. 0. 0. 0. 0. 0. 0.],-0.03076171875,0.03466796875,1.00439453125,[0. 0. 0. 0. 0. 0. 0. 0. 0.]
5.334741830825806,-0.018588151782751083,0.012987511232495308,0.9697920083999634,-0.24287736415863037,[0. 0. 0. 0. 0. 0. 0. 0. 0.],-0.06103515625,-1.15966796875,-0.30517578125,[0. 0. 0. 0. 0. 0. 0. 0. 0.],-0.02978515625,0.0341796875,1.00732421875,[0. 0. 0. 0. 0. 0. 0. 0. 0.]
5.354754686355591,-0.01828896999359131,0.012853063642978668,0.9698025584220886,-0.24286498129367828,[0. 0. 0. 0. 0. 0. 0. 0. 0.],-0.06103515625,-1.0986328125,-0.18310546875,[0. 0. 0. 0. 0. 0. 0. 0. 0.],-0.02978515625,0.03369140625,1.0048828125,[0. 0. 0. 0. 0. 0. 0. 0. 0.]
5.375172138214111,-0.019169243052601814,0.012711694464087486,0.9697974920272827,-0.24282461404800415,[0. 0. 0. 0. 0. 0. 0. 0. 0.],0.1220703125,-0.8544921875,-0.244140625,[0. 0. 0. 0. 0. 0. 0. 0. 0.],-0.03125,0.0341796875,1.00537109375,[0. 0. 0. 0. 0. 0. 0. 0. 0.]
5.394615173339844,-0.01897701621055603,0.012851113453507423,0.9698046445846558,-0.24280375242233276,[0. 0. 0. 0. 0. 0. 0. 0. 0.],-0.244140625,-0.54931640625,-0.1220703125,[0. 0. 0. 0. 0. 0. 0. 0. 0.],-0.03076171875,0.03466796875,1.00634765625,[0. 0. 0. 0. 0. 0. 0. 0. 0.]
5.413609981536865,-0.01907644420862198,0.012320459820330143,0.9698240756988525,-0.2427462339401245,[0. 0. 0. 0. 0. 0. 0. 0. 0.],-0.30517578125,-0.54931640625,-0.1220703125,[0. 0. 0. 0. 0. 0. 0. 0. 0.],-0.03125,0.03369140625,1.001953125,[0. 0. 0. 0. 0. 0. 0. 0. 0.]
5.434736967086792,-0.01860678754746914,0.012714912183582783,0.9698312282562256,-0.24273349344730377,[0. 0. 0. 0. 0. 0. 0. 0. 0.],-0.06103515625,-0.6103515625,-0.18310546875,[0. 0. 0. 0. 0. 0. 0. 0. 0.],-0.0302734375,0.03369140625,1.00439453125,[0. 0. 0. 0. 0. 0. 0. 0. 0.]
5.455243825912476,-0.01851818524301052,0.012340700253844261,0.9698461294174194,-0.2427002638578415,[0. 0. 0. 0. 0. 0. 0. 0. 0.],0.18310546875,-0.9765625,-0.244140625,[0. 0. 0. 0. 0. 0. 0. 0. 0.],-0.029296875,0.0322265625,1.0029296875,[0. 0. 0. 0. 0. 0. 0. 0. 0.]
5.475175619125366,-0.01904967986047268,0.012788312509655952,0.9698376059532166,-0.24266965687274933,[0. 0. 0. 0. 0. 0. 0. 0. 0.],-0.30517578125,-1.0986328125,-0.244140625,[0. 0. 0. 0. 0. 0. 0. 0. 0.],-0.03076171875,0.0341796875,1.00341796875,[0. 0. 0. 0. 0. 0. 0. 0. 0.]
5.495288133621216,-0.019977992400527,0.012442311272025108,0.9698370099067688,-0.24261581897735596,[0. 0. 0. 0. 0. 0. 0. 0. 0.],-0.06103515625,-0.91552734375,-0.30517578125,[0. 0. 0. 0. 0. 0. 0. 0. 0.],-0.033203125,0.03466796875,1.00634765625,[0. 0. 0. 0. 0. 0. 0. 0. 0.]
5.510304689407349,-0.01952253468334675,0.01296395342797041,0.9698399305343628,-0.24261356890201569,[0. 0. 0. 0. 0. 0. 0. 0. 0.],0.06103515625,0.06103515625,0.0,[0. 0. 0. 0. 0. 0. 0. 0. 0.],-0.03173828125,0.03466796875,1.00341796875,[0. 0. 0. 0. 0. 0. 0. 0. 0.]
5.5346338748931885,-0.018815627321600914,0.012409086339175701,0.9698657393455505,-0.24259516596794128,[0. 0. 0. 0. 0. 0. 0. 0. 0.],0.0,-0.54931640625,0.0,[0. 0. 0. 0. 0. 0. 0. 0. 0.],-0.03076171875,0.03369140625,1.00537109375,[0. 0. 0. 0. 0. 0. 0. 0. 0.]
5.555216312408447,-0.01937025971710682,0.013153244741261005,0.9698513150215149,-0.24257047474384308,[0. 0. 0. 0. 0. 0. 0. 0. 0.],-0.18310546875,-1.0986328125,-0.244140625,[0. 0. 0. 0. 0. 0. 0. 0. 0.],-0.03173828125,0.03466796875,1.0068359375,[0. 0. 0. 0. 0. 0. 0. 0. 0.]
5.569991827011108,-0.019111355766654015,0.012486840598285198,0.9698761105537415,-0.24252671003341675,[0. 0. 0. 0. 0. 0. 0. 0. 0.],-0.18310546875,-0.732421875,-0.18310546875,[0. 0. 0. 0. 0. 0. 0. 0. 0.],-0.03125,0.03369140625,1.00439453125,[0. 0. 0. 0. 0. 0. 0. 0. 0.]
5.594354867935181,-0.018739420920610428,0.012906868942081928,0.9698846936225891,-0.2424994856119156,[0. 0. 0. 0. 0. 0. 0. 0. 0.],-0.18310546875,-0.1220703125,-0.18310546875,[0. 0. 0. 0. 0. 0. 0. 0. 0.],-0.0302734375,0.03466796875,1.0029296875,[0. 0. 0. 0. 0. 0. 0. 0. 0.]
5.615936994552612,-0.019221141934394836,0.012933229096233845,0.9698851108551025,-0.24245846271514893,[0. 0. 0. 0. 0. 0. 0. 0. 0.],-0.3662109375,-0.30517578125,-0.1220703125,[0. 0. 0. 0. 0. 0. 0. 0. 0.],-0.03125,0.03466796875,1.00439453125,[0. 0. 0. 0. 0. 0. 0. 0. 0.]
5.63505744934082,-0.018287602812051773,0.012196273542940617,0.9699203372001648,-0.24242821335792542,[0. 0. 0. 0. 0. 0. 0. 0. 0.],0.0,-0.91552734375,-0.30517578125,[0. 0. 0. 0. 0. 0. 0. 0. 0.],-0.02978515625,0.03271484375,1.00537109375,[0. 0. 0. 0. 0. 0. 0. 0. 0.]
5.654894113540649,-0.018805306404829025,0.012558536604046822,0.9699118733406067,-0.242404043674469,[0. 0. 0. 0. 0. 0. 0. 0. 0.],0.1220703125,-0.8544921875,-0.1220703125,[0. 0. 0. 0. 0. 0. 0. 0. 0.],-0.0302734375,0.03369140625,1.0068359375,[0. 0. 0. 0. 0. 0. 0. 0. 0.]
5.676521062850952,-0.018329937011003494,0.012368029914796352,0.9699269533157349,-0.24238982796669006,[0. 0. 0. 0. 0. 0. 0. 0. 0.],0.0,-1.03759765625,-0.1220703125,[0. 0. 0. 0. 0. 0. 0. 0. 0.],-0.02978515625,0.033203125,1.00390625,[0. 0. 0. 0. 0. 0. 0. 0. 0.]
5.694740533828735,-0.019049743190407753,0.012247023172676563,0.9699223041534424,-0.24235908687114716,[0. 0. 0. 0. 0. 0. 0. 0. 0.],-0.48828125,-0.42724609375,0.06103515625,[0. 0. 0. 0. 0. 0. 0. 0. 0.],-0.03125,0.033203125,1.00341796875,[0. 0. 0. 0. 0. 0. 0. 0. 0.]
5.71454930305481,-0.01860746741294861,0.012713677249848843,0.9699280858039856,-0.24234648048877716,[0. 0. 0. 0. 0. 0. 0. 0. 0.],-0.18310546875,-0.30517578125,-0.1220703125,[0. 0. 0. 0. 0. 0. 0. 0. 0.],-0.0302734375,0.0341796875,1.0068359375,[0. 0. 0. 0. 0. 0. 0. 0. 0.]
5.734707832336426,-0.01935449428856373,0.01249889750033617,0.9699269533157349,-0.24230334162712097,[0. 0. 0. 0. 0. 0. 0. 0. 0.],0.18310546875,-0.79345703125,-0.18310546875,[0. 0. 0. 0. 0. 0. 0. 0. 0.],-0.03173828125,0.0341796875,1.0068359375,[0. 0. 0. 0. 0. 0. 0. 0. 0.]
5.757568120956421,-0.01866539940237999,0.01188379991799593,0.9699564576148987,-0.24227046966552734,[0. 0. 0. 0. 0. 0. 0. 0. 0.],-0.1220703125,-0.9765625,-0.30517578125,[0. 0. 0. 0. 0. 0. 0. 0. 0.],-0.03076171875,0.03173828125,1.00830078125,[0. 0. 0. 0. 0. 0. 0. 0. 0.]
5.775200843811035,-0.01977447047829628,0.011991125531494617,0.9699386954307556,-0.24224784970283508,[0. 0. 0. 0. 0. 0. 0. 0. 0.],-0.3662109375,-0.8544921875,-0.1220703125,[0. 0. 0. 0. 0. 0. 0. 0. 0.],-0.033203125,0.033203125,1.00537109375,[0. 0. 0. 0. 0. 0. 0. 0. 0.]
5.79481315612793,-0.019696474075317383,0.012445097789168358,0.9699398279190063,-0.24222737550735474,[0. 0. 0. 0. 0. 0. 0. 0. 0.],-0.06103515625,-0.18310546875,0.0,[0. 0. 0. 0. 0. 0. 0. 0. 0.],-0.0322265625,0.03369140625,1.005859375,[0. 0. 0. 0. 0. 0. 0. 0. 0.]
5.8147358894348145,-0.01855161041021347,0.01239693257957697,0.9699658751487732,-0.2422153800725937,[0. 0. 0. 0. 0. 0. 0. 0. 0.],0.1220703125,-0.30517578125,-0.18310546875,[0. 0. 0. 0. 0. 0. 0. 0. 0.],-0.0302734375,0.03369140625,1.00634765625,[0. 0. 0. 0. 0. 0. 0. 0. 0.]
5.834551095962524,-0.018319467082619667,0.012421077117323875,0.9699757099151611,-0.2421925812959671,[0. 0. 0. 0. 0. 0. 0. 0. 0.],-0.18310546875,-0.79345703125,-0.06103515625,[0. 0. 0. 0. 0. 0. 0. 0. 0.],-0.02978515625,0.033203125,1.005859375,[0. 0. 0. 0. 0. 0. 0. 0. 0.]
5.855654239654541,-0.019626712426543236,0.011630620807409286,0.9699779748916626,-0.24212060868740082,[0. 0. 0. 0. 0. 0. 0. 0. 0.],-0.06103515625,-0.54931640625,-0.06103515625,[0. 0. 0. 0. 0. 0. 0. 0. 0.],-0.03271484375,0.0322265625,1.0048828125,[0. 0. 0. 0. 0. 0. 0. 0. 0.]
5.874729156494141,-0.01916753314435482,0.012382512912154198,0.9699764251708984,-0.24212585389614105,[0. 0. 0. 0. 0. 0. 0. 0. 0.],0.18310546875,-0.732421875,-0.18310546875,[0. 0. 0. 0. 0. 0. 0. 0. 0.],-0.0302734375,0.03271484375,1.00634765625,[0. 0. 0. 0. 0. 0. 0. 0. 0.]
5.894773483276367,-0.01904519647359848,0.012525410391390324,0.9699781537055969,-0.24212154746055603,[0. 0. 0. 0. 0. 0. 0. 0. 0.],-0.3662109375,-0.48828125,0.1220703125,[0. 0. 0. 0. 0. 0. 0. 0. 0.],-0.03173828125,0.0341796875,1.00390625,[0. 0. 0. 0. 0. 0. 0. 0. 0.]
5.91486668586731,-0.01895267702639103,0.01254252064973116,0.9699878692626953,-0.24208897352218628,[0. 0. 0. 0. 0. 0. 0. 0. 0.],-0.3662109375,-0.3662109375,0.0,[0. 0. 0. 0. 0. 0. 0. 0. 0.],-0.03125,0.03466796875,1.00341796875,[0. 0. 0. 0. 0. 0. 0. 0. 0.]
5.934544324874878,-0.018763000145554543,0.013242198154330254,0.9699874520301819,-0.2420683354139328,[0. 0. 0. 0. 0. 0. 0. 0. 0.],0.06103515625,-0.6103515625,-0.06103515625,[0. 0. 0. 0. 0. 0. 0. 0. 0.],-0.02978515625,0.03515625,1.00439453125,[0. 0. 0. 0. 0. 0. 0. 0. 0.]
5.954786062240601,-0.01880788989365101,0.012551270425319672,0.9700032472610474,-0.24203842878341675,[0. 0. 0. 0. 0. 0. 0. 0. 0.],0.18310546875,-0.9765625,-0.18310546875,[0. 0. 0. 0. 0. 0. 0. 0. 0.],-0.0302734375,0.03173828125,1.00634765625,[0. 0. 0. 0. 0. 0. 0. 0. 0.]
5.97559380531311,-0.018543219193816185,0.011648854240775108,0.9700302481651306,-0.24199561774730682,[0. 0. 0. 0. 0. 0. 0. 0. 0.],-0.18310546875,-1.15966796875,-0.244140625,[0. 0. 0. 0. 0. 0. 0. 0. 0.],-0.03076171875,0.0322265625,1.00390625,[0. 0. 0. 0. 0. 0. 0. 0. 0.]
5.994930028915405,-0.019056662917137146,0.011790378950536251,0.9700300097465515,-0.24194961786270142,[0. 0. 0. 0. 0. 0. 0. 0. 0.],-0.244140625,-0.8544921875,-0.244140625,[0. 0. 0. 0. 0. 0. 0. 0. 0.],-0.03125,0.03271484375,1.00390625,[0. 0. 0. 0. 0. 0. 0. 0. 0.]
6.014600038528442,-0.018598807975649834,0.011754258535802364,0.9700430631637573,-0.24193499982357025,[0. 0. 0. 0. 0. 0. 0. 0. 0.],0.06103515625,-0.244140625,-0.1220703125,[0. 0. 0. 0. 0. 0. 0. 0. 0.],-0.02978515625,0.0322265625,1.00537109375,[0. 0. 0. 0. 0. 0. 0. 0. 0.]
6.034963846206665,-0.018664784729480743,0.011822550557553768,0.9700457453727722,-0.2419157475233078,[0. 0. 0. 0. 0. 0. 0. 0. 0.],0.244140625,-0.732421875,-0.1220703125,[0. 0. 0. 0. 0. 0. 0. 0. 0.],-0.0302734375,0.0322265625,1.0048828125,[0. 0. 0. 0. 0. 0. 0. 0. 0.]
6.054449796676636,-0.018649136647582054,0.011770445853471756,0.9700525999069214,-0.2418917566537857,[0. 0. 0. 0. 0. 0. 0. 0. 0.],-0.30517578125,-1.28173828125,-0.18310546875,[0. 0. 0. 0. 0. 0. 0. 0. 0.],-0.03076171875,0.0322265625,1.0048828125,[0. 0. 0. 0. 0. 0. 0. 0. 0.]
6.074523448944092,-0.019483286887407303,0.012392164207994938,0.9700366854667664,-0.24185912311077118,[0. 0. 0. 0. 0. 0. 0. 0. 0.],-0.06103515625,-0.732421875,-0.244140625,[0. 0. 0. 0. 0. 0. 0. 0. 0.],-0.03271484375,0.0341796875,1.001953125,[0. 0. 0. 0. 0. 0. 0. 0. 0.]
6.094921827316284,-0.019348958507180214,0.01255278941243887,0.9700420498847961,-0.24183985590934753,[0. 0. 0. 0. 0. 0. 0. 0. 0.],-0.06103515625,-0.06103515625,-0.06103515625,[0. 0. 0. 0. 0. 0. 0. 0. 0.],-0.03125,0.0341796875,1.0009765625,[0. 0. 0. 0. 0. 0. 0. 0. 0.]
6.11454176902771,-0.01867832988500595,0.013138506561517715,0.9700484275817871,-0.24183599650859833,[0. 0. 0. 0. 0. 0. 0. 0. 0.],-0.1220703125,-0.48828125,-0.06103515625,[0. 0. 0. 0. 0. 0. 0. 0. 0.],-0.02978515625,0.0341796875,1.00439453125,[0. 0. 0. 0. 0. 0. 0. 0. 0.]
6.134441375732422,-0.018056528642773628,0.012623571790754795,0.9700744152069092,-0.24180655181407928,[0. 0. 0. 0. 0. 0. 0. 0. 0.],0.0,-0.91552734375,-0.244140625,[0. 0. 0. 0. 0. 0. 0. 0. 0.],-0.02978515625,0.03369140625,1.00732421875,[0. 0. 0. 0. 0. 0. 0. 0. 0.]
6.150658845901489,-0.018669093027710915,0.012378507293760777,0.9700762629508972,-0.24176494777202606,[0. 0. 0. 0. 0. 0. 0. 0. 0.],0.1220703125,-0.8544921875,-0.3662109375,[0. 0. 0. 0. 0. 0. 0. 0. 0.],-0.0302734375,0.03271484375,1.001953125,[0. 0. 0. 0. 0. 0. 0. 0. 0.]
6.175504684448242,-0.019612183794379234,0.011372635141015053,0.9700860381126404,-0.2417008876800537,[0. 0. 0. 0. 0. 0. 0. 0. 0.],0.1220703125,-0.8544921875,-0.18310546875,[0. 0. 0. 0. 0. 0. 0. 0. 0.],-0.03271484375,0.03173828125,1.00341796875,[0. 0. 0. 0. 0. 0. 0. 0. 0.]
6.194505453109741,-0.019020024687051773,0.011993582360446453,0.9700911641120911,-0.24169732630252838,[0. 0. 0. 0. 0. 0. 0. 0. 0.],-0.42724609375,-0.54931640625,-0.06103515625,[0. 0. 0. 0. 0. 0. 0. 0. 0.],-0.03125,0.03271484375,1.001953125,[0. 0. 0. 0. 0. 0. 0. 0. 0.]
6.211730718612671,-0.018578168004751205,0.012553872540593147,0.9700981378555298,-0.24167510867118835,[0. 0. 0. 0. 0. 0. 0. 0. 0.],-0.244140625,-0.244140625,-0.06103515625,[0. 0. 0. 0. 0. 0. 0. 0. 0.],-0.0302734375,0.03369140625,1.0048828125,[0. 0. 0. 0. 0. 0. 0. 0. 0.]
6.235680818557739,-0.018614448606967926,0.012363938614726067,0.9701095819473267,-0.24163638055324554,[0. 0. 0. 0. 0. 0. 0. 0. 0.],0.18310546875,-0.3662109375,-0.18310546875,[0. 0. 0. 0. 0. 0. 0. 0. 0.],-0.02978515625,0.033203125,1.00634765625,[0. 0. 0. 0. 0. 0. 0. 0. 0.]
6.254446029663086,-0.018396170809864998,0.011657167226076126,0.9701252579689026,-0.24162517488002777,[0. 0. 0. 0. 0. 0. 0. 0. 0.],0.06103515625,-0.91552734375,-0.1220703125,[0. 0. 0. 0. 0. 0. 0. 0. 0.],-0.0302734375,0.03173828125,1.00439453125,[0. 0. 0. 0. 0. 0. 0. 0. 0.]
6.274510622024536,-0.019117645919322968,0.01225956343114376,0.9701077342033386,-0.24160988628864288,[0. 0. 0. 0. 0. 0. 0. 0. 0.],-0.18310546875,-0.48828125,-0.06103515625,[0. 0. 0. 0. 0. 0. 0. 0. 0.],-0.0322265625,0.03466796875,1.00244140625,[0. 0. 0. 0. 0. 0. 0. 0. 0.]
6.294697523117065,-0.018481038510799408,0.013262874446809292,0.9701054692268372,-0.24161559343338013,[0. 0. 0. 0. 0. 0. 0. 0. 0.],0.0,-0.30517578125,0.0,[0. 0. 0. 0. 0. 0. 0. 0. 0.],-0.02978515625,0.03466796875,1.00390625,[0. 0. 0. 0. 0. 0. 0. 0. 0.]
6.3144989013671875,-0.01844167709350586,0.012116765603423119,0.9701323509216309,-0.2415705770254135,[0. 0. 0. 0. 0. 0. 0. 0. 0.],-0.18310546875,-0.06103515625,0.0,[0. 0. 0. 0. 0. 0. 0. 0. 0.],-0.0302734375,0.03271484375,1.00537109375,[0. 0. 0. 0. 0. 0. 0. 0. 0.]
6.33003306388855,-0.018192587420344353,0.012056323699653149,0.9701439738273621,-0.24154610931873322,[0. 0. 0. 0. 0. 0. 0. 0. 0.],-0.30517578125,-0.8544921875,-0.1220703125,[0. 0. 0. 0. 0. 0. 0. 0. 0.],-0.02978515625,0.03173828125,1.0048828125,[0. 0. 0. 0. 0. 0. 0. 0. 0.]
6.3560497760772705,-0.019032081589102745,0.01306420098990202,0.9701257348060608,-0.2415020912885666,[0. 0. 0. 0. 0. 0. 0. 0. 0.],-0.1220703125,-0.732421875,-0.30517578125,[0. 0. 0. 0. 0. 0. 0. 0. 0.],-0.0302734375,0.0341796875,1.00537109375,[0. 0. 0. 0. 0. 0. 0. 0. 0.]
6.374394416809082,-0.018035059794783592,0.012650193646550179,0.9701506495475769,-0.24150066077709198,[0. 0. 0. 0. 0. 0. 0. 0. 0.],0.18310546875,-0.79345703125,-0.1220703125,[0. 0. 0. 0. 0. 0. 0. 0. 0.],-0.029296875,0.03369140625,1.00537109375,[0. 0. 0. 0. 0. 0. 0. 0. 0.]
6.395753383636475,-0.018803654238581657,0.013110592029988766,0.9701353907585144,-0.24147863686084747,[0. 0. 0. 0. 0. 0. 0. 0. 0.],-0.3662109375,-0.3662109375,0.06103515625,[0. 0. 0. 0. 0. 0. 0. 0. 0.],-0.03076171875,0.03515625,1.005859375,[0. 0. 0. 0. 0. 0. 0. 0. 0.]
6.414723634719849,-0.018535804003477097,0.01314897183328867,0.970145583152771,-0.24145638942718506,[0. 0. 0. 0. 0. 0. 0. 0. 0.],-0.244140625,-0.42724609375,0.0,[0. 0. 0. 0. 0. 0. 0. 0. 0.],-0.02978515625,0.03466796875,1.00732421875,[0. 0. 0. 0. 0. 0. 0. 0. 0.]
6.42971396446228,-0.01944044977426529,0.011828319169580936,0.9701618552207947,-0.24138806760311127,[0. 0. 0. 0. 0. 0. 0. 0. 0.],0.06103515625,-0.79345703125,-0.18310546875,[0. 0. 0. 0. 0. 0. 0. 0. 0.],-0.0322265625,0.03271484375,1.00732421875,[0. 0. 0. 0. 0. 0. 0. 0. 0.]
6.454535961151123,-0.019057951867580414,0.01215785276144743,0.9701681137084961,-0.24137714505195618,[0. 0. 0. 0. 0. 0. 0. 0. 0.],0.18310546875,-0.9765625,-0.244140625,[0. 0. 0. 0. 0. 0. 0. 0. 0.],-0.03125,0.03271484375,1.00634765625,[0. 0. 0. 0. 0. 0. 0. 0. 0.]
6.472921133041382,-0.01809747889637947,0.01269481424242258,0.9701820015907288,-0.24136775732040405,[0. 0. 0. 0. 0. 0. 0. 0. 0.],-0.1220703125,-1.28173828125,-0.244140625,[0. 0. 0. 0. 0. 0. 0. 0. 0.],-0.02978515625,0.03369140625,1.00634765625,[0. 0. 0. 0. 0. 0. 0. 0. 0.]
6.489683389663696,-0.01894650049507618,0.013009382411837578,0.9701674580574036,-0.24134400486946106,[0. 0. 0. 0. 0. 0. 0. 0. 0.],-0.42724609375,-0.30517578125,0.06103515625,[0. 0. 0. 0. 0. 0. 0. 0. 0.],-0.03076171875,0.03515625,1.005859375,[0. 0. 0. 0. 0. 0. 0. 0. 0.]
6.5108397006988525,-0.019111542031168938,0.01168033480644226,0.9701972603797913,-0.24127906560897827,[0. 0. 0. 0. 0. 0. 0. 0. 0.],0.06103515625,-0.06103515625,-0.18310546875,[0. 0. 0. 0. 0. 0. 0. 0. 0.],-0.0322265625,0.0322265625,1.0048828125,[0. 0. 0. 0. 0. 0. 0. 0. 0.]
6.531862258911133,-0.018775194883346558,0.012164986692368984,0.9702057242393494,-0.2412475347518921,[0. 0. 0. 0. 0. 0. 0. 0. 0.],0.18310546875,-0.67138671875,-0.18310546875,[0. 0. 0. 0. 0. 0. 0. 0. 0.],-0.0302734375,0.03271484375,1.005859375,[0. 0. 0. 0. 0. 0. 0. 0. 0.]
6.554795980453491,-0.018232692033052444,0.012907941825687885,0.9702091217041016,-0.24123677611351013,[0. 0. 0. 0. 0. 0. 0. 0. 0.],-0.1220703125,-1.15966796875,-0.244140625,[0. 0. 0. 0. 0. 0. 0. 0. 0.],-0.029296875,0.03369140625,1.0048828125,[0. 0. 0. 0. 0. 0. 0. 0. 0.]
6.575564861297607,-0.018236614763736725,0.013011391274631023,0.9702117443084717,-0.2412208467721939,[0. 0. 0. 0. 0. 0. 0. 0. 0.],-0.244140625,-0.732421875,-0.06103515625,[0. 0. 0. 0. 0. 0. 0. 0. 0.],-0.029296875,0.0341796875,1.0029296875,[0. 0. 0. 0. 0. 0. 0. 0. 0.]
6.594500303268433,-0.01927754655480385,0.013216095045208931,0.9701989889144897,-0.2411796748638153,[0. 0. 0. 0. 0. 0. 0. 0. 0.],-0.18310546875,-0.06103515625,0.0,[0. 0. 0. 0. 0. 0. 0. 0. 0.],-0.03125,0.03515625,1.00341796875,[0. 0. 0. 0. 0. 0. 0. 0. 0.]
6.6146464347839355,-0.01915212906897068,0.012240873649716377,0.9702263474464417,-0.24113142490386963,[0. 0. 0. 0. 0. 0. 0. 0. 0.],0.0,-0.48828125,-0.18310546875,[0. 0. 0. 0. 0. 0. 0. 0. 0.],-0.03173828125,0.0322265625,1.00634765625,[0. 0. 0. 0. 0. 0. 0. 0. 0.]
6.638486623764038,-0.018826937302947044,0.01202562265098095,0.9702491760253906,-0.24107562005519867,[0. 0. 0. 0. 0. 0. 0. 0. 0.],-0.18310546875,-0.54931640625,-0.18310546875,[0. 0. 0. 0. 0. 0. 0. 0. 0.],-0.0302734375,0.03271484375,1.005859375,[0. 0. 0. 0. 0. 0. 0. 0. 0.]
6.656353712081909,-0.019340012222528458,0.011364288628101349,0.9702594876289368,-0.24102574586868286,[0. 0. 0. 0. 0. 0. 0. 0. 0.],0.244140625,-0.732421875,-0.1220703125,[0. 0. 0. 0. 0. 0. 0. 0. 0.],-0.0322265625,0.03173828125,1.0068359375,[0. 0. 0. 0. 0. 0. 0. 0. 0.]
6.6745078563690186,-0.019411509856581688,0.012642621994018555,0.9702410697937012,-0.24103061854839325,[0. 0. 0. 0. 0. 0. 0. 0. 0.],-0.18310546875,-0.42724609375,-0.18310546875,[0. 0. 0. 0. 0. 0. 0. 0. 0.],-0.03173828125,0.03369140625,1.00439453125,[0. 0. 0. 0. 0. 0. 0. 0. 0.]
6.695295810699463,-0.018497705459594727,0.01275053434073925,0.9702638387680054,-0.2410048544406891,[0. 0. 0. 0. 0. 0. 0. 0. 0.],-0.42724609375,-0.3662109375,-0.244140625,[0. 0. 0. 0. 0. 0. 0. 0. 0.],-0.02978515625,0.03369140625,1.00244140625,[0. 0. 0. 0. 0. 0. 0. 0. 0.]
6.714592695236206,-0.018659990280866623,0.01211872510612011,0.9702804088592529,-0.24095821380615234,[0. 0. 0. 0. 0. 0. 0. 0. 0.],-0.244140625,-0.67138671875,-0.06103515625,[0. 0. 0. 0. 0. 0. 0. 0. 0.],-0.0302734375,0.03271484375,1.00537109375,[0. 0. 0. 0. 0. 0. 0. 0. 0.]
6.73472785949707,-0.01840858720242977,0.012317003682255745,0.9702861905097961,-0.24094469845294952,[0. 0. 0. 0. 0. 0. 0. 0. 0.],0.3662109375,-0.8544921875,-0.18310546875,[0. 0. 0. 0. 0. 0. 0. 0. 0.],-0.0302734375,0.033203125,1.00537109375,[0. 0. 0. 0. 0. 0. 0. 0. 0.]
6.755226373672485,-0.01776779815554619,0.013122664764523506,0.9702895879745483,-0.24093635380268097,[0. 0. 0. 0. 0. 0. 0. 0. 0.],0.1220703125,-1.0986328125,-0.3662109375,[0. 0. 0. 0. 0. 0. 0. 0. 0.],-0.0283203125,0.0341796875,1.00537109375,[0. 0. 0. 0. 0. 0. 0. 0. 0.]
6.774554967880249,-0.018461966887116432,0.011897720396518707,0.9703056812286377,-0.2408832162618637,[0. 0. 0. 0. 0. 0. 0. 0. 0.],-0.244140625,-1.0986328125,-0.3662109375,[0. 0. 0. 0. 0. 0. 0. 0. 0.],-0.0302734375,0.03173828125,1.00341796875,[0. 0. 0. 0. 0. 0. 0. 0. 0.]
6.794533967971802,-0.01858113333582878,0.011959926225244999,0.9703106880187988,-0.24085043370723724,[0. 0. 0. 0. 0. 0. 0. 0. 0.],0.0,-0.3662109375,0.0,[0. 0. 0. 0. 0. 0. 0. 0. 0.],-0.03076171875,0.03271484375,1.005859375,[0. 0. 0. 0. 0. 0. 0. 0. 0.]
6.814856767654419,-0.01938171498477459,0.012263034470379353,0.9702994227409363,-0.24081747233867645,[0. 0. 0. 0. 0. 0. 0. 0. 0.],-0.06103515625,-0.18310546875,0.0,[0. 0. 0. 0. 0. 0. 0. 0. 0.],-0.03173828125,0.033203125,1.00439453125,[0. 0. 0. 0. 0. 0. 0. 0. 0.]
6.835088014602661,-0.018539337441325188,0.012812018394470215,0.9703118801116943,-0.24080514907836914,[0. 0. 0. 0. 0. 0. 0. 0. 0.],-0.30517578125,-0.3662109375,0.0,[0. 0. 0. 0. 0. 0. 0. 0. 0.],-0.02978515625,0.0341796875,1.0048828125,[0. 0. 0. 0. 0. 0. 0. 0. 0.]
6.8540825843811035,-0.018170643597841263,0.012692699208855629,0.9703259468078613,-0.24078305065631866,[0. 0. 0. 0. 0. 0. 0. 0. 0.],0.0,-0.79345703125,-0.18310546875,[0. 0. 0. 0. 0. 0. 0. 0. 0.],-0.029296875,0.03369140625,1.00537109375,[0. 0. 0. 0. 0. 0. 0. 0. 0.]
6.874674320220947,-0.019423777237534523,0.013097519055008888,0.9703022837638855,-0.24075847864151,[0. 0. 0. 0. 0. 0. 0. 0. 0.],0.1220703125,-0.67138671875,-0.18310546875,[0. 0. 0. 0. 0. 0. 0. 0. 0.],-0.0322265625,0.03515625,1.005859375,[0. 0. 0. 0. 0. 0. 0. 0. 0.]
6.896255970001221,-0.018709227442741394,0.012512071058154106,0.9703353643417358,-0.24071329832077026,[0. 0. 0. 0. 0. 0. 0. 0. 0.],-0.1220703125,-0.9765625,-0.3662109375,[0. 0. 0. 0. 0. 0. 0. 0. 0.],-0.0302734375,0.03271484375,1.00244140625,[0. 0. 0. 0. 0. 0. 0. 0. 0.]
6.914540767669678,-0.017606716603040695,0.01240929588675499,0.9703596234321594,-0.24070391058921814,[0. 0. 0. 0. 0. 0. 0. 0. 0.],-0.42724609375,-0.42724609375,-0.1220703125,[0. 0. 0. 0. 0. 0. 0. 0. 0.],-0.02880859375,0.0322265625,1.00341796875,[0. 0. 0. 0. 0. 0. 0. 0. 0.]
6.936873912811279,-0.01822172850370407,0.011839210987091064,0.9703667163848877,-0.24065811932086945,[0. 0. 0. 0. 0. 0. 0. 0. 0.],0.0,-0.244140625,0.0,[0. 0. 0. 0. 0. 0. 0. 0. 0.],-0.02978515625,0.03271484375,1.00732421875,[0. 0. 0. 0. 0. 0. 0. 0. 0.]
6.954591751098633,-0.017928915098309517,0.012445162981748581,0.9703681468963623,-0.2406439632177353,[0. 0. 0. 0. 0. 0. 0. 0. 0.],0.244140625,-1.03759765625,-0.3662109375,[0. 0. 0. 0. 0. 0. 0. 0. 0.],-0.029296875,0.033203125,1.005859375,[0. 0. 0. 0. 0. 0. 0. 0. 0.]
6.974828004837036,-0.018281223252415657,0.01252424344420433,0.9703661799430847,-0.24062128365039825,[0. 0. 0. 0. 0. 0. 0. 0. 0.],-0.244140625,-0.79345703125,-0.1220703125,[0. 0. 0. 0. 0. 0. 0. 0. 0.],-0.02978515625,0.03369140625,1.005859375,[0. 0. 0. 0. 0. 0. 0. 0. 0.]
6.995514154434204,-0.018556222319602966,0.012234433554112911,0.970375120639801,-0.2405787706375122,[0. 0. 0. 0. 0. 0. 0. 0. 0.],-0.54931640625,-0.42724609375,-0.06103515625,[0. 0. 0. 0. 0. 0. 0. 0. 0.],-0.0302734375,0.033203125,1.005859375,[0. 0. 0. 0. 0. 0. 0. 0. 0.]
7.014546155929565,-0.0184959564357996,0.012247813865542412,0.9703837633132935,-0.24054786562919617,[0. 0. 0. 0. 0. 0. 0. 0. 0.],0.06103515625,-0.244140625,-0.06103515625,[0. 0. 0. 0. 0. 0. 0. 0. 0.],-0.03076171875,0.033203125,1.0078125,[0. 0. 0. 0. 0. 0. 0. 0. 0.]
7.034358024597168,-0.018625890836119652,0.012684855610132217,0.9703830480575562,-0.24051807820796967,[0. 0. 0. 0. 0. 0. 0. 0. 0.],0.18310546875,-0.91552734375,-0.244140625,[0. 0. 0. 0. 0. 0. 0. 0. 0.],-0.0302734375,0.0341796875,1.00830078125,[0. 0. 0. 0. 0. 0. 0. 0. 0.]
7.054709434509277,-0.01850753277540207,0.012615980580449104,0.9703905582427979,-0.24050042033195496,[0. 0. 0. 0. 0. 0. 0. 0. 0.],-0.3662109375,-1.15966796875,-0.1220703125,[0. 0. 0. 0. 0. 0. 0. 0. 0.],-0.0302734375,0.03369140625,1.00439453125,[0. 0. 0. 0. 0. 0. 0. 0. 0.]
7.074742794036865,-0.019501177594065666,0.012325435876846313,0.9703850150108337,-0.24045930802822113,[0. 0. 0. 0. 0. 0. 0. 0. 0.],-0.30517578125,-0.6103515625,-0.06103515625,[0. 0. 0. 0. 0. 0. 0. 0. 0.],-0.03173828125,0.03369140625,1.00537109375,[0. 0. 0. 0. 0. 0. 0. 0. 0.]
7.094695568084717,-0.0189038272947073,0.011429215781390667,0.970417320728302,-0.24042126536369324,[0. 0. 0. 0. 0. 0. 0. 0. 0.],-1.46484375,1.03759765625,-0.30517578125,[0. 0. 0. 0. 0. 0. 0. 0. 0.],-0.02734375,0.0185546875,1.00048828125,[0. 0. 0. 0. 0. 0. 0. 0. 0.]
7.114441156387329,-0.018601885065436363,0.008004861883819103,0.9704102277755737,-0.24061138927936554,[0. 0. 0. 0. 0. 0. 0. 0. 0.],-7.8125,4.638671875,1.953125,[0. 0. 0. 0. 0. 0. 0. 0. 0.],-0.0234375,-0.18017578125,0.9228515625,[0. 0. 0. 0. 0. 0. 0. 0. 0.]
7.134455919265747,-0.018336234614253044,0.004994461312890053,0.9704195261001587,-0.2406758964061737,[0. 0. 0. 0. 0. 0. 0. 0. 0.],-6.40869140625,10.19287109375,4.2724609375,[0. 0. 0. 0. 0. 0. 0. 0. 0.],-0.02490234375,-0.20654296875,1.0546875,[0. 0. 0. 0. 0. 0. 0. 0. 0.]
7.150171995162964,-0.017656506970524788,0.0031066290102899075,0.9704464673995972,-0.2406497448682785,[0. 0. 0. 0. 0. 0. 0. 0. 0.],-2.86865234375,2.62451171875,2.01416015625,[0. 0. 0. 0. 0. 0. 0. 0. 0.],-0.00146484375,-0.16064453125,1.00439453125,[0. 0. 0. 0. 0. 0. 0. 0. 0.]
7.174579858779907,-0.01735467091202736,0.0007793799741193652,0.9704428315162659,-0.24070537090301514,[0. 0. 0. 0. 0. 0. 0. 0. 0.],2.01416015625,-3.47900390625,-4.08935546875,[0. 0. 0. 0. 0. 0. 0. 0. 0.],0.01123046875,-0.1513671875,1.0400390625,[0. 0. 0. 0. 0. 0. 0. 0. 0.]
7.194689989089966,-0.01774771884083748,-0.001294808811508119,0.9703850746154785,-0.24090711772441864,[0. 0. 0. 0. 0. 0. 0. 0. 0.],-2.13623046875,0.48828125,1.46484375,[0. 0. 0. 0. 0. 0. 0. 0. 0.],-0.06640625,-0.13623046875,0.99658203125,[0. 0. 0. 0. 0. 0. 0. 0. 0.]
7.214357376098633,-0.01850268617272377,-0.002564328024163842,0.9703662395477295,-0.24091573059558868,[0. 0. 0. 0. 0. 0. 0. 0. 0.],1.52587890625,2.62451171875,1.5869140625,[0. 0. 0. 0. 0. 0. 0. 0. 0.],-0.06298828125,-0.00244140625,0.9970703125,[0. 0. 0. 0. 0. 0. 0. 0. 0.]
7.234553098678589,-0.018453797325491905,-0.0045540365390479565,0.9703314304351807,-0.24103058874607086,[0. 0. 0. 0. 0. 0. 0. 0. 0.],-0.3662109375,-1.8310546875,-0.67138671875,[0. 0. 0. 0. 0. 0. 0. 0. 0.],-0.02978515625,-0.0595703125,0.95166015625,[0. 0. 0. 0. 0. 0. 0. 0. 0.]
7.250123977661133,-0.018311835825443268,-0.003654974512755871,0.9703041911125183,-0.24116629362106323,[0. 0. 0. 0. 0. 0. 0. 0. 0.],3.23486328125,4.2724609375,2.74658203125,[0. 0. 0. 0. 0. 0. 0. 0. 0.],-0.04736328125,0.02587890625,1.02294921875,[0. 0. 0. 0. 0. 0. 0. 0. 0.]
7.274527311325073,-0.01898646354675293,-0.0012162069324404001,0.9702356457710266,-0.24141420423984528,[0. 0. 0. 0. 0. 0. 0. 0. 0.],0.6103515625,1.15966796875,2.5634765625,[0. 0. 0. 0. 0. 0. 0. 0. 0.],-0.04638671875,0.11279296875,0.978515625,[0. 0. 0. 0. 0. 0. 0. 0. 0.]
7.289613723754883,-0.019193073734641075,0.0005387279088608921,0.9701974987983704,-0.24155379831790924,[0. 0. 0. 0. 0. 0. 0. 0. 0.],-1.03759765625,0.244140625,0.1220703125,[0. 0. 0. 0. 0. 0. 0. 0. 0.],-0.01220703125,0.103515625,0.99169921875,[0. 0. 0. 0. 0. 0. 0. 0. 0.]
7.315375804901123,-0.019535770639777184,0.002283770125359297,0.9701525568962097,-0.2416968196630478,[0. 0. 0. 0. 0. 0. 0. 0. 0.],0.30517578125,1.15966796875,1.03759765625,[0. 0. 0. 0. 0. 0. 0. 0. 0.],-0.037109375,0.0908203125,1.04541015625,[0. 0. 0. 0. 0. 0. 0. 0. 0.]
7.337332010269165,-0.020500142127275467,0.004156147129833698,0.9700930118560791,-0.24183069169521332,[0. 0. 0. 0. 0. 0. 0. 0. 0.],4.08935546875,-0.06103515625,-0.3662109375,[0. 0. 0. 0. 0. 0. 0. 0. 0.],-0.0576171875,0.11181640625,1.02099609375,[0. 0. 0. 0. 0. 0. 0. 0. 0.]
7.351338148117065,-0.021760253235697746,0.006504812743514776,0.9702098965644836,-0.24119910597801208,[0. 0. 0. 0. 0. 0. 0. 0. 0.],-2.0751953125,5.126953125,-4.21142578125,[0. 0. 0. 0. 0. 0. 0. 0. 0.],-0.0458984375,0.13671875,0.95361328125,[0. 0. 0. 0. 0. 0. 0. 0. 0.]
7.37481951713562,-0.022559382021427155,0.005847109016031027,0.9703925848007202,-0.24040627479553223,[0. 0. 0. 0. 0. 0. 0. 0. 0.],-9.765625,1.52587890625,-6.591796875,[0. 0. 0. 0. 0. 0. 0. 0. 0.],-0.0615234375,-0.0166015625,0.91162109375,[0. 0. 0. 0. 0. 0. 0. 0. 0.]
7.39011812210083,-0.022171810269355774,0.003111801575869322,0.9708073139190674,-0.23881392180919647,[0. 0. 0. 0. 0. 0. 0. 0. 0.],-3.60107421875,-4.57763671875,-12.939453125,[0. 0. 0. 0. 0. 0. 0. 0. 0.],-0.0283203125,-0.11328125,1.0166015625,[0. 0. 0. 0. 0. 0. 0. 0. 0.]
7.414945363998413,-0.022798363119363785,-0.00027375321951694787,0.9712202548980713,-0.2370893955230713,[0. 0. 0. 0. 0. 0. 0. 0. 0.],-6.2255859375,-1.89208984375,-15.7470703125,[0. 0. 0. 0. 0. 0. 0. 0. 0.],-0.0302734375,-0.23828125,1.0751953125,[0. 0. 0. 0. 0. 0. 0. 0. 0.]
7.434597730636597,-0.02346150204539299,-0.0022291059140115976,0.9716760516166687,-0.2351388782262802,[0. 0. 0. 0. 0. 0. 0. 0. 0.],-1.77001953125,8.23974609375,-10.07080078125,[0. 0. 0. 0. 0. 0. 0. 0. 0.],-0.130859375,-0.177734375,0.951171875,[0. 0. 0. 0. 0. 0. 0. 0. 0.]
7.454890966415405,-0.023569054901599884,-0.004358747508376837,0.9722853302955627,-0.2325657457113266,[0. 0. 0. 0. 0. 0. 0. 0. 0.],-8.36181640625,6.2255859375,-12.8173828125,[0. 0. 0. 0. 0. 0. 0. 0. 0.],-0.142578125,-0.1708984375,0.99658203125,[0. 0. 0. 0. 0. 0. 0. 0. 0.]
7.474639177322388,-0.023514000698924065,-0.006342523731291294,0.9730164408683777,-0.2294468879699707,[0. 0. 0. 0. 0. 0. 0. 0. 0.],0.79345703125,-6.04248046875,-18.6767578125,[0. 0. 0. 0. 0. 0. 0. 0. 0.],-0.10791015625,-0.16748046875,1.017578125,[0. 0. 0. 0. 0. 0. 0. 0. 0.]
7.494474649429321,-0.023327788338065147,-0.009139006026089191,0.9738235473632812,-0.22592027485370636,[0. 0. 0. 0. 0. 0. 0. 0. 0.],-6.28662109375,-1.64794921875,-22.88818359375,[0. 0. 0. 0. 0. 0. 0. 0. 0.],-0.0693359375,-0.2314453125,0.98779296875,[0. 0. 0. 0. 0. 0. 0. 0. 0.]
7.514579772949219,-0.022404609248042107,-0.011799996718764305,0.9747921824455261,-0.22167347371578217,[0. 0. 0. 0. 0. 0. 0. 0. 0.],-4.82177734375,-3.47900390625,-27.099609375,[0. 0. 0. 0. 0. 0. 0. 0. 0.],-0.046875,-0.2900390625,0.9970703125,[0. 0. 0. 0. 0. 0. 0. 0. 0.]
7.550622224807739,-0.020318906754255295,-0.015458871610462666,0.9772360920906067,-0.21061305701732635,[0. 0. 0. 0. 0. 0. 0. 0. 0.],0.0,1.40380859375,-35.400390625,[0. 0. 0. 0. 0. 0. 0. 0. 0.],-0.04345703125,-0.306640625,1.02197265625,[0. 0. 0. 0. 0. 0. 0. 0. 0.]
7.550839900970459,-0.020318906754255295,-0.015458871610462666,0.9772360920906067,-0.21061305701732635,[0. 0. 0. 0. 0. 0. 0. 0. 0.],0.0,1.40380859375,-35.400390625,[0. 0. 0. 0. 0. 0. 0. 0. 0.],-0.04345703125,-0.306640625,1.02197265625,[0. 0. 0. 0. 0. 0. 0. 0. 0.]
7.574965715408325,-0.01982935145497322,-0.0170692577958107,0.9786322116851807,-0.20394723117351532,[0. 0. 0. 0. 0. 0. 0. 0. 0.],0.06103515625,2.74658203125,-40.22216796875,[0. 0. 0. 0. 0. 0. 0. 0. 0.],-0.044921875,-0.2841796875,0.97265625,[0. 0. 0. 0. 0. 0. 0. 0. 0.]
7.594614744186401,-0.02030082605779171,-0.018589334562420845,0.9801032543182373,-0.19657017290592194,[0. 0. 0. 0. 0. 0. 0. 0. 0.],4.0283203125,2.0751953125,-45.10498046875,[0. 0. 0. 0. 0. 0. 0. 0. 0.],-0.05224609375,-0.30712890625,1.044921875,[0. 0. 0. 0. 0. 0. 0. 0. 0.]
7.614610433578491,-0.02014331705868244,-0.020393559709191322,0.9816887378692627,-0.18832312524318695,[0. 0. 0. 0. 0. 0. 0. 0. 0.],-2.685546875,4.2724609375,-49.560546875,[0. 0. 0. 0. 0. 0. 0. 0. 0.],-0.076171875,-0.25537109375,0.96728515625,[0. 0. 0. 0. 0. 0. 0. 0. 0.]
7.634617328643799,-0.020493214949965477,-0.022596145048737526,0.9833038449287415,-0.17939656972885132,[0. 0. 0. 0. 0. 0. 0. 0. 0.],-0.18310546875,3.90625,-52.001953125,[0. 0. 0. 0. 0. 0. 0. 0. 0.],-0.076171875,-0.30517578125,1.04150390625,[0. 0. 0. 0. 0. 0. 0. 0. 0.]
7.655050277709961,-0.020010214298963547,-0.02399463951587677,0.9849100708961487,-0.1702231913805008,[0. 0. 0. 0. 0. 0. 0. 0. 0.],2.197265625,-3.662109375,-52.8564453125,[0. 0. 0. 0. 0. 0. 0. 0. 0.],-0.10498046875,-0.318359375,1.02392578125,[0. 0. 0. 0. 0. 0. 0. 0. 0.]
7.674601793289185,-0.01970047876238823,-0.026234734803438187,0.9862973093986511,-0.16168257594108582,[0. 0. 0. 0. 0. 0. 0. 0. 0.],-6.40869140625,21.8505859375,-43.9453125,[0. 0. 0. 0. 0. 0. 0. 0. 0.],-0.02490234375,-0.26513671875,0.82861328125,[0. 0. 0. 0. 0. 0. 0. 0. 0.]
7.694726943969727,-0.02165945991873741,-0.029608095064759254,0.9873084425926208,-0.1545199602842331,[0. 0. 0. 0. 0. 0. 0. 0. 0.],-4.21142578125,2.5634765625,-40.71044921875,[0. 0. 0. 0. 0. 0. 0. 0. 0.],-0.0751953125,-0.30029296875,0.94775390625,[0. 0. 0. 0. 0. 0. 0. 0. 0.]
7.716044187545776,-0.0200373325496912,-0.03248182311654091,0.988153338432312,-0.14864903688430786,[0. 0. 0. 0. 0. 0. 0. 0. 0.],-6.2255859375,-15.07568359375,-30.1513671875,[0. 0. 0. 0. 0. 0. 0. 0. 0.],-0.19921875,-0.32568359375,1.02783203125,[0. 0. 0. 0. 0. 0. 0. 0. 0.]
7.735077381134033,-0.018245533108711243,-0.033800192177295685,0.9886775612831116,-0.1450566053390503,[0. 0. 0. 0. 0. 0. 0. 0. 0.],3.662109375,-11.474609375,-16.66259765625,[0. 0. 0. 0. 0. 0. 0. 0. 0.],-0.12744140625,-0.3623046875,1.09912109375,[0. 0. 0. 0. 0. 0. 0. 0. 0.]
7.749842166900635,-0.017127709463238716,-0.034919753670692444,0.9889318943023682,-0.14318124949932098,[0. 0. 0. 0. 0. 0. 0. 0. 0.],-0.30517578125,-1.03759765625,-7.87353515625,[0. 0. 0. 0. 0. 0. 0. 0. 0.],-0.03564453125,-0.27880859375,0.97802734375,[0. 0. 0. 0. 0. 0. 0. 0. 0.]
7.774632215499878,-0.017361363396048546,-0.03696107864379883,0.9889742136001587,-0.1423470377922058,[0. 0. 0. 0. 0. 0. 0. 0. 0.],-3.41796875,4.45556640625,-3.35693359375,[0. 0. 0. 0. 0. 0. 0. 0. 0.],-0.03076171875,-0.26904296875,0.9833984375,[0. 0. 0. 0. 0. 0. 0. 0. 0.]
7.794573545455933,-0.016735127195715904,-0.038501109927892685,0.988984227180481,-0.14194293320178986,[0. 0. 0. 0. 0. 0. 0. 0. 0.],0.1220703125,-2.25830078125,-1.77001953125,[0. 0. 0. 0. 0. 0. 0. 0. 0.],-0.05810546875,-0.28466796875,1.08544921875,[0. 0. 0. 0. 0. 0. 0. 0. 0.]
7.816699504852295,-0.01629926636815071,-0.03829796612262726,0.9891349077224731,-0.14099594950675964,[0. 0. 0. 0. 0. 0. 0. 0. 0.],12.75634765625,6.591796875,-4.57763671875,[0. 0. 0. 0. 0. 0. 0. 0. 0.],0.0478515625,-0.146484375,1.029296875,[0. 0. 0. 0. 0. 0. 0. 0. 0.]
7.834972381591797,-0.015514147467911243,-0.03748619928956032,0.9892351031303406,-0.14059904217720032,[0. 0. 0. 0. 0. 0. 0. 0. 0.],6.77490234375,-13.5498046875,-0.91552734375,[0. 0. 0. 0. 0. 0. 0. 0. 0.],-0.0888671875,-0.0654296875,0.93359375,[0. 0. 0. 0. 0. 0. 0. 0. 0.]
7.854175567626953,-0.01210837997496128,-0.03559262305498123,0.9890874028205872,-0.1424526870250702,[0. 0. 0. 0. 0. 0. 0. 0. 0.],-2.3193359375,-17.822265625,16.11328125,[0. 0. 0. 0. 0. 0. 0. 0. 0.],0.0234375,-0.0634765625,0.939453125,[0. 0. 0. 0. 0. 0. 0. 0. 0.]
7.874664545059204,-0.009459758177399635,-0.03592701628804207,0.9886922240257263,-0.1452845185995102,[0. 0. 0. 0. 0. 0. 0. 0. 0.],-2.13623046875,-6.9580078125,23.86474609375,[0. 0. 0. 0. 0. 0. 0. 0. 0.],0.17041015625,-0.11767578125,0.93798828125,[0. 0. 0. 0. 0. 0. 0. 0. 0.]
7.891406774520874,-0.007673148065805435,-0.03564508259296417,0.9876638054847717,-0.15228530764579773,[0. 0. 0. 0. 0. 0. 0. 0. 0.],5.0048828125,-6.7138671875,39.97802734375,[0. 0. 0. 0. 0. 0. 0. 0. 0.],0.11669921875,-0.1044921875,1.03466796875,[0. 0. 0. 0. 0. 0. 0. 0. 0.]
7.91510534286499,-0.0054082912392914295,-0.034928180277347565,0.9867350459098816,-0.15844480693340302,[0. 0. 0. 0. 0. 0. 0. 0. 0.],-2.62451171875,-6.53076171875,52.1240234375,[0. 0. 0. 0. 0. 0. 0. 0. 0.],0.08251953125,-0.05224609375,0.99853515625,[0. 0. 0. 0. 0. 0. 0. 0. 0.]
7.93561863899231,-0.001453921664506197,-0.03444842994213104,0.9850917458534241,-0.16853927075862885,[0. 0. 0. 0. 0. 0. 0. 0. 0.],0.30517578125,-14.6484375,61.82861328125,[0. 0. 0. 0. 0. 0. 0. 0. 0.],0.13134765625,-0.08056640625,1.00927734375,[0. 0. 0. 0. 0. 0. 0. 0. 0.]
7.9545814990997314,0.0013923333026468754,-0.03503180667757988,0.9829147458076477,-0.18069162964820862,[0. 0. 0. 0. 0. 0. 0. 0. 0.],-3.173828125,-8.23974609375,76.84326171875,[0. 0. 0. 0. 0. 0. 0. 0. 0.],0.1357421875,-0.1640625,0.958984375,[0. 0. 0. 0. 0. 0. 0. 0. 0.]
7.974541664123535,0.005045546684414148,-0.03554687649011612,0.9802113771438599,-0.19467036426067352,[0. 0. 0. 0. 0. 0. 0. 0. 0.],4.94384765625,-15.68603515625,83.984375,[0. 0. 0. 0. 0. 0. 0. 0. 0.],0.12744140625,-0.2197265625,0.99560546875,[0. 0. 0. 0. 0. 0. 0. 0. 0.]
7.995447874069214,0.0066718729212880135,-0.03443539887666702,0.9765123128890991,-0.21258756518363953,[0. 0. 0. 0. 0. 0. 0. 0. 0.],6.53076171875,3.662109375,83.31298828125,[0. 0. 0. 0. 0. 0. 0. 0. 0.],0.349609375,-0.125,1.08544921875,[0. 0. 0. 0. 0. 0. 0. 0. 0.]
8.009979724884033,0.007254737429320812,-0.03369501233100891,0.9742174744606018,-0.22296258807182312,[0. 0. 0. 0. 0. 0. 0. 0. 0.],2.25830078125,2.50244140625,80.322265625,[0. 0. 0. 0. 0. 0. 0. 0. 0.],0.263671875,-0.09912109375,1.00634765625,[0. 0. 0. 0. 0. 0. 0. 0. 0.]
8.035218715667725,0.007428818382322788,-0.03357677161693573,0.9712598919868469,-0.23552411794662476,[0. 0. 0. 0. 0. 0. 0. 0. 0.],3.90625,2.8076171875,70.556640625,[0. 0. 0. 0. 0. 0. 0. 0. 0.],0.19873046875,-0.13037109375,1.021484375,[0. 0. 0. 0. 0. 0. 0. 0. 0.]
8.054614543914795,0.008639750070869923,-0.03358088433742523,0.9685693383216858,-0.24631518125534058,[0. 0. 0. 0. 0. 0. 0. 0. 0.],5.79833984375,0.244140625,59.326171875,[0. 0. 0. 0. 0. 0. 0. 0. 0.],0.10498046875,-0.162109375,1.048828125,[0. 0. 0. 0. 0. 0. 0. 0. 0.]
8.074604272842407,0.008854039944708347,-0.03369579464197159,0.9662679433822632,-0.2551712691783905,[0. 0. 0. 0. 0. 0. 0. 0. 0.],3.23486328125,6.2255859375,47.9736328125,[0. 0. 0. 0. 0. 0. 0. 0. 0.],0.0654296875,-0.1064453125,0.912109375,[0. 0. 0. 0. 0. 0. 0. 0. 0.]
8.094616889953613,0.007303280755877495,-0.034902192652225494,0.9647316336631775,-0.2608092725276947,[0. 0. 0. 0. 0. 0. 0. 0. 0.],-5.92041015625,18.798828125,28.01513671875,[0. 0. 0. 0. 0. 0. 0. 0. 0.],0.12841796875,-0.076171875,0.91455078125,[0. 0. 0. 0. 0. 0. 0. 0. 0.]
8.114850282669067,0.005861619021743536,-0.03689487278461456,0.9637681245803833,-0.2641127109527588,[0. 0. 0. 0. 0. 0. 0. 0. 0.],-3.5400390625,1.708984375,16.9677734375,[0. 0. 0. 0. 0. 0. 0. 0. 0.],-0.12353515625,-0.095703125,0.93603515625,[0. 0. 0. 0. 0. 0. 0. 0. 0.]
8.134496688842773,0.006327143404632807,-0.03692566603422165,0.9631944298744202,-0.26618245244026184,[0. 0. 0. 0. 0. 0. 0. 0. 0.],2.685546875,-12.6953125,10.31494140625,[0. 0. 0. 0. 0. 0. 0. 0. 0.],-0.095703125,-0.0859375,1.0693359375,[0. 0. 0. 0. 0. 0. 0. 0. 0.]
8.15016508102417,0.005817626602947712,-0.03582453727722168,0.9627951979637146,-0.26778385043144226,[0. 0. 0. 0. 0. 0. 0. 0. 0.],2.50244140625,-5.92041015625,9.3994140625,[0. 0. 0. 0. 0. 0. 0. 0. 0.],-0.013671875,-0.06884765625,1.02685546875,[0. 0. 0. 0. 0. 0. 0. 0. 0.]
8.178049564361572,0.004933185875415802,-0.035696908831596375,0.9624713659286499,-0.26898035407066345,[0. 0. 0. 0. 0. 0. 0. 0. 0.],1.15966796875,10.80322265625,3.60107421875,[0. 0. 0. 0. 0. 0. 0. 0. 0.],0.017578125,-0.07177734375,1.044921875,[0. 0. 0. 0. 0. 0. 0. 0. 0.]
8.195015907287598,0.002084641484543681,-0.0350186713039875,0.9628473520278931,-0.2677581012248993,[0. 0. 0. 0. 0. 0. 0. 0. 0.],-5.0048828125,17.9443359375,-12.3291015625,[0. 0. 0. 0. 0. 0. 0. 0. 0.],-0.0390625,-0.0029296875,0.98828125,[0. 0. 0. 0. 0. 0. 0. 0. 0.]
8.215905666351318,-0.0009463214664719999,-0.03522323817014694,0.9635456204414368,-0.2652135193347931,[0. 0. 0. 0. 0. 0. 0. 0. 0.],3.47900390625,12.5732421875,-24.96337890625,[0. 0. 0. 0. 0. 0. 0. 0. 0.],-0.12109375,-0.03466796875,1.02734375,[0. 0. 0. 0. 0. 0. 0. 0. 0.]
8.234631299972534,-0.0035624955780804157,-0.03489112854003906,0.9650682806968689,-0.25964033603668213,[0. 0. 0. 0. 0. 0. 0. 0. 0.],3.23486328125,0.79345703125,-38.14697265625,[0. 0. 0. 0. 0. 0. 0. 0. 0.],-0.2314453125,-0.00634765625,0.99951171875,[0. 0. 0. 0. 0. 0. 0. 0. 0.]
8.258085250854492,-0.007406296674162149,-0.03336423262953758,0.9673207402229309,-0.2512422800064087,[0. 0. 0. 0. 0. 0. 0. 0. 0.],7.568359375,27.34375,-58.2275390625,[0. 0. 0. 0. 0. 0. 0. 0. 0.],-0.00146484375,0.0078125,1.033203125,[0. 0. 0. 0. 0. 0. 0. 0. 0.]
8.274718284606934,-0.011429029516875744,-0.03266581520438194,0.970261812210083,-0.2395712286233902,[0. 0. 0. 0. 0. 0. 0. 0. 0.],-2.74658203125,11.8408203125,-72.08251953125,[0. 0. 0. 0. 0. 0. 0. 0. 0.],-0.197265625,0.07958984375,0.833984375,[0. 0. 0. 0. 0. 0. 0. 0. 0.]
8.295843362808228,-0.014571625739336014,-0.03261997178196907,0.9744102954864502,-0.22191967070102692,[0. 0. 0. 0. 0. 0. 0. 0. 0.],3.35693359375,3.173828125,-89.2333984375,[0. 0. 0. 0. 0. 0. 0. 0. 0.],-0.267578125,0.0224609375,1.0380859375,[0. 0. 0. 0. 0. 0. 0. 0. 0.]
8.315941095352173,-0.01572859287261963,-0.03224143385887146,0.9770849347114563,-0.20980508625507355,[0. 0. 0. 0. 0. 0. 0. 0. 0.],2.5634765625,0.0,-96.49658203125,[0. 0. 0. 0. 0. 0. 0. 0. 0.],-0.2841796875,0.044921875,1.0732421875,[0. 0. 0. 0. 0. 0. 0. 0. 0.]
8.334589719772339,-0.01809963770210743,-0.031545598059892654,0.9806720018386841,-0.1922493577003479,[0. 0. 0. 0. 0. 0. 0. 0. 0.],6.591796875,13.18359375,-107.2998046875,[0. 0. 0. 0. 0. 0. 0. 0. 0.],-0.25048828125,0.02294921875,1.08349609375,[0. 0. 0. 0. 0. 0. 0. 0. 0.]
8.350057363510132,-0.020113853737711906,-0.03099742904305458,0.9842312932014465,-0.17298415303230286,[0. 0. 0. 0. 0. 0. 0. 0. 0.],7.568359375,0.244140625,-115.3564453125,[0. 0. 0. 0. 0. 0. 0. 0. 0.],-0.3544921875,0.02294921875,1.02978515625,[0. 0. 0. 0. 0. 0. 0. 0. 0.]
8.375091791152954,-0.022321738302707672,-0.03001939132809639,0.9875985980033875,-0.15247799456119537,[0. 0. 0. 0. 0. 0. 0. 0. 0.],3.35693359375,15.625,-119.32373046875,[0. 0. 0. 0. 0. 0. 0. 0. 0.],-0.326171875,0.0146484375,0.9521484375,[0. 0. 0. 0. 0. 0. 0. 0. 0.]
8.395187377929688,-0.02517160400748253,-0.030105795711278915,0.9905369281768799,-0.1315169483423233,[0. 0. 0. 0. 0. 0. 0. 0. 0.],5.4931640625,-0.8544921875,-122.1923828125,[0. 0. 0. 0. 0. 0. 0. 0. 0.],-0.4716796875,0.00732421875,0.99755859375,[0. 0. 0. 0. 0. 0. 0. 0. 0.]
8.414533853530884,-0.02759118378162384,-0.0294007770717144,0.9930487871170044,-0.11058198660612106,[0. 0. 0. 0. 0. 0. 0. 0. 0.],14.22119140625,14.95361328125,-121.88720703125,[0. 0. 0. 0. 0. 0. 0. 0. 0.],-0.3828125,-0.0263671875,1.01953125,[0. 0. 0. 0. 0. 0. 0. 0. 0.]
8.435421228408813,-0.030083725228905678,-0.029615076258778572,0.9951358437538147,-0.08900894969701767,[0. 0. 0. 0. 0. 0. 0. 0. 0.],-5.79833984375,0.79345703125,-123.47412109375,[0. 0. 0. 0. 0. 0. 0. 0. 0.],-0.4228515625,0.0478515625,0.77978515625,[0. 0. 0. 0. 0. 0. 0. 0. 0.]
8.460525035858154,-0.03510574251413345,-0.029640207067131996,0.9970241189002991,-0.06190386041998863,[0. 0. 0. 0. 0. 0. 0. 0. 0.],7.9345703125,18.06640625,-123.779296875,[0. 0. 0. 0. 0. 0. 0. 0. 0.],-0.43896484375,-0.044921875,1.21533203125,[0. 0. 0. 0. 0. 0. 0. 0. 0.]
8.474711894989014,-0.036210741847753525,-0.028525901958346367,0.9978841543197632,-0.04585159197449684,[0. 0. 0. 0. 0. 0. 0. 0. 0.],10.19287109375,-1.52587890625,-121.88720703125,[0. 0. 0. 0. 0. 0. 0. 0. 0.],-0.58837890625,-0.00341796875,1.13330078125,[0. 0. 0. 0. 0. 0. 0. 0. 0.]
8.496469497680664,-0.03659818693995476,-0.027566345408558846,0.9986400008201599,-0.02487626112997532,[0. 0. 0. 0. 0. 0. 0. 0. 0.],4.5166015625,2.50244140625,-120.17822265625,[0. 0. 0. 0. 0. 0. 0. 0. 0.],-0.52197265625,0.04150390625,0.869140625,[0. 0. 0. 0. 0. 0. 0. 0. 0.]
8.519801378250122,-0.03778515011072159,-0.027593843638896942,0.9988970160484314,-0.003973258193582296,[0. 0. 0. 0. 0. 0. 0. 0. 0.],2.8076171875,-2.8076171875,-119.81201171875,[0. 0. 0. 0. 0. 0. 0. 0. 0.],-0.47802734375,0.10107421875,0.9521484375,[0. 0. 0. 0. 0. 0. 0. 0. 0.]
8.534639120101929,-0.03852326422929764,-0.026843663305044174,0.9987532496452332,0.016955073922872543,[0. 0. 0. 0. 0. 0. 0. 0. 0.],5.18798828125,6.103515625,-121.27685546875,[0. 0. 0. 0. 0. 0. 0. 0. 0.],-0.45703125,0.119140625,1.00927734375,[0. 0. 0. 0. 0. 0. 0. 0. 0.]
8.561110019683838,-0.03963429853320122,-0.02518278919160366,0.997708797454834,0.048704925924539566,[0. 0. 0. 0. 0. 0. 0. 0. 0.],13.24462890625,-0.8544921875,-120.91064453125,[0. 0. 0. 0. 0. 0. 0. 0. 0.],-0.4775390625,0.10107421875,1.083984375,[0. 0. 0. 0. 0. 0. 0. 0. 0.]
8.574510335922241,-0.04073221608996391,-0.023800693452358246,0.9971318244934082,0.059181347489356995,[0. 0. 0. 0. 0. 0. 0. 0. 0.],15.80810546875,12.39013671875,-120.66650390625,[0. 0. 0. 0. 0. 0. 0. 0. 0.],-0.380859375,0.08642578125,1.04345703125,[0. 0. 0. 0. 0. 0. 0. 0. 0.]
8.594827651977539,-0.043209437280893326,-0.023413129150867462,0.9955467581748962,0.08044584095478058,[0. 0. 0. 0. 0. 0. 0. 0. 0.],-1.953125,8.72802734375,-122.802734375,[0. 0. 0. 0. 0. 0. 0. 0. 0.],-0.42041015625,0.18310546875,0.82861328125,[0. 0. 0. 0. 0. 0. 0. 0. 0.]
8.614868402481079,-0.04492828994989395,-0.022648561745882034,0.993549644947052,0.10162486135959625,[0. 0. 0. 0. 0. 0. 0. 0. 0.],13.97705078125,-3.23486328125,-120.849609375,[0. 0. 0. 0. 0. 0. 0. 0. 0.],-0.515625,0.05712890625,1.10986328125,[0. 0. 0. 0. 0. 0. 0. 0. 0.]
8.634479284286499,-0.04430944845080376,-0.020816950127482414,0.9912658333778381,0.12245653569698334,[0. 0. 0. 0. 0. 0. 0. 0. 0.],8.23974609375,-3.35693359375,-118.46923828125,[0. 0. 0. 0. 0. 0. 0. 0. 0.],-0.50390625,0.10595703125,1.05419921875,[0. 0. 0. 0. 0. 0. 0. 0. 0.]
8.655052423477173,-0.04480139911174774,-0.01933845318853855,0.9878863096237183,0.1473081111907959,[0. 0. 0. 0. 0. 0. 0. 0. 0.],5.18798828125,5.92041015625,-111.083984375,[0. 0. 0. 0. 0. 0. 0. 0. 0.],-0.404296875,0.10888671875,0.95166015625,[0. 0. 0. 0. 0. 0. 0. 0. 0.]
8.675756931304932,-0.04554460197687149,-0.01850665919482708,0.9850391745567322,0.16516971588134766,[0. 0. 0. 0. 0. 0. 0. 0. 0.],7.4462890625,-8.30078125,-98.876953125,[0. 0. 0. 0. 0. 0. 0. 0. 0.],-0.43701171875,0.04296875,1.08203125,[0. 0. 0. 0. 0. 0. 0. 0. 0.]
8.699748754501343,-0.045294176787137985,-0.01816767267882824,0.9823369979858398,0.18064434826374054,[0. 0. 0. 0. 0. 0. 0. 0. 0.],0.54931640625,-4.21142578125,-85.38818359375,[0. 0. 0. 0. 0. 0. 0. 0. 0.],-0.380859375,0.068359375,0.88623046875,[0. 0. 0. 0. 0. 0. 0. 0. 0.]
8.714805603027344,-0.04461115226149559,-0.01872255839407444,0.9804902076721191,0.1905212253332138,[0. 0. 0. 0. 0. 0. 0. 0. 0.],-4.150390625,-17.27294921875,-72.75390625,[0. 0. 0. 0. 0. 0. 0. 0. 0.],-0.3759765625,0.0693359375,0.85302734375,[0. 0. 0. 0. 0. 0. 0. 0. 0.]
8.734970092773438,-0.043126512318849564,-0.01952213980257511,0.9784960746765137,0.2007596641778946,[0. 0. 0. 0. 0. 0. 0. 0. 0.],-0.54931640625,-14.58740234375,-52.734375,[0. 0. 0. 0. 0. 0. 0. 0. 0.],-0.2744140625,0.0224609375,1.0302734375,[0. 0. 0. 0. 0. 0. 0. 0. 0.]
8.754623889923096,-0.04189417511224747,-0.01881868578493595,0.9771172404289246,0.20768405497074127,[0. 0. 0. 0. 0. 0. 0. 0. 0.],-3.173828125,-11.3525390625,-36.376953125,[0. 0. 0. 0. 0. 0. 0. 0. 0.],-0.10888671875,0.0517578125,1.01513671875,[0. 0. 0. 0. 0. 0. 0. 0. 0.]
8.775500297546387,-0.03962694853544235,-0.01813807152211666,0.9760477542877197,0.21314652264118195,[0. 0. 0. 0. 0. 0. 0. 0. 0.],-0.91552734375,0.8544921875,-22.76611328125,[0. 0. 0. 0. 0. 0. 0. 0. 0.],-0.0146484375,0.06103515625,1.03125,[0. 0. 0. 0. 0. 0. 0. 0. 0.]
8.79591417312622,-0.0391116701066494,-0.016499847173690796,0.9754997491836548,0.2158667892217636,[0. 0. 0. 0. 0. 0. 0. 0. 0.],2.01416015625,-6.53076171875,-14.34326171875,[0. 0. 0. 0. 0. 0. 0. 0. 0.],-0.09814453125,0.07763671875,1.08935546875,[0. 0. 0. 0. 0. 0. 0. 0. 0.]
8.814791440963745,-0.03839270398020744,-0.015596097335219383,0.9752039313316345,0.21739406883716583,[0. 0. 0. 0. 0. 0. 0. 0. 0.],-0.42724609375,-4.5166015625,-10.7421875,[0. 0. 0. 0. 0. 0. 0. 0. 0.],-0.11181640625,0.0966796875,1.0849609375,[0. 0. 0. 0. 0. 0. 0. 0. 0.]
8.834663152694702,-0.0379134826362133,-0.014393465593457222,0.9747682213783264,0.21950510144233704,[0. 0. 0. 0. 0. 0. 0. 0. 0.],1.77001953125,4.5166015625,-13.427734375,[0. 0. 0. 0. 0. 0. 0. 0. 0.],-0.021484375,0.06494140625,1.04052734375,[0. 0. 0. 0. 0. 0. 0. 0. 0.]
8.854659080505371,-0.03723572567105293,-0.012667626142501831,0.9742783308029175,0.2218892127275467,[0. 0. 0. 0. 0. 0. 0. 0. 0.],2.0751953125,-10.1318359375,-15.56396484375,[0. 0. 0. 0. 0. 0. 0. 0. 0.],-0.1064453125,0.05078125,0.92626953125,[0. 0. 0. 0. 0. 0. 0. 0. 0.]
8.874751567840576,-0.03676224127411842,-0.011539709754288197,0.9737606048583984,0.224289208650589,[0. 0. 0. 0. 0. 0. 0. 0. 0.],-1.3427734375,3.5400390625,-14.95361328125,[0. 0. 0. 0. 0. 0. 0. 0. 0.],-0.07763671875,0.06201171875,0.94873046875,[0. 0. 0. 0. 0. 0. 0. 0. 0.]
8.895891666412354,-0.03655622527003288,-0.009761783294379711,0.9731659889221191,0.2269720435142517,[0. 0. 0. 0. 0. 0. 0. 0. 0.],1.953125,3.72314453125,-14.34326171875,[0. 0. 0. 0. 0. 0. 0. 0. 0.],-0.05126953125,0.03564453125,1.0869140625,[0. 0. 0. 0. 0. 0. 0. 0. 0.]
8.915149211883545,-0.03650233522057533,-0.008592230267822742,0.9726357460021973,0.2292894572019577,[0. 0. 0. 0. 0. 0. 0. 0. 0.],-0.91552734375,-9.27734375,-12.87841796875,[0. 0. 0. 0. 0. 0. 0. 0. 0.],-0.1669921875,0.0458984375,0.95849609375,[0. 0. 0. 0. 0. 0. 0. 0. 0.]
8.935084581375122,-0.03621288016438484,-0.008192494511604309,0.972152590751648,0.2313891351222992,[0. 0. 0. 0. 0. 0. 0. 0. 0.],-7.99560546875,3.11279296875,-12.14599609375,[0. 0. 0. 0. 0. 0. 0. 0. 0.],-0.0810546875,0.0546875,0.9794921875,[0. 0. 0. 0. 0. 0. 0. 0. 0.]
8.954731225967407,-0.03551091253757477,-0.006481371354311705,0.9717159867286682,0.23337778449058533,[0. 0. 0. 0. 0. 0. 0. 0. 0.],3.5400390625,-6.16455078125,-12.6953125,[0. 0. 0. 0. 0. 0. 0. 0. 0.],-0.076171875,0.00390625,0.99365234375,[0. 0. 0. 0. 0. 0. 0. 0. 0.]
8.969675540924072,-0.0358305461704731,-0.005898935720324516,0.9712015986442566,0.23547588288784027,[0. 0. 0. 0. 0. 0. 0. 0. 0.],-9.82666015625,-1.03759765625,-11.8408203125,[0. 0. 0. 0. 0. 0. 0. 0. 0.],-0.07470703125,0.0712890625,0.92041015625,[0. 0. 0. 0. 0. 0. 0. 0. 0.]
8.99079966545105,-0.03458266705274582,-0.0040728859603405,0.9705179929733276,0.2385004311800003,[0. 0. 0. 0. 0. 0. 0. 0. 0.],9.1552734375,-0.42724609375,-12.75634765625,[0. 0. 0. 0. 0. 0. 0. 0. 0.],-0.0625,-0.01025390625,1.16845703125,[0. 0. 0. 0. 0. 0. 0. 0. 0.]
9.014717817306519,-0.03393618389964104,-0.002123006619513035,0.9701253771781921,0.24020950496196747,[0. 0. 0. 0. 0. 0. 0. 0. 0.],6.591796875,-6.28662109375,-13.12255859375,[0. 0. 0. 0. 0. 0. 0. 0. 0.],-0.1064453125,0.02587890625,1.10595703125,[0. 0. 0. 0. 0. 0. 0. 0. 0.]
9.034525632858276,-0.03354208916425705,-0.00024554613628424704,0.9696003794670105,0.24238412082195282,[0. 0. 0. 0. 0. 0. 0. 0. 0.],0.42724609375,0.79345703125,-13.97705078125,[0. 0. 0. 0. 0. 0. 0. 0. 0.],-0.05859375,0.072265625,1.01025390625,[0. 0. 0. 0. 0. 0. 0. 0. 0.]
9.054650783538818,-0.03372182697057724,0.001650434103794396,0.9690524935722351,0.24453502893447876,[0. 0. 0. 0. 0. 0. 0. 0. 0.],6.77490234375,-3.35693359375,-12.87841796875,[0. 0. 0. 0. 0. 0. 0. 0. 0.],-0.09228515625,-0.0009765625,0.9794921875,[0. 0. 0. 0. 0. 0. 0. 0. 0.]
9.074641704559326,-0.03334781154990196,0.002620696322992444,0.9685382843017578,0.24660611152648926,[0. 0. 0. 0. 0. 0. 0. 0. 0.],2.62451171875,-11.41357421875,-11.1083984375,[0. 0. 0. 0. 0. 0. 0. 0. 0.],-0.15478515625,0.0283203125,0.8525390625,[0. 0. 0. 0. 0. 0. 0. 0. 0.]
9.094906330108643,-0.03353225439786911,0.004402732476592064,0.9680038094520569,0.24864627420902252,[0. 0. 0. 0. 0. 0. 0. 0. 0.],5.2490234375,10.009765625,-12.20703125,[0. 0. 0. 0. 0. 0. 0. 0. 0.],-0.01123046875,0.0234375,1.0810546875,[0. 0. 0. 0. 0. 0. 0. 0. 0.]
9.114717483520508,-0.03290678933262825,0.00618690624833107,0.9675478935241699,0.25045982003211975,[0. 0. 0. 0. 0. 0. 0. 0. 0.],4.638671875,-11.71875,-9.82666015625,[0. 0. 0. 0. 0. 0. 0. 0. 0.],-0.1767578125,0.0263671875,1.037109375,[0. 0. 0. 0. 0. 0. 0. 0. 0.]
9.13512396812439,-0.03149712085723877,0.006470118649303913,0.9672131538391113,0.251922070980072,[0. 0. 0. 0. 0. 0. 0. 0. 0.],-4.82177734375,-12.87841796875,-9.70458984375,[0. 0. 0. 0. 0. 0. 0. 0. 0.],-0.14111328125,0.05859375,0.9267578125,[0. 0. 0. 0. 0. 0. 0. 0. 0.]
9.155824899673462,-0.030418898910284042,0.0068311309441924095,0.9668501615524292,0.25343406200408936,[0. 0. 0. 0. 0. 0. 0. 0. 0.],0.48828125,-1.8310546875,-7.080078125,[0. 0. 0. 0. 0. 0. 0. 0. 0.],-0.05029296875,0.00048828125,0.9697265625,[0. 0. 0. 0. 0. 0. 0. 0. 0.]
9.174673318862915,-0.03148041293025017,0.005806283093988895,0.9665936827659607,0.25430673360824585,[0. 0. 0. 0. 0. 0. 0. 0. 0.],-14.2822265625,1.15966796875,-6.89697265625,[0. 0. 0. 0. 0. 0. 0. 0. 0.],-0.10693359375,-0.01416015625,0.84619140625,[0. 0. 0. 0. 0. 0. 0. 0. 0.]
9.194535970687866,-0.03274666145443916,0.0022001098841428757,0.9662959575653076,0.25533297657966614,[0. 0. 0. 0. 0. 0. 0. 0. 0.],-9.94873046875,-1.15966796875,-7.32421875,[0. 0. 0. 0. 0. 0. 0. 0. 0.],-0.04296875,-0.15185546875,1.0517578125,[0. 0. 0. 0. 0. 0. 0. 0. 0.]
9.21518349647522,-0.03149103373289108,0.0005557251279242337,0.9661130905151367,0.25619059801101685,[0. 0. 0. 0. 0. 0. 0. 0. 0.],5.0048828125,-13.73291015625,-3.0517578125,[0. 0. 0. 0. 0. 0. 0. 0. 0.],-0.0908203125,-0.23876953125,1.197265625,[0. 0. 0. 0. 0. 0. 0. 0. 0.]
9.234615802764893,-0.029358748346567154,-0.0011378246126696467,0.9664843082427979,0.2550389766693115,[0. 0. 0. 0. 0. 0. 0. 0. 0.],-0.06103515625,-17.15087890625,13.24462890625,[0. 0. 0. 0. 0. 0. 0. 0. 0.],-0.05126953125,-0.19384765625,1.025390625,[0. 0. 0. 0. 0. 0. 0. 0. 0.]
9.255368947982788,-0.02724399045109749,-0.003793901763856411,0.9676255583763123,0.25088703632354736,[0. 0. 0. 0. 0. 0. 0. 0. 0.],-5.55419921875,-8.60595703125,31.005859375,[0. 0. 0. 0. 0. 0. 0. 0. 0.],0.0751953125,-0.20166015625,0.9541015625,[0. 0. 0. 0. 0. 0. 0. 0. 0.]
9.274579524993896,-0.02452450804412365,-0.007056960370391607,0.9694665670394897,0.2438918799161911,[0. 0. 0. 0. 0. 0. 0. 0. 0.],-8.1787109375,-20.69091796875,48.095703125,[0. 0. 0. 0. 0. 0. 0. 0. 0.],0.0146484375,-0.2216796875,0.86767578125,[0. 0. 0. 0. 0. 0. 0. 0. 0.]
9.296274423599243,-0.022323695942759514,-0.01013236679136753,0.971977174282074,0.23379333317279816,[0. 0. 0. 0. 0. 0. 0. 0. 0.],-6.34765625,-9.765625,65.4296875,[0. 0. 0. 0. 0. 0. 0. 0. 0.],0.13330078125,-0.23193359375,0.9853515625,[0. 0. 0. 0. 0. 0. 0. 0. 0.]
9.314769983291626,-0.018498243764042854,-0.013151092454791069,0.9749960899353027,0.22106003761291504,[0. 0. 0. 0. 0. 0. 0. 0. 0.],-5.126953125,-22.27783203125,80.38330078125,[0. 0. 0. 0. 0. 0. 0. 0. 0.],0.087890625,-0.23046875,1.00048828125,[0. 0. 0. 0. 0. 0. 0. 0. 0.]
9.335963487625122,-0.016268908977508545,-0.016001876443624496,0.9784451127052307,0.20524261891841888,[0. 0. 0. 0. 0. 0. 0. 0. 0.],-11.65771484375,0.8544921875,101.13525390625,[0. 0. 0. 0. 0. 0. 0. 0. 0.],0.19482421875,-0.16552734375,0.92431640625,[0. 0. 0. 0. 0. 0. 0. 0. 0.]
9.349840641021729,-0.014473634772002697,-0.019065318629145622,0.9819789528846741,0.18746879696846008,[0. 0. 0. 0. 0. 0. 0. 0. 0.],-5.06591796875,-9.58251953125,106.5673828125,[0. 0. 0. 0. 0. 0. 0. 0. 0.],0.236328125,-0.2509765625,1.048828125,[0. 0. 0. 0. 0. 0. 0. 0. 0.]
9.37517237663269,-0.012208573520183563,-0.020440280437469482,0.9854647517204285,0.1682034283876419,[0. 0. 0. 0. 0. 0. 0. 0. 0.],1.89208984375,-19.71435546875,115.41748046875,[0. 0. 0. 0. 0. 0. 0. 0. 0.],0.17919921875,-0.333984375,1.1796875,[0. 0. 0. 0. 0. 0. 0. 0. 0.]
9.395301103591919,-0.008661397732794285,-0.020665396004915237,0.9888575673103333,0.14716941118240356,[0. 0. 0. 0. 0. 0. 0. 0. 0.],2.44140625,-4.57763671875,125.91552734375,[0. 0. 0. 0. 0. 0. 0. 0. 0.],0.27490234375,-0.24365234375,1.0322265625,[0. 0. 0. 0. 0. 0. 0. 0. 0.]
9.414831161499023,-0.009149998426437378,-0.02155553176999092,0.9920148253440857,0.1239287331700325,[0. 0. 0. 0. 0. 0. 0. 0. 0.],-2.25830078125,9.21630859375,139.404296875,[0. 0. 0. 0. 0. 0. 0. 0. 0.],0.263671875,-0.2099609375,0.90234375,[0. 0. 0. 0. 0. 0. 0. 0. 0.]
9.43542218208313,-0.00396711565554142,-0.02292475476861,0.9953691363334656,0.09326929599046707,[0. 0. 0. 0. 0. 0. 0. 0. 0.],1.708984375,-24.0478515625,146.8505859375,[0. 0. 0. 0. 0. 0. 0. 0. 0.],0.11865234375,-0.24462890625,0.8935546875,[0. 0. 0. 0. 0. 0. 0. 0. 0.]
9.46476125717163,-0.003187233814969659,-0.02493388205766678,0.9974783658981323,0.06637019664049149,[0. 0. 0. 0. 0. 0. 0. 0. 0.],-3.5400390625,0.42724609375,158.26416015625,[0. 0. 0. 0. 0. 0. 0. 0. 0.],0.310546875,-0.2158203125,0.84814453125,[0. 0. 0. 0. 0. 0. 0. 0. 0.]
9.471087455749512,-0.00043764052679762244,-0.02544572949409485,0.9986281991004944,0.04576141759753227,[0. 0. 0. 0. 0. 0. 0. 0. 0.],6.8359375,-20.1416015625,157.958984375,[0. 0. 0. 0. 0. 0. 0. 0. 0.],0.3046875,-0.35546875,1.14453125,[0. 0. 0. 0. 0. 0. 0. 0. 0.]
9.49419903755188,0.002619427628815174,-0.024954529479146004,0.9996306896209717,0.010440445505082607,[0. 0. 0. 0. 0. 0. 0. 0. 0.],10.80322265625,-11.65771484375,164.00146484375,[0. 0. 0. 0. 0. 0. 0. 0. 0.],0.4111328125,-0.2978515625,1.10986328125,[0. 0. 0. 0. 0. 0. 0. 0. 0.]
9.514923810958862,0.004039864055812359,-0.024895545095205307,0.9996110200881958,-0.011909832246601582,[0. 0. 0. 0. 0. 0. 0. 0. 0.],7.6904296875,-16.357421875,172.66845703125,[0. 0. 0. 0. 0. 0. 0. 0. 0.],0.2861328125,-0.2724609375,0.94140625,[0. 0. 0. 0. 0. 0. 0. 0. 0.]
9.531024932861328,0.00708730285987258,-0.024989724159240723,0.998746395111084,-0.04279021918773651,[0. 0. 0. 0. 0. 0. 0. 0. 0.],-5.55419921875,6.53076171875,185.24169921875,[0. 0. 0. 0. 0. 0. 0. 0. 0.],0.26611328125,-0.1806640625,0.73974609375,[0. 0. 0. 0. 0. 0. 0. 0. 0.]
9.554501056671143,0.009692596271634102,-0.02674982324242592,0.9967500567436218,-0.07536555826663971,[0. 0. 0. 0. 0. 0. 0. 0. 0.],0.67138671875,-30.57861328125,184.38720703125,[0. 0. 0. 0. 0. 0. 0. 0. 0.],0.2568359375,-0.3056640625,0.91943359375,[0. 0. 0. 0. 0. 0. 0. 0. 0.]
9.574391841888428,0.013405172154307365,-0.02671870030462742,0.9936550259590149,-0.10842559486627579,[0. 0. 0. 0. 0. 0. 0. 0. 0.],12.5732421875,-12.02392578125,189.51416015625,[0. 0. 0. 0. 0. 0. 0. 0. 0.],0.47509765625,-0.416015625,1.216796875,[0. 0. 0. 0. 0. 0. 0. 0. 0.]
9.59466290473938,0.015016349032521248,-0.02507646009325981,0.9894419312477112,-0.14195206761360168,[0. 0. 0. 0. 0. 0. 0. 0. 0.],14.892578125,-17.63916015625,195.12939453125,[0. 0. 0. 0. 0. 0. 0. 0. 0.],0.3955078125,-0.32763671875,1.0419921875,[0. 0. 0. 0. 0. 0. 0. 0. 0.]
9.614708185195923,0.016611263155937195,-0.02445659413933754,0.9837731122970581,-0.17696450650691986,[0. 0. 0. 0. 0. 0. 0. 0. 0.],-0.6103515625,-1.40380859375,210.693359375,[0. 0. 0. 0. 0. 0. 0. 0. 0.],0.33203125,-0.18115234375,0.783203125,[0. 0. 0. 0. 0. 0. 0. 0. 0.]
9.635151386260986,0.02056797221302986,-0.02645520493388176,0.9764791131019592,-0.21299253404140472,[0. 0. 0. 0. 0. 0. 0. 0. 0.],0.244140625,-23.5595703125,211.48681640625,[0. 0. 0. 0. 0. 0. 0. 0. 0.],0.30517578125,-0.33740234375,0.85595703125,[0. 0. 0. 0. 0. 0. 0. 0. 0.]
9.64974069595337,0.02229953743517399,-0.02707018330693245,0.9678620100021362,-0.2490246444940567,[0. 0. 0. 0. 0. 0. 0. 0. 0.],11.41357421875,-12.5732421875,211.181640625,[0. 0. 0. 0. 0. 0. 0. 0. 0.],0.52490234375,-0.49609375,1.1923828125,[0. 0. 0. 0. 0. 0. 0. 0. 0.]
9.675029754638672,0.023246482014656067,-0.025366490706801414,0.9580321311950684,-0.2845885157585144,[0. 0. 0. 0. 0. 0. 0. 0. 0.],17.333984375,-0.42724609375,214.78271484375,[0. 0. 0. 0. 0. 0. 0. 0. 0.],0.5,-0.41943359375,1.08447265625,[0. 0. 0. 0. 0. 0. 0. 0. 0.]
9.694760084152222,0.023640280589461327,-0.025800323113799095,0.9464536309242249,-0.3209379017353058,[0. 0. 0. 0. 0. 0. 0. 0. 0.],-2.50244140625,-27.83203125,217.529296875,[0. 0. 0. 0. 0. 0. 0. 0. 0.],0.291015625,-0.296875,0.69580078125,[0. 0. 0. 0. 0. 0. 0. 0. 0.]
9.717136144638062,0.028236504644155502,-0.0255513247102499,0.9333457946777344,-0.3569529354572296,[0. 0. 0. 0. 0. 0. 0. 0. 0.],6.16455078125,-4.08935546875,219.90966796875,[0. 0. 0. 0. 0. 0. 0. 0. 0.],0.4814453125,-0.45556640625,0.99560546875,[0. 0. 0. 0. 0. 0. 0. 0. 0.]
9.731646537780762,0.028026146814227104,-0.023454301059246063,0.915464460849762,-0.4007359445095062,[0. 0. 0. 0. 0. 0. 0. 0. 0.],16.6015625,-25.08544921875,214.78271484375,[0. 0. 0. 0. 0. 0. 0. 0. 0.],0.52392578125,-0.4189453125,1.09423828125,[0. 0. 0. 0. 0. 0. 0. 0. 0.]
9.754911661148071,0.029035471379756927,-0.022636055946350098,0.9035372138023376,-0.4269251823425293,[0. 0. 0. 0. 0. 0. 0. 0. 0.],3.2958984375,10.68115234375,222.22900390625,[0. 0. 0. 0. 0. 0. 0. 0. 0.],0.53662109375,-0.294921875,0.89404296875,[0. 0. 0. 0. 0. 0. 0. 0. 0.]
9.76994252204895,0.030487291514873505,-0.02325112372636795,0.8863564133644104,-0.46141329407691956,[0. 0. 0. 0. 0. 0. 0. 0. 0.],-1.3427734375,-24.5361328125,219.17724609375,[0. 0. 0. 0. 0. 0. 0. 0. 0.],0.46435546875,-0.294921875,0.81640625,[0. 0. 0. 0. 0. 0. 0. 0. 0.]
9.795323848724365,0.03626738488674164,-0.021583152934908867,0.86305171251297,-0.5033493638038635,[0. 0. 0. 0. 0. 0. 0. 0. 0.],2.0751953125,-1.5869140625,215.75927734375,[0. 0. 0. 0. 0. 0. 0. 0. 0.],0.67236328125,-0.35986328125,1.0048828125,[0. 0. 0. 0. 0. 0. 0. 0. 0.]
9.815271854400635,0.03553616628050804,-0.02178375981748104,0.8488686084747314,-0.5269579291343689,[0. 0. 0. 0. 0. 0. 0. 0. 0.],15.56396484375,0.48828125,209.41162109375,[0. 0. 0. 0. 0. 0. 0. 0. 0.],0.7705078125,-0.37255859375,1.1484375,[0. 0. 0. 0. 0. 0. 0. 0. 0.]
9.834758996963501,0.035969968885183334,-0.018694795668125153,0.8292791247367859,-0.55736243724823,[0. 0. 0. 0. 0. 0. 0. 0. 0.],20.08056640625,-20.1416015625,207.94677734375,[0. 0. 0. 0. 0. 0. 0. 0. 0.],0.52099609375,-0.341796875,1.00634765625,[0. 0. 0. 0. 0. 0. 0. 0. 0.]
9.856499195098877,0.037182778120040894,-0.017861247062683105,0.807977557182312,-0.5877676010131836,[0. 0. 0. 0. 0. 0. 0. 0. 0.],4.2724609375,-10.19287109375,211.48681640625,[0. 0. 0. 0. 0. 0. 0. 0. 0.],0.587890625,-0.2392578125,0.84521484375,[0. 0. 0. 0. 0. 0. 0. 0. 0.]
9.874857902526855,0.04124389588832855,-0.015053728595376015,0.7858632206916809,-0.6168398857116699,[0. 0. 0. 0. 0. 0. 0. 0. 0.],1.8310546875,-29.60205078125,209.89990234375,[0. 0. 0. 0. 0. 0. 0. 0. 0.],0.52490234375,-0.25634765625,0.86181640625,[0. 0. 0. 0. 0. 0. 0. 0. 0.]
9.895050048828125,0.043987296521663666,-0.014394924975931644,0.7625676393508911,-0.6452507972717285,[0. 0. 0. 0. 0. 0. 0. 0. 0.],3.84521484375,-5.55419921875,210.8154296875,[0. 0. 0. 0. 0. 0. 0. 0. 0.],0.66455078125,-0.2490234375,0.953125,[0. 0. 0. 0. 0. 0. 0. 0. 0.]
9.914536952972412,0.04530804976820946,-0.012445126660168171,0.7388914823532104,-0.6721843481063843,[0. 0. 0. 0. 0. 0. 0. 0. 0.],12.939453125,-20.6298828125,202.45361328125,[0. 0. 0. 0. 0. 0. 0. 0. 0.],0.70361328125,-0.2998046875,1.158203125,[0. 0. 0. 0. 0. 0. 0. 0. 0.]
9.934946298599243,0.044087089598178864,-0.011834642849862576,0.7147951126098633,-0.6978426575660706,[0. 0. 0. 0. 0. 0. 0. 0. 0.],15.0146484375,9.33837890625,202.1484375,[0. 0. 0. 0. 0. 0. 0. 0. 0.],0.71923828125,-0.21630859375,1.0361328125,[0. 0. 0. 0. 0. 0. 0. 0. 0.]
9.954475164413452,0.04370303452014923,-0.010091436095535755,0.6897822022438049,-0.722626268863678,[0. 0. 0. 0. 0. 0. 0. 0. 0.],11.90185546875,-17.9443359375,201.904296875,[0. 0. 0. 0. 0. 0. 0. 0. 0.],0.5146484375,-0.1787109375,0.85986328125,[0. 0. 0. 0. 0. 0. 0. 0. 0.]
9.969672679901123,0.04451826587319374,-0.00920936930924654,0.6639292240142822,-0.7464122772216797,[0. 0. 0. 0. 0. 0. 0. 0. 0.],0.42724609375,-8.6669921875,201.47705078125,[0. 0. 0. 0. 0. 0. 0. 0. 0.],0.671875,-0.16796875,0.97119140625,[0. 0. 0. 0. 0. 0. 0. 0. 0.]
9.994592666625977,0.04726637527346611,-0.008746902458369732,0.6371331810951233,-0.7692534327507019,[0. 0. 0. 0. 0. 0. 0. 0. 0.],-5.92041015625,-10.43701171875,201.904296875,[0. 0. 0. 0. 0. 0. 0. 0. 0.],0.556640625,-0.1728515625,0.8134765625,[0. 0. 0. 0. 0. 0. 0. 0. 0.]
10.014646053314209,0.04855472221970558,-0.009124101139605045,0.6104626655578613,-0.7905027270317078,[0. 0. 0. 0. 0. 0. 0. 0. 0.],4.57763671875,-4.5166015625,190.61279296875,[0. 0. 0. 0. 0. 0. 0. 0. 0.],0.69775390625,-0.27392578125,1.025390625,[0. 0. 0. 0. 0. 0. 0. 0. 0.]
10.03464674949646,0.04687168449163437,-0.008300397545099258,0.5848360657691956,-0.8097536563873291,[0. 0. 0. 0. 0. 0. 0. 0. 0.],20.08056640625,3.41796875,182.7392578125,[0. 0. 0. 0. 0. 0. 0. 0. 0.],0.697265625,-0.2958984375,1.10986328125,[0. 0. 0. 0. 0. 0. 0. 0. 0.]
10.054601430892944,0.045626673847436905,-0.008923555724322796,0.5585545897483826,-0.8281639218330383,[0. 0. 0. 0. 0. 0. 0. 0. 0.],1.3427734375,1.40380859375,186.58447265625,[0. 0. 0. 0. 0. 0. 0. 0. 0.],0.54833984375,-0.1953125,0.80810546875,[0. 0. 0. 0. 0. 0. 0. 0. 0.]
10.074655771255493,0.04758463799953461,-0.007838745601475239,0.5315907597541809,-0.8456273674964905,[0. 0. 0. 0. 0. 0. 0. 0. 0.],-1.220703125,-20.263671875,181.21337890625,[0. 0. 0. 0. 0. 0. 0. 0. 0.],0.607421875,-0.28369140625,1.0068359375,[0. 0. 0. 0. 0. 0. 0. 0. 0.]
10.096197843551636,0.04793772101402283,-0.007352280896157026,0.4986412525177002,-0.8654506206512451,[0. 0. 0. 0. 0. 0. 0. 0. 0.],8.60595703125,6.77490234375,171.56982421875,[0. 0. 0. 0. 0. 0. 0. 0. 0.],0.80078125,-0.3203125,1.14306640625,[0. 0. 0. 0. 0. 0. 0. 0. 0.]
10.114536762237549,0.046738166362047195,-0.007428587879985571,0.47937896847724915,-0.8763311505317688,[0. 0. 0. 0. 0. 0. 0. 0. 0.],10.8642578125,-1.0986328125,167.41943359375,[0. 0. 0. 0. 0. 0. 0. 0. 0.],0.60693359375,-0.2841796875,0.96484375,[0. 0. 0. 0. 0. 0. 0. 0. 0.]
10.134820938110352,0.046798862516880035,-0.005722506903111935,0.45404842495918274,-0.8897286653518677,[0. 0. 0. 0. 0. 0. 0. 0. 0.],7.4462890625,-10.009765625,161.4990234375,[0. 0. 0. 0. 0. 0. 0. 0. 0.],0.46435546875,-0.2431640625,0.7626953125,[0. 0. 0. 0. 0. 0. 0. 0. 0.]
10.155561685562134,0.047491200268268585,-0.004742746241390705,0.42965561151504517,-0.9017307162284851,[0. 0. 0. 0. 0. 0. 0. 0. 0.],0.6103515625,-8.544921875,151.0009765625,[0. 0. 0. 0. 0. 0. 0. 0. 0.],0.57470703125,-0.20751953125,0.85107421875,[0. 0. 0. 0. 0. 0. 0. 0. 0.]
10.174657106399536,0.04832877591252327,-0.002184386597946286,0.4076310098171234,-0.9118642807006836,[0. 0. 0. 0. 0. 0. 0. 0. 0.],10.6201171875,-17.7001953125,130.126953125,[0. 0. 0. 0. 0. 0. 0. 0. 0.],0.681640625,-0.25830078125,1.099609375,[0. 0. 0. 0. 0. 0. 0. 0. 0.]
10.19523811340332,0.047099508345127106,0.00012061125744367018,0.3887677490711212,-0.9201310873031616,[0. 0. 0. 0. 0. 0. 0. 0. 0.],15.13671875,-1.77001953125,111.9384765625,[0. 0. 0. 0. 0. 0. 0. 0. 0.],0.7509765625,-0.21875,1.12939453125,[0. 0. 0. 0. 0. 0. 0. 0. 0.]
10.214725494384766,0.0461503341794014,-0.00012001769209746271,0.3715854287147522,-0.9272509813308716,[0. 0. 0. 0. 0. 0. 0. 0. 0.],1.220703125,4.0283203125,103.21044921875,[0. 0. 0. 0. 0. 0. 0. 0. 0.],0.5908203125,-0.1220703125,0.859375,[0. 0. 0. 0. 0. 0. 0. 0. 0.]
10.234878301620483,0.046938154846429825,0.00014193796960171312,0.35632094740867615,-0.9331839680671692,[0. 0. 0. 0. 0. 0. 0. 0. 0.],0.0,-1.953125,88.134765625,[0. 0. 0. 0. 0. 0. 0. 0. 0.],0.56982421875,-0.12890625,0.90380859375,[0. 0. 0. 0. 0. 0. 0. 0. 0.]
10.2497398853302,0.04687979072332382,0.0014726638328284025,0.34391888976097107,-0.9378272294998169,[0. 0. 0. 0. 0. 0. 0. 0. 0.],7.26318359375,-8.23974609375,68.05419921875,[0. 0. 0. 0. 0. 0. 0. 0. 0.],0.64306640625,-0.15380859375,1.052734375,[0. 0. 0. 0. 0. 0. 0. 0. 0.]
10.274895429611206,0.04647055268287659,0.004622441250830889,0.33421143889427185,-0.941340446472168,[0. 0. 0. 0. 0. 0. 0. 0. 0.],7.14111328125,-14.83154296875,53.40576171875,[0. 0. 0. 0. 0. 0. 0. 0. 0.],0.60107421875,-0.1044921875,0.97265625,[0. 0. 0. 0. 0. 0. 0. 0. 0.]
10.289797067642212,0.04682444781064987,0.0072035579942166805,0.3266472816467285,-0.9439582228660583,[0. 0. 0. 0. 0. 0. 0. 0. 0.],3.662109375,-2.38037109375,39.9169921875,[0. 0. 0. 0. 0. 0. 0. 0. 0.],0.61181640625,-0.046875,0.90234375,[0. 0. 0. 0. 0. 0. 0. 0. 0.]
10.309679985046387,0.045699216425418854,0.007738709449768066,0.32203564047813416,-0.9455923438072205,[0. 0. 0. 0. 0. 0. 0. 0. 0.],11.41357421875,3.84521484375,20.751953125,[0. 0. 0. 0. 0. 0. 0. 0. 0.],0.68701171875,-0.05615234375,1.07177734375,[0. 0. 0. 0. 0. 0. 0. 0. 0.]
10.334761142730713,0.04437382519245148,0.010135980322957039,0.3203890919685364,-0.9461919069290161,[0. 0. 0. 0. 0. 0. 0. 0. 0.],9.82666015625,-9.6435546875,4.2724609375,[0. 0. 0. 0. 0. 0. 0. 0. 0.],0.5849609375,-0.00537109375,0.9931640625,[0. 0. 0. 0. 0. 0. 0. 0. 0.]
10.357865571975708,0.044299837201833725,0.01277240365743637,0.3222593069076538,-0.9455280900001526,[0. 0. 0. 0. 0. 0. 0. 0. 0.],-1.5869140625,0.732421875,-18.85986328125,[0. 0. 0. 0. 0. 0. 0. 0. 0.],0.61669921875,0.0927734375,0.9267578125,[0. 0. 0. 0. 0. 0. 0. 0. 0.]
10.37613296508789,0.04449651017785072,0.014246637932956219,0.32776665687561035,-0.9436028003692627,[0. 0. 0. 0. 0. 0. 0. 0. 0.],-1.0986328125,1.5869140625,-42.05322265625,[0. 0. 0. 0. 0. 0. 0. 0. 0.],0.603515625,0.0908203125,0.994140625,[0. 0. 0. 0. 0. 0. 0. 0. 0.]
10.394906044006348,0.0441955029964447,0.015042782761156559,0.33435261249542236,-0.9412910342216492,[0. 0. 0. 0. 0. 0. 0. 0. 0.],1.8310546875,6.04248046875,-57.4951171875,[0. 0. 0. 0. 0. 0. 0. 0. 0.],0.5634765625,0.07275390625,0.99853515625,[0. 0. 0. 0. 0. 0. 0. 0. 0.]
10.414571046829224,0.04243312403559685,0.015344755724072456,0.3452802300453186,-0.937414288520813,[0. 0. 0. 0. 0. 0. 0. 0. 0.],8.6669921875,12.63427734375,-68.90869140625,[0. 0. 0. 0. 0. 0. 0. 0. 0.],0.3544921875,0.07666015625,1.05029296875,[0. 0. 0. 0. 0. 0. 0. 0. 0.]
10.438237428665161,0.03883743658661842,0.014770008623600006,0.356532484292984,-0.9333584904670715,[0. 0. 0. 0. 0. 0. 0. 0. 0.],8.97216796875,18.73779296875,-65.61279296875,[0. 0. 0. 0. 0. 0. 0. 0. 0.],-0.0341796875,0.248046875,1.0400390625,[0. 0. 0. 0. 0. 0. 0. 0. 0.]
10.455215692520142,0.03463426232337952,0.01292179711163044,0.3667568266391754,-0.9295821785926819,[0. 0. 0. 0. 0. 0. 0. 0. 0.],9.70458984375,15.68603515625,-60.60791015625,[0. 0. 0. 0. 0. 0. 0. 0. 0.],-0.12158203125,0.3056640625,1.0166015625,[0. 0. 0. 0. 0. 0. 0. 0. 0.]
10.475040435791016,0.030911080539226532,0.011123551987111568,0.3763276934623718,-0.9259039759635925,[0. 0. 0. 0. 0. 0. 0. 0. 0.],7.14111328125,14.09912109375,-57.2509765625,[0. 0. 0. 0. 0. 0. 0. 0. 0.],-0.10009765625,0.31591796875,0.958984375,[0. 0. 0. 0. 0. 0. 0. 0. 0.]
10.49573564529419,0.02766711637377739,0.010697908699512482,0.3854837715625763,-0.9222376942634583,[0. 0. 0. 0. 0. 0. 0. 0. 0.],6.40869140625,3.41796875,-56.2744140625,[0. 0. 0. 0. 0. 0. 0. 0. 0.],-0.13623046875,0.318359375,0.9384765625,[0. 0. 0. 0. 0. 0. 0. 0. 0.]
10.517113447189331,0.024953214451670647,0.011110158637166023,0.3941441476345062,-0.9186426997184753,[0. 0. 0. 0. 0. 0. 0. 0. 0.],4.7607421875,0.8544921875,-52.91748046875,[0. 0. 0. 0. 0. 0. 0. 0. 0.],-0.10546875,0.3212890625,0.97900390625,[0. 0. 0. 0. 0. 0. 0. 0. 0.]
10.534839391708374,0.022640077397227287,0.010510701686143875,0.4039720594882965,-0.9144307971000671,[0. 0. 0. 0. 0. 0. 0. 0. 0.],-3.23486328125,3.35693359375,-46.08154296875,[0. 0. 0. 0. 0. 0. 0. 0. 0.],-0.0615234375,0.3291015625,0.970703125,[0. 0. 0. 0. 0. 0. 0. 0. 0.]
10.550562381744385,0.021575484424829483,0.010220853611826897,0.4090600907802582,-0.912195086479187,[0. 0. 0. 0. 0. 0. 0. 0. 0.],-2.62451171875,4.33349609375,-40.8935546875,[0. 0. 0. 0. 0. 0. 0. 0. 0.],-0.076171875,0.318359375,1.03564453125,[0. 0. 0. 0. 0. 0. 0. 0. 0.]
10.574716567993164,0.019948672503232956,0.010102865286171436,0.41519901156425476,-0.9094558358192444,[0. 0. 0. 0. 0. 0. 0. 0. 0.],-0.30517578125,4.2724609375,-36.31591796875,[0. 0. 0. 0. 0. 0. 0. 0. 0.],-0.0556640625,0.3173828125,1.05322265625,[0. 0. 0. 0. 0. 0. 0. 0. 0.]
10.595071792602539,0.017830951139330864,0.009908493608236313,0.42170408368110657,-0.9065040349960327,[0. 0. 0. 0. 0. 0. 0. 0. 0.],-0.8544921875,2.38037109375,-30.2734375,[0. 0. 0. 0. 0. 0. 0. 0. 0.],-0.04638671875,0.3125,0.98095703125,[0. 0. 0. 0. 0. 0. 0. 0. 0.]
10.614998817443848,0.016592904925346375,0.009911985136568546,0.42508986592292786,-0.9049447774887085,[0. 0. 0. 0. 0. 0. 0. 0. 0.],0.91552734375,2.197265625,-27.28271484375,[0. 0. 0. 0. 0. 0. 0. 0. 0.],-0.01708984375,0.30126953125,1.01123046875,[0. 0. 0. 0. 0. 0. 0. 0. 0.]
10.635339260101318,0.014963970519602299,0.0102105513215065,0.42916247248649597,-0.903045654296875,[0. 0. 0. 0. 0. 0. 0. 0. 0.],-0.42724609375,1.28173828125,-23.98681640625,[0. 0. 0. 0. 0. 0. 0. 0. 0.],-0.01318359375,0.2880859375,1.005859375,[0. 0. 0. 0. 0. 0. 0. 0. 0.]
10.650620698928833,0.01342382375150919,0.010534675791859627,0.43272244930267334,-0.9013657569885254,[0. 0. 0. 0. 0. 0. 0. 0. 0.],-0.30517578125,1.03759765625,-21.3623046875,[0. 0. 0. 0. 0. 0. 0. 0. 0.],-0.01171875,0.27880859375,1.01904296875,[0. 0. 0. 0. 0. 0. 0. 0. 0.]
10.675597906112671,0.012090858072042465,0.010703898966312408,0.43574121594429016,-0.8999271392822266,[0. 0. 0. 0. 0. 0. 0. 0. 0.],-3.0517578125,1.52587890625,-17.333984375,[0. 0. 0. 0. 0. 0. 0. 0. 0.],-0.02001953125,0.26123046875,0.9775390625,[0. 0. 0. 0. 0. 0. 0. 0. 0.]
10.695219993591309,0.010810665786266327,0.01082046702504158,0.43840765953063965,-0.8986461162567139,[0. 0. 0. 0. 0. 0. 0. 0. 0.],-1.5869140625,1.953125,-15.68603515625,[0. 0. 0. 0. 0. 0. 0. 0. 0.],-0.017578125,0.22216796875,1.00634765625,[0. 0. 0. 0. 0. 0. 0. 0. 0.]
10.720162868499756,0.008927632123231888,0.011000405065715313,0.4410378038883209,-0.8973768353462219,[0. 0. 0. 0. 0. 0. 0. 0. 0.],0.244140625,-0.18310546875,-11.5966796875,[0. 0. 0. 0. 0. 0. 0. 0. 0.],-0.0341796875,0.19482421875,1.015625,[0. 0. 0. 0. 0. 0. 0. 0. 0.]
10.734675407409668,0.007772769313305616,0.011230682022869587,0.4422387182712555,-0.8967934250831604,[0. 0. 0. 0. 0. 0. 0. 0. 0.],0.06103515625,0.06103515625,-9.33837890625,[0. 0. 0. 0. 0. 0. 0. 0. 0.],-0.02685546875,0.1865234375,1.0087890625,[0. 0. 0. 0. 0. 0. 0. 0. 0.]
10.749959230422974,0.006189383566379547,0.01160664763301611,0.44359126687049866,-0.8961327075958252,[0. 0. 0. 0. 0. 0. 0. 0. 0.],-0.3662109375,-0.1220703125,-7.9345703125,[0. 0. 0. 0. 0. 0. 0. 0. 0.],-0.0107421875,0.18896484375,1.00634765625,[0. 0. 0. 0. 0. 0. 0. 0. 0.]
10.774982690811157,0.0046911947429180145,0.012052934616804123,0.4447430372238159,-0.8955649137496948,[0. 0. 0. 0. 0. 0. 0. 0. 0.],-1.953125,-1.40380859375,-7.32421875,[0. 0. 0. 0. 0. 0. 0. 0. 0.],-0.001953125,0.16796875,1.00146484375,[0. 0. 0. 0. 0. 0. 0. 0. 0.]
10.794779777526855,0.003908439073711634,0.012003101408481598,0.4459155797958374,-0.8949859738349915,[0. 0. 0. 0. 0. 0. 0. 0. 0.],-6.65283203125,2.8076171875,-9.1552734375,[0. 0. 0. 0. 0. 0. 0. 0. 0.],0.0341796875,0.03369140625,1.001953125,[0. 0. 0. 0. 0. 0. 0. 0. 0.]
10.814826488494873,0.006053577177226543,0.007421840447932482,0.4465741217136383,-0.8946953415870667,[0. 0. 0. 0. 0. 0. 0. 0. 0.],-13.97705078125,15.68603515625,-3.2958984375,[0. 0. 0. 0. 0. 0. 0. 0. 0.],-0.08154296875,-0.18701171875,0.92138671875,[0. 0. 0. 0. 0. 0. 0. 0. 0.]
10.834734678268433,0.007933910004794598,0.004219831898808479,0.44759708642959595,-0.8941901922225952,[0. 0. 0. 0. 0. 0. 0. 0. 0.],-8.72802734375,8.72802734375,-6.77490234375,[0. 0. 0. 0. 0. 0. 0. 0. 0.],-0.080078125,-0.17236328125,1.06787109375,[0. 0. 0. 0. 0. 0. 0. 0. 0.]
10.85530972480774,0.009249242022633553,0.0006369544425979257,0.44911420345306396,-0.8934263586997986,[0. 0. 0. 0. 0. 0. 0. 0. 0.],-6.77490234375,4.82177734375,-12.51220703125,[0. 0. 0. 0. 0. 0. 0. 0. 0.],-0.0615234375,-0.2353515625,1.0341796875,[0. 0. 0. 0. 0. 0. 0. 0. 0.]
10.874581336975098,0.01013711653649807,-0.0017624417087063193,0.451255202293396,-0.8923356533050537,[0. 0. 0. 0. 0. 0. 0. 0. 0.],5.43212890625,6.4697265625,-15.68603515625,[0. 0. 0. 0. 0. 0. 0. 0. 0.],-0.0830078125,-0.21533203125,1.00390625,[0. 0. 0. 0. 0. 0. 0. 0. 0.]
10.894999027252197,0.009325719438493252,-0.0017936233198270202,0.45427632331848145,-0.8908102512359619,[0. 0. 0. 0. 0. 0. 0. 0. 0.],-14.5263671875,9.27734375,-17.15087890625,[0. 0. 0. 0. 0. 0. 0. 0. 0.],-0.03857421875,-0.001953125,0.85009765625,[0. 0. 0. 0. 0. 0. 0. 0. 0.]
10.9102783203125,0.011695356108248234,-0.004183036740869284,0.45750346779823303,-0.8891211152076721,[0. 0. 0. 0. 0. 0. 0. 0. 0.],-2.38037109375,-5.31005859375,-24.0478515625,[0. 0. 0. 0. 0. 0. 0. 0. 0.],-0.02880859375,-0.31787109375,1.00537109375,[0. 0. 0. 0. 0. 0. 0. 0. 0.]
10.93513798713684,0.013686790131032467,-0.0070984321646392345,0.4609726071357727,-0.8872804045677185,[0. 0. 0. 0. 0. 0. 0. 0. 0.],-6.7138671875,1.5869140625,-26.91650390625,[0. 0. 0. 0. 0. 0. 0. 0. 0.],-0.06884765625,-0.3291015625,1.1171875,[0. 0. 0. 0. 0. 0. 0. 0. 0.]
10.956377506256104,0.014607157558202744,-0.008356088772416115,0.46552637219429016,-0.8848740458488464,[0. 0. 0. 0. 0. 0. 0. 0. 0.],2.13623046875,3.84521484375,-31.005859375,[0. 0. 0. 0. 0. 0. 0. 0. 0.],-0.08740234375,-0.2939453125,1.02978515625,[0. 0. 0. 0. 0. 0. 0. 0. 0.]
10.974706172943115,0.016252601519227028,-0.008772141300141811,0.47108229994773865,-0.881895899772644,[0. 0. 0. 0. 0. 0. 0. 0. 0.],-6.40869140625,1.3427734375,-35.70556640625,[0. 0. 0. 0. 0. 0. 0. 0. 0.],-0.0927734375,-0.2412109375,0.8828125,[0. 0. 0. 0. 0. 0. 0. 0. 0.]
10.989797592163086,0.018073437735438347,-0.0103140315040946,0.4772929847240448,-0.8784977793693542,[0. 0. 0. 0. 0. 0. 0. 0. 0.],-2.3193359375,8.97216796875,-41.015625,[0. 0. 0. 0. 0. 0. 0. 0. 0.],-0.0224609375,-0.27734375,0.966796875,[0. 0. 0. 0. 0. 0. 0. 0. 0.]
11.016627073287964,0.01909726858139038,-0.012527531012892723,0.4840773344039917,-0.8747270703315735,[0. 0. 0. 0. 0. 0. 0. 0. 0.],3.0517578125,1.28173828125,-48.095703125,[0. 0. 0. 0. 0. 0. 0. 0. 0.],-0.05517578125,-0.333984375,1.0654296875,[0. 0. 0. 0. 0. 0. 0. 0. 0.]
11.034949779510498,0.02029670774936676,-0.013994025066494942,0.49149543046951294,-0.8705311417579651,[0. 0. 0. 0. 0. 0. 0. 0. 0.],-1.64794921875,-2.62451171875,-52.1240234375,[0. 0. 0. 0. 0. 0. 0. 0. 0.],-0.10302734375,-0.265625,0.92822265625,[0. 0. 0. 0. 0. 0. 0. 0. 0.]
11.060368061065674,0.02295861952006817,-0.014732465147972107,0.5020633339881897,-0.8644004464149475,[0. 0. 0. 0. 0. 0. 0. 0. 0.],-1.15966796875,-12.6953125,-60.791015625,[0. 0. 0. 0. 0. 0. 0. 0. 0.],-0.09423828125,-0.2646484375,0.939453125,[0. 0. 0. 0. 0. 0. 0. 0. 0.]
11.074579238891602,0.024567345157265663,-0.0153216402977705,0.5089700818061829,-0.8602970838546753,[0. 0. 0. 0. 0. 0. 0. 0. 0.],-3.662109375,0.244140625,-61.34033203125,[0. 0. 0. 0. 0. 0. 0. 0. 0.],-0.0732421875,-0.28857421875,0.99462890625,[0. 0. 0. 0. 0. 0. 0. 0. 0.]
11.094545841217041,0.02538888342678547,-0.01854007877409458,0.5184851288795471,-0.8545085191726685,[0. 0. 0. 0. 0. 0. 0. 0. 0.],-5.859375,21.91162109375,-63.5986328125,[0. 0. 0. 0. 0. 0. 0. 0. 0.],-0.0458984375,-0.28662109375,1.03564453125,[0. 0. 0. 0. 0. 0. 0. 0. 0.]
11.114911556243896,0.026039021089673042,-0.021776549518108368,0.528789758682251,-0.8480738401412964,[0. 0. 0. 0. 0. 0. 0. 0. 0.],-5.55419921875,13.61083984375,-70.25146484375,[0. 0. 0. 0. 0. 0. 0. 0. 0.],-0.1396484375,-0.259765625,0.970703125,[0. 0. 0. 0. 0. 0. 0. 0. 0.]
11.13461971282959,0.026480335742235184,-0.024804119020700455,0.5424139499664307,-0.8393275737762451,[0. 0. 0. 0. 0. 0. 0. 0. 0.],2.3193359375,5.67626953125,-75.74462890625,[0. 0. 0. 0. 0. 0. 0. 0. 0.],-0.18994140625,-0.3251953125,1.11181640625,[0. 0. 0. 0. 0. 0. 0. 0. 0.]
11.15474820137024,0.026543453335762024,-0.02548087388277054,0.5508502721786499,-0.8337926268577576,[0. 0. 0. 0. 0. 0. 0. 0. 0.],4.45556640625,-0.732421875,-78.369140625,[0. 0. 0. 0. 0. 0. 0. 0. 0.],-0.2353515625,-0.29052734375,1.08544921875,[0. 0. 0. 0. 0. 0. 0. 0. 0.]
11.174936532974243,0.027344949543476105,-0.025630900636315346,0.5626682639122009,-0.8258328437805176,[0. 0. 0. 0. 0. 0. 0. 0. 0.],-0.30517578125,-3.7841796875,-84.28955078125,[0. 0. 0. 0. 0. 0. 0. 0. 0.],-0.1787109375,-0.22607421875,0.91357421875,[0. 0. 0. 0. 0. 0. 0. 0. 0.]
11.198281049728394,0.026973972097039223,-0.02977946028113365,0.577933132648468,-0.8150944113731384,[0. 0. 0. 0. 0. 0. 0. 0. 0.],-0.3662109375,15.31982421875,-87.21923828125,[0. 0. 0. 0. 0. 0. 0. 0. 0.],-0.12939453125,-0.25341796875,1.00439453125,[0. 0. 0. 0. 0. 0. 0. 0. 0.]
11.214806079864502,0.02724728174507618,-0.030612530186772346,0.5874998569488525,-0.8081859946250916,[0. 0. 0. 0. 0. 0. 0. 0. 0.],0.54931640625,-4.69970703125,-92.1630859375,[0. 0. 0. 0. 0. 0. 0. 0. 0.],-0.30322265625,-0.23193359375,0.95849609375,[0. 0. 0. 0. 0. 0. 0. 0. 0.]
11.234804630279541,0.027611708268523216,-0.03132464364171028,0.6005421876907349,-0.7985020279884338,[0. 0. 0. 0. 0. 0. 0. 0. 0.],1.40380859375,5.37109375,-92.59033203125,[0. 0. 0. 0. 0. 0. 0. 0. 0.],-0.263671875,-0.1806640625,0.9208984375,[0. 0. 0. 0. 0. 0. 0. 0. 0.]
11.249882698059082,0.025561220943927765,-0.03442244604229927,0.6126235723495483,-0.7892111539840698,[0. 0. 0. 0. 0. 0. 0. 0. 0.],4.8828125,15.80810546875,-83.3740234375,[0. 0. 0. 0. 0. 0. 0. 0. 0.],-0.35107421875,-0.14892578125,1.0263671875,[0. 0. 0. 0. 0. 0. 0. 0. 0.]
11.27528429031372,0.024133944883942604,-0.03511077165603638,0.6238573789596558,-0.7803760170936584,[0. 0. 0. 0. 0. 0. 0. 0. 0.],4.21142578125,-1.220703125,-81.35986328125,[0. 0. 0. 0. 0. 0. 0. 0. 0.],-0.435546875,-0.0595703125,1.05859375,[0. 0. 0. 0. 0. 0. 0. 0. 0.]
11.294678926467896,0.022735316306352615,-0.03540981560945511,0.6354409456253052,-0.7710020542144775,[0. 0. 0. 0. 0. 0. 0. 0. 0.],1.15966796875,11.77978515625,-88.56201171875,[0. 0. 0. 0. 0. 0. 0. 0. 0.],-0.15380859375,0.01123046875,0.9970703125,[0. 0. 0. 0. 0. 0. 0. 0. 0.]
11.310304641723633,0.019752582535147667,-0.037982698529958725,0.6475959420204163,-0.7607803344726562,[0. 0. 0. 0. 0. 0. 0. 0. 0.],2.5634765625,12.8173828125,-91.73583984375,[0. 0. 0. 0. 0. 0. 0. 0. 0.],-0.1572265625,-0.09326171875,0.94482421875,[0. 0. 0. 0. 0. 0. 0. 0. 0.]
11.334734439849854,0.019116416573524475,-0.03954194486141205,0.6595855355262756,-0.7503452301025391,[0. 0. 0. 0. 0. 0. 0. 0. 0.],2.99072265625,-0.1220703125,-89.29443359375,[0. 0. 0. 0. 0. 0. 0. 0. 0.],-0.37451171875,-0.10205078125,0.96142578125,[0. 0. 0. 0. 0. 0. 0. 0. 0.]
11.356306314468384,0.016955988481640816,-0.03851825371384621,0.6715665459632874,-0.7397480607032776,[0. 0. 0. 0. 0. 0. 0. 0. 0.],17.7001953125,9.46044921875,-92.4072265625,[0. 0. 0. 0. 0. 0. 0. 0. 0.],-0.14404296875,0.03369140625,1.19482421875,[0. 0. 0. 0. 0. 0. 0. 0. 0.]
11.374547243118286,0.013432960025966167,-0.037803154438734055,0.6837740540504456,-0.7285901308059692,[0. 0. 0. 0. 0. 0. 0. 0. 0.],9.521484375,6.65283203125,-95.0927734375,[0. 0. 0. 0. 0. 0. 0. 0. 0.],-0.1923828125,0.0771484375,0.9716796875,[0. 0. 0. 0. 0. 0. 0. 0. 0.]
11.394602298736572,0.011170418001711369,-0.03745202720165253,0.6959075927734375,-0.7170670628547668,[0. 0. 0. 0. 0. 0. 0. 0. 0.],6.34765625,3.96728515625,-96.37451171875,[0. 0. 0. 0. 0. 0. 0. 0. 0.],-0.2646484375,0.12158203125,0.92578125,[0. 0. 0. 0. 0. 0. 0. 0. 0.]
11.414742946624756,0.009420925751328468,-0.03787223622202873,0.7078155875205994,-0.7053183913230896,[0. 0. 0. 0. 0. 0. 0. 0. 0.],0.9765625,4.45556640625,-94.6044921875,[0. 0. 0. 0. 0. 0. 0. 0. 0.],-0.2734375,0.091796875,0.94384765625,[0. 0. 0. 0. 0. 0. 0. 0. 0.]
11.435723781585693,0.006897948682308197,-0.03797299787402153,0.7193371653556824,-0.693588137626648,[0. 0. 0. 0. 0. 0. 0. 0. 0.],9.765625,4.45556640625,-94.6044921875,[0. 0. 0. 0. 0. 0. 0. 0. 0.],-0.259765625,0.07958984375,1.10498046875,[0. 0. 0. 0. 0. 0. 0. 0. 0.]
11.45512580871582,0.004855312407016754,-0.037392113357782364,0.7305083870887756,-0.6818620562553406,[0. 0. 0. 0. 0. 0. 0. 0. 0.],5.67626953125,1.0986328125,-91.36962890625,[0. 0. 0. 0. 0. 0. 0. 0. 0.],-0.26708984375,0.0849609375,1.00146484375,[0. 0. 0. 0. 0. 0. 0. 0. 0.]
11.475085496902466,0.0029313648119568825,-0.036556780338287354,0.740523099899292,-0.6710295677185059,[0. 0. 0. 0. 0. 0. 0. 0. 0.],8.4228515625,-3.84521484375,-80.6884765625,[0. 0. 0. 0. 0. 0. 0. 0. 0.],-0.2685546875,0.10107421875,0.96142578125,[0. 0. 0. 0. 0. 0. 0. 0. 0.]
11.495362758636475,0.003058014437556267,-0.03572789579629898,0.7493225336074829,-0.66123366355896,[0. 0. 0. 0. 0. 0. 0. 0. 0.],-2.99072265625,-14.70947265625,-72.1435546875,[0. 0. 0. 0. 0. 0. 0. 0. 0.],-0.27099609375,0.10498046875,0.8896484375,[0. 0. 0. 0. 0. 0. 0. 0. 0.]
11.514753341674805,0.0028930010739713907,-0.03468628227710724,0.7567988634109497,-0.6527204513549805,[0. 0. 0. 0. 0. 0. 0. 0. 0.],2.0751953125,-2.62451171875,-59.4482421875,[0. 0. 0. 0. 0. 0. 0. 0. 0.],-0.14013671875,0.02880859375,0.9794921875,[0. 0. 0. 0. 0. 0. 0. 0. 0.]
