time,imu.ypr.x,imu.ypr.y,imu.ypr.z,imu.linear_acceleration.x,imu.linear_acceleration.y,imu.linear_acceleration.z,imu.angular_velocity.x,imu.angular_velocity.y,imu.angular_velocity.z,imu.compass.x,imu.compass.y,imu.compass.z,imu.orientation.x,imu.orientation.y,imu.orientation.z,imu.orientation.w
2.635549545288086,-1.9626153709720249,1.7351659094640748,151.41541744564284,-0.03076171875,0.0341796875,1.0048828125,-0.1220703125,-0.244140625,-0.06103515625,0.0,0.0,0.0,-0.018898241221904755,0.012856799177825451,0.9688597321510315,-0.24655281007289886
2.654695987701416,-1.9109699627800312,1.696721762833835,151.421168464924,-0.02978515625,0.03369140625,1.00634765625,0.0,-0.244140625,-0.1220703125,0.0,0.0,0.0,-0.01846148818731308,0.012503948993980885,0.9688813090324402,-0.2465192973613739
2.6757590770721436,-1.8652023592556568,1.7143014958186842,151.42534854069606,-0.0302734375,0.03271484375,1.0068359375,0.1220703125,-0.9765625,-0.30517578125,0.0,0.0,0.0,-0.018511207774281502,0.012079758569598198,0.9688937067985535,-0.2464885413646698
2.69503116607666,-1.8748243882489122,1.8448520240670154,151.42808061636404,-0.03173828125,0.03271484375,1.00341796875,-0.244140625,-0.8544921875,-0.244140625,0.0,0.0,0.0,-0.01963530108332634,0.011880219914019108,0.9688860177993774,-0.24644139409065247
2.711212635040283,-1.934961002239701,1.6659966904610615,151.4304165410602,-0.02978515625,0.0341796875,1.00537109375,-0.1220703125,-0.54931640625,-0.06103515625,0.0,0.0,0.0,-0.01825231872498989,0.012774495407938957,0.9689012765884399,-0.24644264578819275
2.7355775833129883,-1.944451976978257,1.7506498415907878,151.43381797526686,-0.03076171875,0.0341796875,1.0029296875,0.0,-0.18310546875,0.1220703125,0.0,0.0,0.0,-0.018988022580742836,0.012672891840338707,0.9689000248908997,-0.24639759957790375
2.754552125930786,-1.9067111263891168,1.7051234291214794,151.4372057490952,-0.0302734375,0.03369140625,1.00439453125,-0.1220703125,-1.0986328125,-0.06103515625,0.0,0.0,0.0,-0.018521612510085106,0.01245242077857256,0.9689155220985413,-0.24638302624225616
2.775296688079834,-1.8748771087715683,1.7875137599235218,151.44118091919213,-0.03125,0.033203125,1.00537109375,-0.18310546875,-1.15966796875,-0.18310546875,0.0,0.0,0.0,-0.019149301573634148,0.012006422504782677,0.9689198136329651,-0.24634049832820892
2.7961041927337646,-1.875174648887287,1.7861085552234974,151.44387201372513,-0.03125,0.03369140625,1.0048828125,-0.06103515625,-0.42724609375,-0.18310546875,0.0,0.0,0.0,-0.019137779250741005,0.012012415565550327,0.9689256548881531,-0.24631786346435547
2.8098390102386475,-1.937170141549377,1.6715772751780793,151.44626257993463,-0.029296875,0.0341796875,1.00244140625,-0.06103515625,-0.244140625,0.0,0.0,0.0,0.0,-0.01830248162150383,0.012783677317202091,0.9689346551895142,-0.24630743265151978
2.8357067108154297,-2.001645846653828,1.7285581283289106,151.44906295749433,-0.02978515625,0.03466796875,1.00439453125,-0.06103515625,-0.6103515625,0.0,0.0,0.0,0.0,-0.018922477960586548,0.013206596486270428,0.968928337097168,-0.24626317620277405
2.8545961380004883,-1.8830823003988693,1.7020101435204231,151.45698597693155,-0.029296875,0.03125,1.005859375,0.06103515625,-0.9765625,-0.3662109375,0.0,0.0,0.0,-0.018442369997501373,0.012262522242963314,0.9689608812332153,-0.24622005224227905
2.8746912479400635,-1.8786872871113776,1.7565312747964035,151.46066061870502,-0.03076171875,0.03271484375,1.0068359375,0.18310546875,-0.79345703125,-0.244140625,0.0,0.0,0.0,-0.018893497064709663,0.012108588591217995,0.9689642786979675,-0.246180459856987
2.8944478034973145,-1.9058998279817663,1.705092906713626,151.46023714697648,-0.0302734375,0.033203125,1.00390625,-0.30517578125,-0.48828125,-0.244140625,0.0,0.0,0.0,-0.018517106771469116,0.012449350208044052,0.9689651727676392,-0.24618837237358093
2.9148261547088623,-1.8852782062170284,1.755182739322149,151.4658379020959,-0.0302734375,0.03271484375,1.00439453125,-0.30517578125,-0.30517578125,-0.1220703125,0.0,0.0,0.0,-0.01889570616185665,0.012168078683316708,0.968974769115448,-0.24613574147224426
2.9305975437164307,-1.8064104387577142,1.7181512679113384,151.47254514786084,-0.0302734375,0.03173828125,1.00634765625,0.06103515625,-0.48828125,-0.06103515625,0.0,0.0,0.0,-0.018412521108984947,0.011581948958337307,0.9690008163452148,-0.24609823524951935
2.9548609256744385,-1.810948886017776,1.7183524383267363,151.47605586509422,-0.0302734375,0.03173828125,1.00634765625,0.1220703125,-0.9765625,-0.244140625,0.0,0.0,0.0,-0.01842361129820347,0.011620460078120232,0.9690079092979431,-0.24606767296791077
2.974609851837158,-1.8069220626152305,1.7723563962165,151.48091895978328,-0.03125,0.03173828125,1.005859375,-0.1220703125,-1.28173828125,-0.244140625,0.0,0.0,0.0,-0.018871091306209564,0.011471026577055454,0.9690135717391968,-0.24601827561855316
2.9959495067596436,-1.9781997282238784,1.7804451544627933,151.47876062000554,-0.03125,0.03466796875,1.005859375,0.30517578125,-0.91552734375,-0.18310546875,0.0,0.0,0.0,-0.019307419657707214,0.012901611626148224,0.9689900279045105,-0.24600668251514435
3.0148417949676514,-1.986296063711282,1.7145176072728916,151.48048182767639,-0.0302734375,0.03466796875,1.005859375,0.06103515625,-0.18310546875,-0.18310546875,0.0,0.0,0.0,-0.01876719295978546,0.013112190179526806,0.9689987897872925,-0.24600248038768768
3.035155773162842,-1.9191984197391925,1.720325936110047,151.48658801679437,-0.0302734375,0.03369140625,1.0048828125,0.06103515625,-0.6103515625,-0.18310546875,0.0,0.0,0.0,-0.018671587109565735,0.01253330148756504,0.9690189361572266,-0.24596081674098969
3.0497395992279053,-1.9303657790321633,1.6780713976965862,151.48962062078587,-0.02978515625,0.0341796875,1.00537109375,0.0,-0.79345703125,-0.244140625,0.0,0.0,0.0,-0.018337948247790337,0.01271909661591053,0.9690279960632324,-0.245940700173378
3.074941873550415,-1.9529741320717287,1.6767709937116393,151.49138280959173,-0.029296875,0.03466796875,1.0048828125,0.30517578125,-0.91552734375,-0.244140625,0.0,0.0,0.0,-0.018375277519226074,0.012913360260426998,0.9690293669700623,-0.24592244625091553
3.0896143913269043,-1.9391713869761908,1.7154469398868364,151.49487986644678,-0.0302734375,0.033203125,1.00341796875,0.0,-0.67138671875,-0.1220703125,0.0,0.0,0.0,-0.018672285601496696,0.012714044190943241,0.9690349698066711,-0.24588832259178162
3.1146843433380127,-1.842062959008123,1.7527327291225245,151.501477829185,-0.03076171875,0.0322265625,1.00537109375,-0.3662109375,-0.54931640625,-0.06103515625,0.0,0.0,0.0,-0.018778493627905846,0.011813768185675144,0.9690560698509216,-0.24584195017814636
3.1359517574310303,-1.9320539029742143,1.8085164848996054,151.50217450848035,-0.03173828125,0.03369140625,1.00439453125,-0.18310546875,-0.42724609375,0.06103515625,0.0,0.0,0.0,-0.019443148747086525,0.012454984709620476,0.9690426588058472,-0.2458113729953766
3.1551873683929443,-1.9559015084613138,1.6762062224446437,151.50632726349573,-0.029296875,0.03466796875,1.00634765625,0.0,-0.18310546875,-0.18310546875,0.0,0.0,0.0,-0.018375098705291748,0.012941726483404636,0.9690610766410828,-0.24579569697380066
3.1753876209259033,-1.9600158436626003,1.675127479442605,151.50837632024673,-0.029296875,0.0341796875,1.0068359375,0.06103515625,-0.9765625,-0.18310546875,0.0,0.0,0.0,-0.018374569714069366,0.012979167513549328,0.9690651297569275,-0.24577786028385162
3.1987082958221436,-1.9464555702825979,1.6265301498894353,151.5132120941791,-0.02880859375,0.03466796875,1.00244140625,-0.06103515625,-1.220703125,-0.244140625,0.0,0.0,0.0,-0.01793401502072811,0.012969687581062317,0.9690811634063721,-0.24574759602546692
3.209557056427002,-1.9840139267548518,1.7430592602670822,151.51501526411997,-0.03076171875,0.03515625,1.00341796875,-0.244140625,-0.1220703125,0.0,0.0,0.0,0.0,-0.01899968460202217,0.013037219643592834,0.969070553779602,-0.2457057237625122
3.235910415649414,-1.9233671830104275,1.8265469036479696,151.52157224572318,-0.0322265625,0.033203125,1.0029296875,-0.244140625,-0.1220703125,-0.06103515625,0.0,0.0,0.0,-0.019574880599975586,0.01234608143568039,0.9690833687782288,-0.24564561247825623
3.249783515930176,-1.8641658780491073,1.7312777175573393,151.52564303846853,-0.03076171875,0.03271484375,1.00390625,-0.18310546875,-1.0986328125,-0.06103515625,0.0,0.0,0.0,-0.01864195615053177,0.012050731107592583,0.9691076278686523,-0.24563759565353394
3.2794430255889893,-1.8932902315568647,1.7194853959553122,151.5285390386766,-0.0302734375,0.033203125,1.0048828125,0.0,-1.03759765625,-0.30517578125,0.0,0.0,0.0,-0.01860436052083969,0.012322837486863136,0.9691118001937866,-0.24561038613319397
3.294532299041748,-1.9252124013033889,1.796269742274361,151.5283341330015,-0.03125,0.0341796875,1.0029296875,-0.06103515625,-0.30517578125,-0.1220703125,0.0,0.0,0.0,-0.01932208426296711,0.012427867390215397,0.9691006541252136,-0.24559345841407776
3.3148891925811768,-1.8690680328824725,1.6451050627806965,151.5336206994191,-0.029296875,0.03271484375,1.00244140625,-0.244140625,-0.48828125,-0.06103515625,0.0,0.0,0.0,-0.017922930419445038,0.012278511188924313,0.9691318273544312,-0.2455839067697525
3.3346941471099854,-1.8622579073931467,1.6846591151510635,151.53699481286907,-0.02978515625,0.03271484375,1.00537109375,-0.244140625,-0.732421875,-0.06103515625,0.0,0.0,0.0,-0.018242457881569862,0.012136529199779034,0.9691363573074341,-0.24554981291294098
3.356616497039795,-1.9207571969738364,1.8064162017298264,151.5402733036707,-0.03173828125,0.03369140625,1.00439453125,0.06103515625,-0.48828125,-0.06103515625,0.0,0.0,0.0,-0.01939704641699791,0.012370418757200241,0.9691257476806641,-0.24549148976802826
3.3745288848876953,-1.9246367444224037,1.7934499413642033,151.54217209625995,-0.03125,0.03369140625,1.0048828125,0.06103515625,-0.732421875,-0.244140625,0.0,0.0,0.0,-0.019295506179332733,0.012431380338966846,0.9691306948661804,-0.24547716975212097
3.3956053256988525,-1.9790799688531637,1.649488870289081,151.54337420955386,-0.029296875,0.03515625,1.00439453125,-0.244140625,-1.03759765625,-0.18310546875,0.0,0.0,0.0,-0.018194638192653656,0.01320104394108057,0.9691401124000549,-0.24548335373401642
3.4146652221679688,-1.9168206601343818,1.743766505011296,151.5467346626255,-0.03125,0.03369140625,1.0048828125,-0.30517578125,-0.244140625,0.1220703125,0.0,0.0,0.0,-0.018858134746551514,0.012472681701183319,0.9691460132598877,-0.2454485446214676
3.4299545288085938,-1.8170529407016518,1.885494637836353,151.55349654990383,-0.033203125,0.03173828125,1.00439453125,0.18310546875,-0.54931640625,-0.06103515625,0.0,0.0,0.0,-0.01984226517379284,0.0113258957862854,0.969156801700592,-0.24538373947143555
3.454692840576172,-1.9576797055230444,1.7883615571542497,151.55259496493338,-0.03076171875,0.0341796875,1.00390625,0.244140625,-0.9765625,-0.30517578125,0.0,0.0,0.0,-0.01932210475206375,0.01272351760417223,0.9691498279571533,-0.24538420140743256
3.474822521209717,-1.919034708642524,1.613668049908655,151.55549096514147,-0.0283203125,0.033203125,1.00634765625,-0.244140625,-1.03759765625,-0.18310546875,0.0,0.0,0.0,-0.01776173897087574,0.012771982699632645,0.9691758751869202,-0.24539652466773987
3.49453067779541,-1.901920602459999,1.6279073935025448,151.5596983616702,-0.029296875,0.0341796875,1.00439453125,-0.42724609375,-0.48828125,-0.1220703125,0.0,0.0,0.0,-0.017845043912529945,0.012597342021763325,0.9691855907440186,-0.24536114931106567
3.518026828765869,-1.8042610636032759,1.7137134592198284,151.56885081515802,-0.0302734375,0.03173828125,1.00732421875,0.244140625,-1.0986328125,-0.244140625,0.0,0.0,0.0,-0.018360650166869164,0.01158875972032547,0.9692079424858093,-0.24528475105762482
3.5346455574035645,-1.8827006635789947,1.71407012316055,151.56759406035073,-0.0302734375,0.033203125,1.00634765625,-0.18310546875,-0.42724609375,-0.06103515625,0.0,0.0,0.0,-0.018531696870923042,0.012251223437488079,0.9691970348358154,-0.24528272449970245
3.5525104999542236,-1.9972762331323124,1.657402071329364,151.56920598499485,-0.029296875,0.03466796875,1.00439453125,-0.18310546875,-0.30517578125,-0.18310546875,0.0,0.0,0.0,-0.018297526985406876,0.013342073187232018,0.9691926836967468,-0.24526061117649078
3.574867010116577,-1.9984885917099897,1.705244238092424,151.57286696639,-0.029296875,0.0341796875,1.00390625,0.1220703125,-0.9765625,-0.244140625,0.0,0.0,0.0,-0.018704283982515335,0.013250324875116348,0.9691962599754333,-0.2452208548784256
3.5995430946350098,-1.9661988724087545,1.7531756242015175,151.57680115535192,-0.03076171875,0.03466796875,1.00732421875,0.18310546875,-0.9765625,-0.244140625,0.0,0.0,0.0,-0.01904008723795414,0.012875095941126347,0.9692039489746094,-0.24518431723117828
3.614760398864746,-1.9714566239657831,1.7592510774682437,151.57716998556708,-0.03125,0.0341796875,1.00537109375,-0.48828125,-0.42724609375,0.0,0.0,0.0,0.0,-0.01910267397761345,0.01290659885853529,0.9692036509513855,-0.24517934024333954
3.636326789855957,-1.9867662795469552,1.618408628079467,151.58022991031527,-0.02880859375,0.03564453125,1.00634765625,-0.30517578125,-0.54931640625,-0.06103515625,0.0,0.0,0.0,-0.017943991348147392,0.013338534161448479,0.969220757484436,-0.24517589807510376
3.6557724475860596,-1.976257820065479,1.7386221986275128,151.58380892944035,-0.03076171875,0.0341796875,1.0048828125,0.18310546875,-0.67138671875,-0.244140625,0.0,0.0,0.0,-0.018937738612294197,0.01299253385514021,0.9692192077636719,-0.24512599408626556
3.674535036087036,-1.8190091495686258,1.7183881900981732,151.59156802433748,-0.0302734375,0.03173828125,1.00439453125,0.0,-0.8544921875,-0.244140625,0.0,0.0,0.0,-0.018429430201649666,0.011707124300301075,0.9692546725273132,-0.24508951604366302
3.6945550441741943,-1.9263013895891827,1.739190064823976,151.59200515644437,-0.03125,0.03515625,1.0048828125,-0.42724609375,-0.6103515625,-0.1220703125,0.0,0.0,0.0,-0.018834779039025307,0.012570131570100784,0.9692422151565552,-0.24506479501724243
3.714568853378296,-1.915627084576922,1.782972858064227,151.5961169303247,-0.03125,0.03369140625,1.00390625,-0.30517578125,-0.244140625,-0.06103515625,0.0,0.0,0.0,-0.019181780517101288,0.012386707589030266,0.9692481756210327,-0.2450241893529892
3.7348086833953857,-1.8986431788754508,1.8131962316981218,151.6013625156073,-0.03173828125,0.033203125,1.005859375,0.18310546875,-0.42724609375,-0.1220703125,0.0,0.0,0.0,-0.01940051279962063,0.012179183773696423,0.969258189201355,-0.2449774295091629
3.758298873901367,-1.9122117765485043,1.749162354455606,151.60455904413885,-0.03076171875,0.03369140625,1.0078125,-0.1220703125,-0.732421875,-0.1220703125,0.0,0.0,0.0,-0.01888762228190899,0.012431656010448933,0.9692696332931519,-0.24495920538902283
3.7743918895721436,-1.9678765376236387,1.7134329945770346,151.60427217619372,-0.0302734375,0.03466796875,1.00732421875,-0.18310546875,-1.0986328125,-0.1220703125,0.0,0.0,0.0,-0.018704470247030258,0.01297898031771183,0.9692661762237549,-0.244958758354187
3.794487237930298,-1.9539869210595946,1.7717085954624066,151.60610266689127,-0.03125,0.03466796875,1.00341796875,-0.1220703125,-0.18310546875,0.06103515625,0.0,0.0,0.0,-0.019167430698871613,0.0127369724214077,0.9692662954330444,-0.2449352741241455
3.8121509552001953,-1.8735853492447896,1.6919461799435267,151.6136978372483,-0.02978515625,0.03271484375,1.00439453125,-0.30517578125,-0.48828125,0.0,0.0,0.0,0.0,-0.018320169299840927,0.012228949926793575,0.9692986011505127,-0.24489791691303253
3.8346941471099854,-1.8143473320166805,1.6598846316492522,151.6188751206392,-0.02978515625,0.0322265625,1.0078125,-0.244140625,-0.8544921875,-0.18310546875,0.0,0.0,0.0,-0.01792186312377453,0.011797324754297733,0.9693188071250916,-0.24486900866031647
3.8545291423797607,-1.866545131757799,1.7365397379825993,151.6195581395562,-0.03076171875,0.033203125,1.00390625,0.06103515625,-1.0986328125,-0.18310546875,0.0,0.0,0.0,-0.018681664019823074,0.012074867263436317,0.9693077802658081,-0.24484199285507202
3.870939254760742,-1.9096062728235559,1.752860901891168,151.61970840371794,-0.03076171875,0.03271484375,1.0048828125,-0.06103515625,-0.79345703125,-0.1220703125,0.0,0.0,0.0,-0.01891169138252735,0.012404195964336395,0.9693019986152649,-0.24483083188533783
3.8945300579071045,-1.8838363959719209,1.7982797388810488,151.6235879511665,-0.03173828125,0.033203125,1.00439453125,-0.18310546875,-0.30517578125,-0.06103515625,0.0,0.0,0.0,-0.01924036256968975,0.012089627794921398,0.9693086743354797,-0.24479450285434723
3.915036678314209,-2.020818614540877,1.7457484338093632,151.62315081905962,-0.03125,0.03515625,1.0048828125,-0.3662109375,-0.42724609375,0.0,0.0,0.0,0.0,-0.019088737666606903,0.01336070615798235,0.9692975878715515,-0.2447846382856369
3.93451189994812,-1.8680127686557055,1.744709924890404,151.63121044228023,-0.03076171875,0.033203125,1.00732421875,0.0,-0.6103515625,-0.244140625,0.0,0.0,0.0,-0.018752671778202057,0.012071696110069752,0.9693318605422974,-0.24474181234836578
3.958258628845215,-1.8168680987072383,1.752581504465432,151.63661995210288,-0.03076171875,0.0322265625,1.00439453125,0.18310546875,-0.79345703125,-0.1220703125,0.0,0.0,0.0,-0.018709467723965645,0.011623102240264416,0.9693478345870972,-0.244703009724617
3.9744062423706055,-1.931100878141586,1.726364890553396,151.63513097086383,-0.03076171875,0.03369140625,1.00341796875,-0.244140625,-1.15966796875,-0.244140625,0.0,0.0,0.0,-0.018731819465756416,0.012645258568227291,0.9693350195884705,-0.24470144510269165
4.000363826751709,-1.8589770687140132,1.7659377259439806,151.64095029203668,-0.03076171875,0.0322265625,1.00537109375,0.06103515625,-1.28173828125,-0.18310546875,0.0,0.0,0.0,-0.018911903724074364,0.011951444670557976,0.9693514704704285,-0.24465727806091309
4.014527320861816,-1.830572873276869,1.7416292961313167,151.64417414132492,-0.03076171875,0.0322265625,1.00537109375,-0.06103515625,-0.06103515625,-0.06103515625,0.0,0.0,0.0,-0.01864532195031643,0.011763690039515495,0.9693636894226074,-0.2446388304233551
4.0358076095581055,-1.952754285357819,1.8660057602567794,151.64346380165125,-0.03271484375,0.03466796875,1.00390625,-0.3662109375,-0.42724609375,-0.06103515625,0.0,0.0,0.0,-0.01995820552110672,0.01253107376396656,0.969336986541748,-0.24460257589817047
4.054681062698364,-1.9498994797281652,1.710762177168148,151.6472750472081,-0.02978515625,0.0341796875,1.00537109375,-0.06103515625,-1.0986328125,-0.244140625,0.0,0.0,0.0,-0.01863863319158554,0.012839636765420437,0.9693603515625,-0.2445983737707138
4.074751377105713,-1.8588665050268236,1.705219905543506,151.65178297206032,-0.02978515625,0.0322265625,1.0048828125,0.0,-0.9765625,-0.1220703125,0.0,0.0,0.0,-0.01839696243405342,0.01208213809877634,0.9693803787231445,-0.24457594752311707
4.096384763717651,-1.8915673163387292,1.77754808703765,151.65359980237955,-0.03076171875,0.033203125,1.00390625,0.0,-0.48828125,-0.18310546875,0.0,0.0,0.0,-0.019078336656093597,0.012204397469758987,0.9693740010261536,-0.2445429265499115
4.117278337478638,-1.9170659066142677,1.8506327119823733,151.65592206669734,-0.03271484375,0.0341796875,1.00390625,-0.3662109375,-0.67138671875,-0.06103515625,0.0,0.0,0.0,-0.019750667735934258,0.01226421445608139,0.9693689942359924,-0.24450618028640747
4.134492635726929,-1.8896454718610167,1.7132910547083453,151.6605529349546,-0.03076171875,0.03271484375,1.00390625,-0.18310546875,-0.6103515625,-0.18310546875,0.0,0.0,0.0,-0.0185299813747406,0.01232666801661253,0.9693950414657593,-0.24449549615383148
4.154626369476318,-1.8399263904583782,1.7348154353822884,151.66530674661695,-0.0302734375,0.03173828125,1.00732421875,0.30517578125,-0.8544921875,-0.18310546875,0.0,0.0,0.0,-0.018605470657348633,0.011860822327435017,0.9694084525108337,-0.24445970356464386
4.1697447299957275,-1.8406448409816991,1.7468582328277846,151.66773829396146,-0.03125,0.0322265625,1.00341796875,0.0,-0.79345703125,-0.1220703125,0.0,0.0,0.0,-0.018708618357777596,0.01184156071394682,0.9694123864173889,-0.2444368600845337
4.190613746643066,-1.9439486774137915,1.7466815016830104,151.66765633169143,-0.03076171875,0.03466796875,1.005859375,-0.42724609375,-0.48828125,-0.18310546875,0.0,0.0,0.0,-0.01892748475074768,0.012715840712189674,0.9694011211395264,-0.24442066252231598
4.214584589004517,-1.9462280396058718,1.7224917464071756,151.67322976605416,-0.0302734375,0.0341796875,1.0048828125,-0.18310546875,-0.244140625,-0.06103515625,0.0,0.0,0.0,-0.01872711256146431,0.012787733227014542,0.9694150686264038,-0.24437738955020905
4.236530065536499,-1.9706668833430006,1.6119544194789222,151.67616674739725,-0.0283203125,0.03466796875,1.005859375,0.0,-0.1220703125,0.0,0.0,0.0,0.0,-0.01784389093518257,0.013231142424046993,0.9694280624389648,-0.24436798691749573
4.253604888916016,-1.93573793625779,1.6402282009916016,151.67997799295412,-0.02880859375,0.0341796875,1.00732421875,0.0,-1.220703125,-0.30517578125,0.0,0.0,0.0,-0.018008138984441757,0.01287583727389574,0.9694378972053528,-0.24433638155460358
4.274608850479126,-2.004027448240047,1.7259723681195318,151.6814396534365,-0.0302734375,0.03515625,1.00146484375,-0.30517578125,-1.03759765625,-0.30517578125,0.0,0.0,0.0,-0.018878862261772156,0.013270612806081772,0.9694257378578186,-0.24429789185523987
4.294661521911621,-1.8956876279555392,1.6960437598370053,151.68678086136745,-0.0302734375,0.03369140625,1.001953125,-0.1220703125,-0.244140625,0.06103515625,0.0,0.0,0.0,-0.018394142389297485,0.012418863363564014,0.969451904296875,-0.2442755252122879
4.314460754394531,-1.8574991865323518,1.7385946644274213,151.69175323908323,-0.03076171875,0.03271484375,1.00537109375,-0.06103515625,-0.18310546875,-0.06103515625,0.0,0.0,0.0,-0.01867215521633625,0.012005713768303394,0.9694626927375793,-0.24423249065876007
4.334522247314453,-1.8683937651453453,1.7728102836311885,151.69434871096783,-0.03125,0.0322265625,1.0048828125,-0.244140625,-0.91552734375,-0.18310546875,0.0,0.0,0.0,-0.018984535709023476,0.012025246396660805,0.9694637656211853,-0.24420282244682312
4.355325222015381,-1.9027882499280022,1.7139056650119406,151.69630214507046,-0.0302734375,0.03271484375,1.0048828125,-0.06103515625,-1.0986328125,-0.30517578125,0.0,0.0,0.0,-0.01855934038758278,0.012442328035831451,0.9694697856903076,-0.2441907525062561
4.374813079833984,-1.8205032534495662,1.7730377075862087,151.70188923981152,-0.03076171875,0.0322265625,1.00537109375,0.18310546875,-0.54931640625,-0.244140625,0.0,0.0,0.0,-0.018883634358644485,0.01162084098905325,0.9694847464561462,-0.24414685368537903
4.3964455127716064,-1.893001015734197,1.8559924894901292,151.70391097580585,-0.03271484375,0.03369140625,1.00341796875,-0.30517578125,-0.79345703125,-0.18310546875,0.0,0.0,0.0,-0.019739605486392975,0.012057449668645859,0.9694733023643494,-0.24410337209701538
4.414831876754761,-1.947572733098718,1.7816250696419131,151.7071621458508,-0.03125,0.03466796875,1.0029296875,-0.30517578125,-0.48828125,0.0,0.0,0.0,0.0,-0.01922641322016716,0.012678437866270542,0.9694817066192627,-0.24407970905303955
4.433434247970581,-1.9468483061598736,1.8236743822151562,151.71080946686757,-0.0322265625,0.0341796875,1.0048828125,-0.1220703125,-0.1220703125,-0.06103515625,0.0,0.0,0.0,-0.019580170512199402,0.012583180330693722,0.9694854617118835,-0.24404144287109375
4.455117702484131,-1.8616192847057504,1.8338673723343424,151.71739376922744,-0.0322265625,0.03271484375,1.00244140625,0.244140625,-0.91552734375,-0.244140625,0.0,0.0,0.0,-0.019484201446175575,0.011841473169624805,0.96950763463974,-0.24399857223033905
4.4745094776153564,-1.9768328366162295,1.8320488344678265,151.71668342955377,-0.0322265625,0.03466796875,1.00390625,-0.18310546875,-1.220703125,-0.244140625,0.0,0.0,0.0,-0.01971421018242836,0.012819997034966946,0.9694938063621521,-0.2439851015806198
4.495627403259277,-1.9503114255124816,1.6922276050816722,151.72255739224,-0.0302734375,0.0341796875,1.00634765625,0.06103515625,-0.9765625,-0.30517578125,0.0,0.0,0.0,-0.01847427897155285,0.012894906103610992,0.9695224165916443,-0.24396471679210663
4.509607315063477,-1.9597648342106024,1.708181539600647,151.7238278074256,-0.02978515625,0.0341796875,1.00341796875,0.06103515625,-0.06103515625,0.06103515625,0.0,0.0,0.0,-0.018629224970936775,0.012941055931150913,0.9695225954055786,-0.24394968152046204
4.534517288208008,-1.9436519910717192,1.7102673086184395,151.7274478076857,-0.02978515625,0.03369140625,1.00390625,-0.06103515625,-0.42724609375,-0.1220703125,0.0,0.0,0.0,-0.01861216314136982,0.012800873257219791,0.9695318937301636,-0.2439212203025818
4.557027816772461,-1.8714820778672487,1.681828535348622,151.73333543075026,-0.02978515625,0.0322265625,1.00634765625,0.0,-1.0986328125,-0.18310546875,0.0,0.0,0.0,-0.01821731962263584,0.012251847423613071,0.9695549607276917,-0.24388794600963593
4.574846506118774,-1.8489117177549417,1.8551493880144558,151.73639535549842,-0.0322265625,0.03271484375,1.00341796875,0.0,-0.8544921875,-0.06103515625,0.0,0.0,0.0,-0.019635239616036415,0.011691807769238949,0.9695471525192261,-0.24383626878261566
4.594515562057495,-1.9470909913188206,1.8613808684150346,151.73625875171504,-0.03271484375,0.0341796875,1.00439453125,0.0,-0.42724609375,0.0,0.0,0.0,0.0,-0.01989687606692314,0.012509176507592201,0.9695358872413635,-0.24381941556930542
4.614990472793579,-2.011654208222012,1.723562485281281,151.73826682733102,-0.03076171875,0.03515625,1.00439453125,-0.42724609375,-0.732421875,-0.1220703125,0.0,0.0,0.0,-0.01886812038719654,0.013349642977118492,0.9695460200309753,-0.24381625652313232
4.63484263420105,-1.8996252320120517,1.7631847328216423,151.74455060136742,-0.03076171875,0.03369140625,1.00634765625,-0.18310546875,-0.732421875,0.0,0.0,0.0,0.0,-0.01896427385509014,0.012318332679569721,0.9695682525634766,-0.24377457797527313
4.655202388763428,-1.9983285091513174,1.6612922909485093,151.74373097866703,-0.029296875,0.03515625,1.00830078125,0.244140625,-1.03759765625,-0.244140625,0.0,0.0,0.0,-0.01831233501434326,0.013370535336434841,0.96956467628479,-0.2437833994626999
4.674849271774292,-2.0094117717401327,1.7232087028266154,151.74531558255447,-0.0302734375,0.03515625,1.00341796875,0.0,-0.732421875,-0.244140625,0.0,0.0,0.0,-0.018859535455703735,0.013332584872841835,0.9695613384246826,-0.2437569946050644
4.691879510879517,-1.926334900204798,1.689389554759826,151.7510529414573,-0.02978515625,0.03369140625,1.00244140625,-0.244140625,-1.03759765625,-0.06103515625,0.0,0.0,0.0,-0.01839606463909149,0.01270267367362976,0.9695859551429749,-0.24372801184654236
4.714684247970581,-1.8716965884958694,1.7301354751403604,151.75633950787486,-0.0302734375,0.03271484375,1.0048828125,-0.1220703125,-0.3662109375,-0.1220703125,0.0,0.0,0.0,-0.018624011427164078,0.012154392898082733,0.9695993661880493,-0.2436850666999817
4.734652280807495,-1.9547687642761495,1.7780675015796885,151.7572001117103,-0.03125,0.0341796875,1.0068359375,0.1220703125,-0.67138671875,-0.18310546875,0.0,0.0,0.0,-0.019206078723073006,0.012755301780998707,0.9695876836776733,-0.24365565180778503
4.7550208568573,-2.0150302426627027,1.8113072575057902,151.7587437344627,-0.03173828125,0.03515625,1.00634765625,0.0,-1.03759765625,-0.244140625,0.0,0.0,0.0,-0.019615240395069122,0.013194623403251171,0.9695810079574585,-0.2436264306306839
4.774508714675903,-1.9987758865419534,1.6783965787341022,151.76114796105057,-0.02978515625,0.03515625,1.0029296875,-0.244140625,-0.91552734375,-0.1220703125,0.0,0.0,0.0,-0.01845596171915531,0.013340667821466923,0.9696001410484314,-0.24363282322883606
4.791738271713257,-1.8940784780757667,1.6848308303756658,151.76857920686754,-0.02978515625,0.033203125,1.00439453125,0.06103515625,-0.42724609375,-0.18310546875,0.0,0.0,0.0,-0.018286986276507378,0.012442260980606079,0.9696271419525146,-0.2435854971408844
4.814424514770508,-1.841846527388798,1.7174788144432094,151.77318275436812,-0.0302734375,0.03271484375,1.00244140625,-0.06103515625,-0.30517578125,-0.1220703125,0.0,0.0,0.0,-0.01845169998705387,0.011931500397622585,0.9696394801139832,-0.24354948103427887
4.835626125335693,-1.8386546946122866,1.7218129963584057,151.77736283014016,-0.0302734375,0.0322265625,1.00390625,-0.06103515625,-0.91552734375,-0.244140625,0.0,0.0,0.0,-0.018481150269508362,0.01189593505114317,0.9696484208106995,-0.24351394176483154
4.849774599075317,-1.9533655872885352,1.8150207459801615,151.77557332057762,-0.0322265625,0.03369140625,1.00390625,0.0,-1.28173828125,-0.18310546875,0.0,0.0,0.0,-0.0195136908441782,0.012667817063629627,0.9696233868598938,-0.243493914604187
4.878793716430664,-1.8862918489785405,1.767883902970611,151.7815019247772,-0.0302734375,0.03271484375,1.00537109375,0.1220703125,-0.9765625,-0.244140625,0.0,0.0,0.0,-0.018971730023622513,0.01220161933451891,0.9696478247642517,-0.24346335232257843
4.894469976425171,-1.8810159547315288,1.6715015027669744,151.7828406418545,-0.029296875,0.033203125,1.00341796875,-0.244140625,-0.1220703125,0.06103515625,0.0,0.0,0.0,-0.01814490742981434,0.012362373061478138,0.9696601033210754,-0.24346940219402313
4.915011405944824,-1.9671467745995053,1.6479657381041681,151.78310018904298,-0.029296875,0.0341796875,1.0068359375,-0.30517578125,-0.3662109375,0.0,0.0,0.0,0.0,-0.018128741532564163,0.013141343370079994,0.9696531295776367,-0.2434576004743576
4.929724931716919,-1.8878119929556916,1.7190628847221234,151.788605321514,-0.0302734375,0.033203125,1.00634765625,0.06103515625,-0.30517578125,-0.244140625,0.0,0.0,0.0,-0.01856113411486149,0.012319570407271385,0.9696673154830933,-0.24341127276420593
4.9548773765563965,-1.8402572277463007,1.6646957528675856,151.79435634079516,-0.02978515625,0.0322265625,1.00537109375,0.18310546875,-0.8544921875,-0.244140625,0.0,0.0,0.0,-0.01799951307475567,0.012033775448799133,0.9696895480155945,-0.2433794140815735
4.978153467178345,-1.8636711162211046,1.7421302478182548,151.79651468057287,-0.0302734375,0.03271484375,1.00439453125,0.0,-0.9765625,-0.18310546875,0.0,0.0,0.0,-0.018704192712903023,0.01206748466938734,0.9696846008300781,-0.24334445595741272
4.995120048522949,-1.9936030854627265,1.7706488489239969,151.79412411436337,-0.03125,0.03515625,1.0009765625,-0.3662109375,-0.67138671875,-0.06103515625,0.0,0.0,0.0,-0.01922166533768177,0.013105886988341808,0.9696625471115112,-0.2433381974697113
5.009767532348633,-1.9811446069732117,1.8132696562316994,151.79808562408198,-0.03173828125,0.03515625,1.00341796875,0.0,-0.06103515625,0.0,0.0,0.0,0.0,-0.01955536939203739,0.012910443358123302,0.9696682095527649,-0.24329903721809387
5.031540393829346,-1.840705458910583,1.6930862879263897,151.8048884924953,-0.02978515625,0.03271484375,1.0068359375,-0.1220703125,-0.54931640625,-0.06103515625,0.0,0.0,0.0,-0.01823958195745945,0.011978833004832268,0.9697092175483704,-0.24328549206256866
5.055433750152588,-1.8732521640793398,1.7549029150095903,151.80726539832648,-0.03076171875,0.03271484375,1.0068359375,-0.06103515625,-1.03759765625,-0.18310546875,0.0,0.0,0.0,-0.018831470981240273,0.012123147025704384,0.9697051644325256,-0.24324972927570343
5.074598550796509,-1.9547864800793093,1.7038610180637908,151.80680094546292,-0.0302734375,0.0341796875,1.00390625,-0.18310546875,-0.732421875,-0.1220703125,0.0,0.0,0.0,-0.018572725355625153,0.012921605259180069,0.9696999788284302,-0.24324920773506165
5.09007716178894,-1.9725951311230598,1.6925677271579977,151.80932811545583,-0.02978515625,0.03515625,1.0029296875,0.06103515625,-0.30517578125,-0.06103515625,0.0,0.0,0.0,-0.018514683470129967,0.013096737675368786,0.9697043299674988,-0.2432268112897873
5.114787578582764,-1.866551961946969,1.8057882512130083,151.81663641786773,-0.03173828125,0.03271484375,1.00390625,-0.3662109375,-0.42724609375,-0.06103515625,0.0,0.0,0.0,-0.019246820360422134,0.01195979118347168,0.9697208404541016,-0.24316279590129852
5.134842395782471,-1.8876224552062235,1.7423575650515692,151.82093943704484,-0.03076171875,0.033203125,1.0048828125,-0.06103515625,-0.8544921875,-0.244140625,0.0,0.0,0.0,-0.01875436305999756,0.012273677624762058,0.9697338342666626,-0.24313373863697052
5.154736042022705,-1.9578993387935426,1.713071421437847,151.82093943704484,-0.0302734375,0.03466796875,1.0048828125,0.1220703125,-0.9765625,-0.1220703125,0.0,0.0,0.0,-0.018655668944120407,0.01293065957725048,0.9697287678718567,-0.24312737584114075
5.17519211769104,-2.004566819741066,1.7327175000900368,151.82171807861022,-0.0302734375,0.03515625,1.00390625,0.06103515625,-0.54931640625,-0.1220703125,0.0,0.0,0.0,-0.018920820206403732,0.01328394003212452,0.9697233438491821,-0.24310961365699768
5.196670770645142,-2.0224988410767,1.8077455272970402,151.82432721087318,-0.0322265625,0.03564453125,1.00390625,-0.18310546875,-0.79345703125,-0.18310546875,0.0,0.0,0.0,-0.019593391567468643,0.013276622630655766,0.9697197675704956,-0.24307090044021606
5.216191530227661,-1.9487088923784672,1.7820862141325948,151.83093883398973,-0.03125,0.0341796875,1.00341796875,-0.3662109375,-0.244140625,0.0,0.0,0.0,0.0,-0.019219018518924713,0.01270783506333828,0.9697446227073669,-0.2430320531129837
5.234761714935303,-1.805797642723117,1.7472811709477964,151.83964049499235,-0.03076171875,0.03173828125,1.00634765625,0.244140625,-0.6103515625,-0.18310546875,0.0,0.0,0.0,-0.01862051896750927,0.011573800817131996,0.9697815775871277,-0.24298802018165588
5.254669189453125,-1.8951670394747373,1.7713703943767851,151.839626834614,-0.03125,0.033203125,1.00634765625,-0.1220703125,-1.03759765625,-0.244140625,0.0,0.0,0.0,-0.01901385746896267,0.012278945185244083,0.9697699546813965,-0.2429693341255188
5.275002717971802,-1.9194590341447109,1.851826287539833,151.84227694801197,-0.03271484375,0.03369140625,1.0048828125,-0.30517578125,-0.79345703125,-0.18310546875,0.0,0.0,0.0,-0.01974586956202984,0.012314035557210445,0.9697650074958801,-0.24292874336242676
5.294697523117065,-1.9727840285422928,1.7217033931665682,151.84420306135792,-0.0302734375,0.03515625,1.00439453125,-0.06103515625,-0.06103515625,0.06103515625,0.0,0.0,0.0,-0.018757639452815056,0.01304207369685173,0.9697756767272949,-0.24292662739753723
5.314763069152832,-1.9524966591600625,1.726824861105314,151.8473722691328,-0.03076171875,0.03466796875,1.00439453125,0.06103515625,-0.3662109375,-0.1220703125,0.0,0.0,0.0,-0.018757613375782967,0.012860027141869068,0.9697842001914978,-0.24290212988853455
5.334739923477173,-1.961893078467296,1.704487901363551,151.8505824580427,-0.02978515625,0.0341796875,1.00732421875,-0.06103515625,-1.15966796875,-0.30517578125,0.0,0.0,0.0,-0.018588151782751083,0.012987511232495308,0.9697920083999634,-0.24287736415863037
5.3547539710998535,-1.938561365705944,1.675009231792599,151.8531096280356,-0.02978515625,0.03369140625,1.0048828125,-0.06103515625,-1.0986328125,-0.18310546875,0.0,0.0,0.0,-0.01828896999359131,0.012853063642978668,0.9698025584220886,-0.24286498129367828
5.375171184539795,-1.9473659064329136,1.7768632538516507,151.85558215651514,-0.03125,0.0341796875,1.00537109375,0.1220703125,-0.8544921875,-0.244140625,0.0,0.0,0.0,-0.019169243052601814,0.012711694464087486,0.9697974920272827,-0.24282461404800415
5.394613027572632,-1.9574602856959578,1.7516559071111897,151.85838253407485,-0.03076171875,0.03466796875,1.00634765625,-0.244140625,-0.54931640625,-0.1220703125,0.0,0.0,0.0,-0.01897701621055603,0.012851113453507423,0.9698046445846558,-0.24280375242233276
5.413609266281128,-1.9011244585348694,1.7776059302021836,151.86574547800012,-0.03125,0.03369140625,1.001953125,-0.30517578125,-0.54931640625,-0.1220703125,0.0,0.0,0.0,-0.01907644420862198,0.012320459820330143,0.9698240756988525,-0.2427462339401245
5.434736251831055,-1.9318475031952331,1.7144434356873735,151.86794479891287,-0.0302734375,0.03369140625,1.00439453125,-0.06103515625,-0.6103515625,-0.18310546875,0.0,0.0,0.0,-0.01860678754746914,0.012714912183582783,0.9698312282562256,-0.24273349344730377
5.455242395401001,-1.8877020695987365,1.715084299530591,151.87271227095354,-0.029296875,0.0322265625,1.0029296875,0.18310546875,-0.9765625,-0.244140625,0.0,0.0,0.0,-0.01851818524301052,0.012340700253844261,0.9698461294174194,-0.2427002638578415
5.475174903869629,-1.9522637923980475,1.7617515670347033,151.87411928992256,-0.03076171875,0.0341796875,1.00341796875,-0.30517578125,-1.0986328125,-0.244140625,0.0,0.0,0.0,-0.01904967986047268,0.012788312509655952,0.9698376059532166,-0.24266965687274933
5.495285749435425,-1.9396089459698946,1.8746736972003488,151.8783676675863,-0.033203125,0.03466796875,1.00634765625,-0.06103515625,-0.91552734375,-0.30517578125,0.0,0.0,0.0,-0.019977992400527,0.012442311272025108,0.9698370099067688,-0.24261581897735596
5.510303735733032,-1.9848969421484874,1.809529914217706,151.87909166763833,-0.03173828125,0.03466796875,1.00341796875,0.06103515625,0.06103515625,0.0,0.0,0.0,0.0,-0.01952253468334675,0.01296395342797041,0.9698399305343628,-0.24261356890201569
5.534633159637451,-1.9034228171905787,1.7464450063829988,151.88418698875915,-0.03076171875,0.03369140625,1.00537109375,0.0,-0.54931640625,0.0,0.0,0.0,0.0,-0.018815627321600914,0.012409086339175701,0.9698657393455505,-0.24259516596794128
5.555213451385498,-2.0016159645762093,1.7874235800821365,151.88432359254256,-0.03173828125,0.03466796875,1.0068359375,-0.18310546875,-1.0986328125,-0.244140625,0.0,0.0,0.0,-0.01937025971710682,0.013153244741261005,0.9698513150215149,-0.24257047474384308
5.569991111755371,-1.9201990424525994,1.7772855516414279,151.8913040458743,-0.03125,0.03369140625,1.00439453125,-0.18310546875,-0.732421875,-0.18310546875,0.0,0.0,0.0,-0.019111355766654015,0.012486840598285198,0.9698761105537415,-0.24252671003341675
5.5943543910980225,-1.9564814342105303,1.7243096439434569,151.89492404613443,-0.0302734375,0.03466796875,1.0029296875,-0.18310546875,-0.1220703125,-0.18310546875,0.0,0.0,0.0,-0.018739420920610428,0.012906868942081928,0.9698846936225891,-0.2424994856119156
5.615936040878296,-1.9727801865608847,1.7772022019892124,151.89833914071943,-0.03125,0.03466796875,1.00439453125,-0.3662109375,-0.30517578125,-0.1220703125,0.0,0.0,0.0,-0.019221141934394836,0.012933229096233845,0.9698851108551025,-0.24245846271514893
5.635056734085083,-1.8647287283253986,1.69400131983176,151.90571574502306,-0.02978515625,0.03271484375,1.00537109375,0.0,-0.91552734375,-0.30517578125,0.0,0.0,0.0,-0.018287602812051773,0.012196273542940617,0.9699203372001648,-0.24242821335792542
5.654892921447754,-1.9194112228205207,1.7415155307929537,151.90656268848014,-0.0302734375,0.03369140625,1.0068359375,0.1220703125,-0.8544921875,-0.1220703125,0.0,0.0,0.0,-0.018805306404829025,0.012558536604046822,0.9699118733406067,-0.242404043674469
5.676520109176636,-1.8849431000608745,1.6940033475441698,151.9098685000384,-0.02978515625,0.033203125,1.00390625,0.0,-1.03759765625,-0.1220703125,0.0,0.0,0.0,-0.018329937011003494,0.012368029914796352,0.9699269533157349,-0.24238982796669006
5.694739818572998,-1.891502856428437,1.7774389107326358,151.91168533035764,-0.03125,0.033203125,1.00341796875,-0.48828125,-0.42724609375,0.06103515625,0.0,0.0,0.0,-0.019049743190407753,0.012247023172676563,0.9699223041534424,-0.24235908687114716
5.714548349380493,-1.9310449559677565,1.715324103203482,151.9136797455953,-0.0302734375,0.0341796875,1.0068359375,-0.18310546875,-0.30517578125,-0.1220703125,0.0,0.0,0.0,-0.01860746741294861,0.012713677249848843,0.9699280858039856,-0.24234648048877716
5.734705686569214,-1.9279105394689553,1.8044185848410093,151.91698555715357,-0.03173828125,0.0341796875,1.0068359375,0.18310546875,-0.79345703125,-0.18310546875,0.0,0.0,0.0,-0.01935449428856373,0.01249889750033617,0.9699269533157349,-0.24230334162712097
5.757567405700684,-1.8402316145369133,1.7449870811603185,151.92380208594523,-0.03076171875,0.03173828125,1.00830078125,-0.1220703125,-0.9765625,-0.30517578125,0.0,0.0,0.0,-0.01866539940237999,0.01188379991799593,0.9699564576148987,-0.24227046966552734
5.775198936462402,-1.8830421730374953,1.8653299984157714,151.92318736891994,-0.033203125,0.033203125,1.00537109375,-0.3662109375,-0.8544921875,-0.1220703125,0.0,0.0,0.0,-0.01977447047829628,0.011991125531494617,0.9699386954307556,-0.24224784970283508
5.794811248779297,-1.9313190173082033,1.8440795723605692,151.92507250113087,-0.0322265625,0.03369140625,1.005859375,-0.06103515625,-0.18310546875,0.0,0.0,0.0,0.0,-0.019696474075317383,0.012445097789168358,0.9699398279190063,-0.24222737550735474
5.8147337436676025,-1.8940298129779303,1.7181799760501935,151.92979899203652,-0.0302734375,0.03369140625,1.00634765625,0.1220703125,-0.30517578125,-0.18310546875,0.0,0.0,0.0,-0.01855161041021347,0.01239693257957697,0.9699658751487732,-0.2422153800725937
5.834550380706787,-1.890206401146604,1.6917484246227135,151.9331048035948,-0.02978515625,0.033203125,1.005859375,-0.18310546875,-0.79345703125,-0.06103515625,0.0,0.0,0.0,-0.018319467082619667,0.012421077117323875,0.9699757099151611,-0.2421925812959671
5.855652093887329,-1.8385844717298825,1.8591691677844198,151.9392519738478,-0.03271484375,0.0322265625,1.0048828125,-0.06103515625,-0.54931640625,-0.06103515625,0.0,0.0,0.0,-0.019626712426543236,0.011630620807409286,0.9699779748916626,-0.24212060868740082
5.874727249145508,-1.90942655347102,1.7872225163884443,151.93867823795753,-0.0302734375,0.03271484375,1.00634765625,0.18310546875,-0.732421875,-0.18310546875,0.0,0.0,0.0,-0.01916753314435482,0.012382512912154198,0.9699764251708984,-0.24212585389614105
5.894770860671997,-1.9219031746505175,1.7696612462586954,151.93930661536118,-0.03173828125,0.0341796875,1.00390625,-0.3662109375,-0.48828125,0.1220703125,0.0,0.0,0.0,-0.01904519647359848,0.012525410391390324,0.9699781537055969,-0.24212154746055603
5.914865970611572,-1.9211693562015644,1.75896581034869,151.94339106848483,-0.03125,0.03466796875,1.00341796875,-0.3662109375,-0.3662109375,0.0,0.0,0.0,0.0,-0.01895267702639103,0.01254252064973116,0.9699878692626953,-0.24208897352218628
5.934543609619141,-1.993667331929607,1.718484453076788,151.94526254031743,-0.02978515625,0.03515625,1.00439453125,0.06103515625,-0.6103515625,-0.06103515625,0.0,0.0,0.0,-0.018763000145554543,0.013242198154330254,0.9699874520301819,-0.2420683354139328
5.954785108566284,-1.918018931446896,1.7427278893706308,151.9497568047913,-0.0302734375,0.03173828125,1.00634765625,0.18310546875,-0.9765625,-0.18310546875,0.0,0.0,0.0,-0.01880788989365101,0.012551270425319672,0.9700032472610474,-0.24203842878341675
5.975592613220215,-1.8102048222850677,1.7384501632377931,151.95698314493316,-0.03076171875,0.0322265625,1.00390625,-0.18310546875,-1.15966796875,-0.244140625,0.0,0.0,0.0,-0.018543219193816185,0.011648854240775108,0.9700302481651306,-0.24199561774730682
5.994927883148193,-1.8401554152389854,1.791685404680813,151.96076706973335,-0.03125,0.03271484375,1.00390625,-0.244140625,-0.8544921875,-0.244140625,0.0,0.0,0.0,-0.019056662917137146,0.011790378950536251,0.9700300097465515,-0.24194961786270142
6.0145978927612305,-1.8233665968156825,1.7418168061683748,151.96381333410318,-0.02978515625,0.0322265625,1.00537109375,0.06103515625,-0.244140625,-0.1220703125,0.0,0.0,0.0,-0.018598807975649834,0.011754258535802364,0.9700430631637573,-0.24193499982357025
6.034961462020874,-1.8327640833399736,1.7472918431183746,151.96580774934083,-0.0302734375,0.0322265625,1.0048828125,0.244140625,-0.732421875,-0.1220703125,0.0,0.0,0.0,-0.018664784729480743,0.011822550557553768,0.9700457453727722,-0.2419157475233078
6.054449081420898,-1.8264899142570823,1.7470437151524327,151.96875839106227,-0.03076171875,0.0322265625,1.0048828125,-0.30517578125,-1.28173828125,-0.18310546875,0.0,0.0,0.0,-0.018649136647582054,0.011770445853471756,0.9700525999069214,-0.2418917566537857
6.0745227336883545,-1.9187973595688659,1.8225819788347772,151.9692774854392,-0.03271484375,0.0341796875,1.001953125,-0.06103515625,-0.732421875,-0.244140625,0.0,0.0,0.0,-0.019483286887407303,0.012392164207994938,0.9700366854667664,-0.24185912311077118
6.094920873641968,-1.9328884667134254,1.8032284243781345,151.9716680516487,-0.03125,0.0341796875,1.0009765625,-0.06103515625,-0.06103515625,-0.06103515625,0.0,0.0,0.0,-0.019348958507180214,0.01255278941243887,0.9700420498847961,-0.24183985590934753
6.114539861679077,-1.9793661964680695,1.7124271425000446,151.97311605175273,-0.02978515625,0.0341796875,1.00439453125,-0.1220703125,-0.48828125,-0.06103515625,0.0,0.0,0.0,-0.01867832988500595,0.013138506561517715,0.9700484275817871,-0.24183599650859833
6.134440660476685,-1.904741684030626,1.6576508396255405,151.97914027860068,-0.02978515625,0.03369140625,1.00732421875,0.0,-0.91552734375,-0.244140625,0.0,0.0,0.0,-0.018056528642773628,0.012623571790754795,0.9700744152069092,-0.24180655181407928
6.150657892227173,-1.894450296498709,1.7326311622300596,151.98271929772577,-0.0302734375,0.03271484375,1.001953125,0.1220703125,-0.8544921875,-0.3662109375,0.0,0.0,0.0,-0.018669093027710915,0.012378507293760777,0.9700762629508972,-0.24176494777202606
6.1755030155181885,-1.8086789153358047,1.865505448900076,151.989317260464,-0.03271484375,0.03173828125,1.00341796875,0.1220703125,-0.8544921875,-0.18310546875,0.0,0.0,0.0,-0.019612183794379234,0.011372635141015053,0.9700860381126404,-0.2417008876800537
6.194504737854004,-1.8612730794921954,1.7824545107392464,151.99035544921784,-0.03125,0.03271484375,1.001953125,-0.42724609375,-0.54931640625,-0.06103515625,0.0,0.0,0.0,-0.019020024687051773,0.011993582360446453,0.9700911641120911,-0.24169732630252838
6.2117297649383545,-1.91126750289575,1.7178344111668733,151.99331975131764,-0.0302734375,0.03369140625,1.0048828125,-0.244140625,-0.244140625,-0.06103515625,0.0,0.0,0.0,-0.018578168004751205,0.012553872540593147,0.9700981378555298,-0.24167510867118835
6.235680103302002,-1.8910810922471888,1.727211086958537,151.9980872233583,-0.02978515625,0.033203125,1.00634765625,0.18310546875,-0.3662109375,-0.18310546875,0.0,0.0,0.0,-0.018614448606967926,0.012363938614726067,0.9701095819473267,-0.24163638055324554
6.25444483757019,-1.8063782088025682,1.72256196928958,152.00111982734978,-0.0302734375,0.03173828125,1.00439453125,0.06103515625,-0.91552734375,-0.1220703125,0.0,0.0,0.0,-0.018396170809864998,0.011657167226076126,0.9701252579689026,-0.24162517488002777
6.27450966835022,-1.8934125346316903,1.7861006578172698,151.9999723555692,-0.0322265625,0.03466796875,1.00244140625,-0.18310546875,-0.48828125,-0.06103515625,0.0,0.0,0.0,-0.019117645919322968,0.01225956343114376,0.9701077342033386,-0.24160988628864288
6.294696569442749,-1.9873259281720732,1.6874946041519707,151.999521563084,-0.02978515625,0.03466796875,1.00390625,0.0,-0.30517578125,0.0,0.0,0.0,0.0,-0.018481038510799408,0.013262874446809292,0.9701054692268372,-0.24161559343338013
6.31449818611145,-1.8586684295408933,1.7149828071883928,152.0067205824692,-0.0302734375,0.03271484375,1.00537109375,-0.18310546875,-0.06103515625,0.0,0.0,0.0,0.0,-0.01844167709350586,0.012116765603423119,0.9701323509216309,-0.2415705770254135
6.3300323486328125,-1.8449807304441879,1.6890114397562426,152.01039522424267,-0.02978515625,0.03173828125,1.0048828125,-0.30517578125,-0.8544921875,-0.1220703125,0.0,0.0,0.0,-0.018192587420344353,0.012056323699653149,0.9701439738273621,-0.24154610931873322
6.356049060821533,-1.9803422731891467,1.754496732197386,152.01165197904996,-0.0302734375,0.0341796875,1.00537109375,-0.1220703125,-0.732421875,-0.30517578125,0.0,0.0,0.0,-0.019032081589102745,0.01306420098990202,0.9701257348060608,-0.2415020912885666
6.37439227104187,-1.9065839141158252,1.655126551118692,152.0152856396884,-0.029296875,0.03369140625,1.00537109375,0.18310546875,-0.79345703125,-0.1220703125,0.0,0.0,0.0,-0.018035059794783592,0.012650193646550179,0.9701506495475769,-0.24150066077709198
6.3957507610321045,-1.9791126256951328,1.7278628364157445,152.01501243212158,-0.03076171875,0.03515625,1.005859375,-0.3662109375,-0.3662109375,0.06103515625,0.0,0.0,0.0,-0.018803654238581657,0.013110592029988766,0.9701353907585144,-0.24147863686084747
6.414722919464111,-1.9759003023511112,1.697065513448157,152.01834556443654,-0.02978515625,0.03466796875,1.00732421875,-0.244140625,-0.42724609375,0.0,0.0,0.0,0.0,-0.018535804003477097,0.01314897183328867,0.970145583152771,-0.24145638942718506
6.429713010787964,-1.8539985011393088,1.8343704584553961,152.0259680555503,-0.0322265625,0.03271484375,1.00732421875,0.06103515625,-0.79345703125,-0.18310546875,0.0,0.0,0.0,-0.01944044977426529,0.011828319169580936,0.9701618552207947,-0.24138806760311127
6.454535245895386,-1.880011916923537,1.7827351888254517,152.02779854624785,-0.03125,0.03271484375,1.00634765625,0.18310546875,-0.9765625,-0.244140625,0.0,0.0,0.0,-0.019057951867580414,0.01215785276144743,0.9701681137084961,-0.24137714505195618
6.472920179367065,-1.9130538108071198,1.661091760863346,152.0307491879693,-0.02978515625,0.03369140625,1.00634765625,-0.1220703125,-1.28173828125,-0.244140625,0.0,0.0,0.0,-0.01809747889637947,0.01269481424242258,0.9701820015907288,-0.24136775732040405
6.48968243598938,-1.971581274918136,1.7468226944997594,152.03065356532093,-0.03076171875,0.03515625,1.005859375,-0.42724609375,-0.30517578125,0.06103515625,0.0,0.0,0.0,-0.01894650049507618,0.013009382411837578,0.9701674580574036,-0.24134400486946106
6.510838747024536,-1.8281983153232317,1.8021057120333137,152.04001092448382,-0.0322265625,0.0322265625,1.0048828125,0.06103515625,-0.06103515625,-0.18310546875,0.0,0.0,0.0,-0.019111542031168938,0.01168033480644226,0.9701972603797913,-0.24127906560897827
6.531860589981079,-1.8727185555504327,1.751349509093891,152.04387681155407,-0.0302734375,0.03271484375,1.005859375,0.18310546875,-0.67138671875,-0.18310546875,0.0,0.0,0.0,-0.018775194883346558,0.012164986692368984,0.9702057242393494,-0.2412475347518921
6.554795026779175,-1.9402902573396035,1.6704834844155252,152.04550239657652,-0.029296875,0.03369140625,1.0048828125,-0.1220703125,-1.15966796875,-0.244140625,0.0,0.0,0.0,-0.018232692033052444,0.012907941825687885,0.9702091217041016,-0.24123677611351013
6.575557470321655,-1.9518800211440572,1.6680882224509663,152.04722360424736,-0.029296875,0.0341796875,1.0029296875,-0.244140625,-0.732421875,-0.06103515625,0.0,0.0,0.0,-0.018236614763736725,0.013011391274631023,0.9702117443084717,-0.2412208467721939
6.594499588012695,-2.003470147492456,1.77824252517717,152.0487672269998,-0.03125,0.03515625,1.00341796875,-0.18310546875,-0.06103515625,0.0,0.0,0.0,0.0,-0.01927754655480385,0.013216095045208931,0.9701989889144897,-0.2411796748638153
6.614645481109619,-1.8914095816575842,1.7913855166875672,152.0564170388702,-0.03173828125,0.0322265625,1.00634765625,0.0,-0.48828125,-0.18310546875,0.0,0.0,0.0,-0.01915212906897068,0.012240873649716377,0.9702263474464417,-0.24113142490386963
6.63848352432251,-1.8583392998002632,1.76129020910061,152.06425809603738,-0.0302734375,0.03271484375,1.005859375,-0.18310546875,-0.54931640625,-0.18310546875,0.0,0.0,0.0,-0.018826937302947044,0.01202562265098095,0.9702491760253906,-0.24107562005519867
6.656352519989014,-1.7989034205296355,1.8367296484834008,152.06981787002178,-0.0322265625,0.03173828125,1.0068359375,0.244140625,-0.732421875,-0.1220703125,0.0,0.0,0.0,-0.019340012222528458,0.011364288628101349,0.9702594876289368,-0.24102574586868286
6.674507141113281,-1.9431132599009344,1.809310067503796,152.06692186981368,-0.03173828125,0.03369140625,1.00439453125,-0.18310546875,-0.42724609375,-0.18310546875,0.0,0.0,0.0,-0.019411509856581688,0.012642621994018555,0.9702410697937012,-0.24103061854839325
6.695293664932251,-1.929728223561825,1.7047682592846387,152.07239968152803,-0.02978515625,0.03369140625,1.00244140625,-0.42724609375,-0.3662109375,-0.244140625,0.0,0.0,0.0,-0.018497705459594727,0.01275053434073925,0.9702638387680054,-0.2410048544406891
6.714591979980469,-1.8638555313286949,1.7403768101922656,152.07843756875434,-0.0302734375,0.03271484375,1.00537109375,-0.244140625,-0.67138671875,-0.06103515625,0.0,0.0,0.0,-0.018659990280866623,0.01211872510612011,0.9702804088592529,-0.24095821380615234
6.734725713729858,-1.878921434533862,1.7069655524849732,152.08043198399199,-0.0302734375,0.033203125,1.00537109375,0.3662109375,-0.8544921875,-0.18310546875,0.0,0.0,0.0,-0.01840858720242977,0.012317003682255745,0.9702861905097961,-0.24094469845294952
6.755202770233154,-1.9507758783760425,1.6134540728885631,152.0819756067444,-0.0283203125,0.0341796875,1.00537109375,0.1220703125,-1.0986328125,-0.3662109375,0.0,0.0,0.0,-0.01776779815554619,0.013122664764523506,0.9702895879745483,-0.24093635380268097
6.774554014205933,-1.833646244959963,1.7246101722669374,152.08820473926744,-0.0302734375,0.03173828125,1.00341796875,-0.244140625,-1.0986328125,-0.3662109375,0.0,0.0,0.0,-0.018461966887116432,0.011897720396518707,0.9703056812286377,-0.2408832162618637
6.7945332527160645,-1.8438104202185883,1.7362039914962109,152.0916334942308,-0.03076171875,0.03271484375,1.005859375,0.0,-0.3662109375,0.0,0.0,0.0,0.0,-0.01858113333582878,0.011959926225244999,0.9703106880187988,-0.24085043370723724
6.814854860305786,-1.8996576754106091,1.816914629370959,152.09280828676805,-0.03173828125,0.033203125,1.00439453125,-0.06103515625,-0.18310546875,0.0,0.0,0.0,0.0,-0.01938171498477459,0.012263034470379353,0.9702994227409363,-0.24081747233867645
6.835085868835449,-1.9373712052430694,1.7080957353491986,152.09577258886782,-0.02978515625,0.0341796875,1.0048828125,-0.30517578125,-0.3662109375,0.0,0.0,0.0,0.0,-0.018539337441325188,0.012812018394470215,0.9703118801116943,-0.24080514907836914
6.854081869125366,-1.9138441917601372,1.6704383411339796,152.09959749480302,-0.029296875,0.03369140625,1.00537109375,0.0,-0.79345703125,-0.18310546875,0.0,0.0,0.0,-0.018170643597841263,0.012692699208855629,0.9703259468078613,-0.24078305065631866
6.87467360496521,-1.9935576220160636,1.7986492094264641,152.09827243810403,-0.0322265625,0.03515625,1.005859375,0.1220703125,-0.67138671875,-0.18310546875,0.0,0.0,0.0,-0.019423777237534523,0.013097519055008888,0.9703022837638855,-0.24075847864151
6.896255016326904,-1.9085433246339727,1.735456832834035,152.10660526889146,-0.0302734375,0.03271484375,1.00244140625,-0.1220703125,-0.9765625,-0.3662109375,0.0,0.0,0.0,-0.018709227442741394,0.012512071058154106,0.9703353643417358,-0.24071329832077026
6.91454005241394,-1.866563701334605,1.6157121974611928,152.11090828806857,-0.02880859375,0.0322265625,1.00341796875,-0.42724609375,-0.42724609375,-0.1220703125,0.0,0.0,0.0,-0.017606716603040695,0.01240929588675499,0.9703596234321594,-0.24070391058921814
6.936872720718384,-1.820085758136549,1.69993526011662,152.11551183556915,-0.02978515625,0.03271484375,1.00732421875,0.0,-0.244140625,0.0,0.0,0.0,0.0,-0.01822172850370407,0.011839210987091064,0.9703667163848877,-0.24065811932086945
6.9545910358428955,-1.8793726539059061,1.6506669711992026,152.11705545832157,-0.029296875,0.033203125,1.005859375,0.244140625,-1.03759765625,-0.3662109375,0.0,0.0,0.0,-0.017928915098309517,0.012445162981748581,0.9703681468963623,-0.2406439632177353
6.974827289581299,-1.8978843875473446,1.6877058064077122,152.11865372258737,-0.02978515625,0.03369140625,1.005859375,-0.244140625,-0.79345703125,-0.1220703125,0.0,0.0,0.0,-0.018281223252415657,0.01252424344420433,0.9703661799430847,-0.24062128365039825
6.995511770248413,-1.8731770319984697,1.726371293855743,152.12335289273634,-0.0302734375,0.033203125,1.005859375,-0.54931640625,-0.42724609375,-0.06103515625,0.0,0.0,0.0,-0.018556222319602966,0.012234433554112911,0.970375120639801,-0.2405787706375122
7.014545440673828,-1.8729428845759852,1.7193595710641958,152.12715047791485,-0.03076171875,0.033203125,1.0078125,0.06103515625,-0.244140625,-0.06103515625,0.0,0.0,0.0,-0.0184959564357996,0.012247813865542412,0.9703837633132935,-0.24054786562919617
7.034357070922852,-1.9251125097867774,1.7218038182917084,152.1296230063944,-0.0302734375,0.0341796875,1.00830078125,0.18310546875,-0.91552734375,-0.244140625,0.0,0.0,0.0,-0.018625890836119652,0.012684855610132217,0.9703830480575562,-0.24051807820796967
7.054708480834961,-1.9141427990929138,1.7105774418954405,152.13213651600896,-0.0302734375,0.03369140625,1.00439453125,-0.3662109375,-1.15966796875,-0.1220703125,0.0,0.0,0.0,-0.01850753277540207,0.012615980580449104,0.9703905582427979,-0.24050042033195496
7.074740648269653,-1.9092363753913173,1.8291788743559516,152.1346636860019,-0.03173828125,0.03369140625,1.00537109375,-0.30517578125,-0.6103515625,-0.06103515625,0.0,0.0,0.0,-0.019501177594065666,0.012325435876846313,0.9703850150108337,-0.24045930802822113
7.0946946144104,-1.7929176134957656,1.7875487646430182,152.14229983749394,-0.02734375,0.0185546875,1.00048828125,-1.46484375,1.03759765625,-0.30517578125,0.0,0.0,0.0,-0.0189038272947073,0.011429215781390667,0.970417320728302,-0.24042126536369324
7.114440202713013,-1.40390973884639,1.8481548474175395,152.12626255332276,-0.0234375,-0.18017578125,0.9228515625,-7.8125,4.638671875,1.953125,0.0,0.0,0.0,-0.018601885065436363,0.008004861883819103,0.9704102277755737,-0.24061138927936554
7.134454965591431,-1.061741807421081,1.901628611872981,152.12437742111183,-0.02490234375,-0.20654296875,1.0546875,-6.40869140625,10.19287109375,4.2724609375,0.0,0.0,0.0,-0.018336234614253044,0.004994461312890053,0.9704195261001587,-0.2406758964061737
7.150171279907227,-0.8328527768238448,1.8781579474507015,152.13199991222558,-0.00146484375,-0.16064453125,1.00439453125,-2.86865234375,2.62451171875,2.01416015625,0.0,0.0,0.0,-0.017656506970524788,0.0031066290102899075,0.9704464673995972,-0.2406497448682785
7.174578666687012,-0.5656841644666839,1.908774056961872,152.12993719509623,0.01123046875,-0.1513671875,1.0400390625,2.01416015625,-3.47900390625,-4.08935546875,0.0,0.0,0.0,-0.01735467091202736,0.0007793799741193652,0.9704428315162659,-0.24070537090301514
7.194687604904175,-0.3461770923855479,2.009665982843304,152.10925538228943,-0.06640625,-0.13623046875,0.99658203125,-2.13623046875,0.48828125,1.46484375,0.0,0.0,0.0,-0.01774771884083748,-0.001294808811508119,0.9703850746154785,-0.24090711772441864
7.2143566608428955,-0.22581589903797988,2.1287033734719323,152.10965153326129,-0.06298828125,-0.00244140625,0.9970703125,1.52587890625,2.62451171875,1.5869140625,0.0,0.0,0.0,-0.01850268617272377,-0.002564328024163842,0.9703662395477295,-0.24091573059558868
7.234552383422852,-0.003326099104426227,2.178218189529705,152.10004828728825,-0.02978515625,-0.0595703125,0.95166015625,-0.3662109375,-1.8310546875,-0.67138671875,0.0,0.0,0.0,-0.018453797325491905,-0.0045540365390479565,0.9703314304351807,-0.24103058874607086
7.250123023986816,-0.09973667675656082,2.1375719472223706,152.08241273885127,-0.04736328125,0.02587890625,1.02294921875,3.23486328125,4.2724609375,2.74658203125,0.0,0.0,0.0,-0.018311835825443268,-0.003654974512755871,0.9703041911125183,-0.24116629362106323
7.274526596069336,-0.3902997675782865,2.145076831016334,152.04748315143584,-0.04638671875,0.11279296875,0.978515625,0.6103515625,1.15966796875,2.5634765625,0.0,0.0,0.0,-0.01898646354675293,-0.0012162069324404001,0.9702356457710266,-0.24141420423984528
7.289612531661987,-0.5915737830722057,2.119388916434739,152.02727945187092,-0.01220703125,0.103515625,0.99169921875,-1.03759765625,0.244140625,0.1220703125,0.0,0.0,0.0,-0.019193073734641075,0.0005387279088608921,0.9701974987983704,-0.24155379831790924
7.315374135971069,-0.7955249392360789,2.1090407529553468,152.0064200541457,-0.037109375,0.0908203125,1.04541015625,0.30517578125,1.15966796875,1.03759765625,0.0,0.0,0.0,-0.019535770639777184,0.002283770125359297,0.9701525568962097,-0.2416968196630478
7.337330102920532,-1.030901689049475,2.1642278276754032,151.98505522242192,-0.0576171875,0.11181640625,1.02099609375,4.08935546875,-0.06103515625,-0.3662109375,0.0,0.0,0.0,-0.020500142127275467,0.004156147129833698,0.9700930118560791,-0.24183069169521332
7.351337194442749,-1.3257624496228064,2.240039939254783,152.05208669893642,-0.0458984375,0.13671875,0.95361328125,-2.0751953125,5.126953125,-4.21142578125,0.0,0.0,0.0,-0.021760253235697746,0.006504812743514776,0.9702098965644836,-0.24119910597801208
7.374817132949829,-1.2728426775420765,2.3481541498532685,152.14516851694535,-0.0615234375,-0.0166015625,0.91162109375,-9.765625,1.52587890625,-6.591796875,0.0,0.0,0.0,-0.022559382021427155,0.005847109016031027,0.9703925848007202,-0.24040627479553223
7.390117168426514,-0.9537997389340208,2.3820609164405044,152.3400201535875,-0.0283203125,-0.11328125,1.0166015625,-3.60107421875,-4.57763671875,-12.939453125,0.0,0.0,0.0,-0.022171810269355774,0.003111801575869322,0.9708073139190674,-0.23881392180919647
7.414943218231201,-0.589521204504911,2.5455875980016573,152.549993829052,-0.0302734375,-0.23828125,1.0751953125,-6.2255859375,-1.89208984375,-15.7470703125,0.0,0.0,0.0,-0.022798363119363785,-0.00027375321951694787,0.9712202548980713,-0.2370893955230713
7.43459677696228,-0.38438802540822886,2.673374460957072,152.7837092420715,-0.130859375,-0.177734375,0.951171875,-1.77001953125,8.23974609375,-10.07080078125,0.0,0.0,0.0,-0.02346150204539299,-0.0022291059140115976,0.9716760516166687,-0.2351388782262802
7.454890012741089,-0.14264774042356262,2.7431713103117863,153.09236549066438,-0.142578125,-0.1708984375,0.99658203125,-8.36181640625,6.2255859375,-12.8173828125,0.0,0.0,0.0,-0.023569054901599884,-0.004358747508376837,0.9722853302955627,-0.2325657457113266
7.47463846206665,0.0890475641076231,2.7896624870013587,153.465129894807,-0.10791015625,-0.16748046875,1.017578125,0.79345703125,-6.04248046875,-18.6767578125,0.0,0.0,0.0,-0.023514000698924065,-0.006342523731291294,0.9730164408683777,-0.2294468879699707
7.494473934173584,0.4164322581057404,2.840953152243335,153.88798690632248,-0.0693359375,-0.2314453125,0.98779296875,-6.28662109375,-1.64794921875,-22.88818359375,0.0,0.0,0.0,-0.023327788338065147,-0.009139006026089191,0.9738235473632812,-0.22592027485370636
7.514578819274902,0.7498935659691344,2.803522221487784,154.39530603711435,-0.046875,-0.2900390625,0.9970703125,-4.82177734375,-3.47900390625,-27.099609375,0.0,0.0,0.0,-0.022404609248042107,-0.011799996718764305,0.9747921824455261,-0.22167347371578217
7.550621509552002,1.2421696853617243,2.649408180933144,155.70412054625055,-0.04345703125,-0.306640625,1.02197265625,0.0,1.40380859375,-35.400390625,0.0,0.0,0.0,-0.020318906754255295,-0.015458871610462666,0.9772360920906067,-0.21061305701732635
7.550838947296143,1.2421696853617243,2.649408180933144,155.70412054625055,-0.04345703125,-0.306640625,1.02197265625,0.0,1.40380859375,-35.400390625,0.0,0.0,0.0,-0.020318906754255295,-0.015458871610462666,0.9772360920906067,-0.21061305701732635
7.574963808059692,1.4524509327823185,2.623558903132407,156.48933275361355,-0.044921875,-0.2841796875,0.97265625,0.06103515625,2.74658203125,-40.22216796875,0.0,0.0,0.0,-0.01982935145497322,-0.0170692577958107,0.9786322116851807,-0.20394723117351532
7.5946128368377686,1.6325480801567454,2.699746461672726,157.35683508009686,-0.05224609375,-0.30712890625,1.044921875,4.0283203125,2.0751953125,-45.10498046875,0.0,0.0,0.0,-0.02030082605779171,-0.018589334562420845,0.9801032543182373,-0.19657017290592194
7.614609479904175,1.8618448943917723,2.7070921166816633,158.32508269683788,-0.076171875,-0.25537109375,0.96728515625,-2.685546875,4.2724609375,-49.560546875,0.0,0.0,0.0,-0.02014331705868244,-0.020393559709191322,0.9816887378692627,-0.18832312524318695
7.634615182876587,2.1277930373216165,2.774741938759466,159.3725878287077,-0.076171875,-0.30517578125,1.04150390625,-0.18310546875,3.90625,-52.001953125,0.0,0.0,0.0,-0.020493214949965477,-0.022596145048737526,0.9833038449287415,-0.17939656972885132
7.655048131942749,2.3210333896498523,2.727473401164981,160.44399862267258,-0.10498046875,-0.318359375,1.02392578125,2.197265625,-3.662109375,-52.8564453125,0.0,0.0,0.0,-0.020010214298963547,-0.02399463951587677,0.9849100708961487,-0.1702231913805008
7.674601078033447,2.603900338040641,2.7136520864926372,161.4424220151667,-0.02490234375,-0.26513671875,0.82861328125,-6.40869140625,21.8505859375,-43.9453125,0.0,0.0,0.0,-0.01970047876238823,-0.026234734803438187,0.9862973093986511,-0.16168257594108582
7.694726228713989,2.971598022479577,2.9760901525193297,162.28723445322726,-0.0751953125,-0.30029296875,0.94775390625,-4.21142578125,2.5634765625,-40.71044921875,0.0,0.0,0.0,-0.02165945991873741,-0.029608095064759254,0.9873084425926208,-0.1545199602842331
7.716041803359985,3.3426845479638967,2.823343430459161,162.97254831378964,-0.19921875,-0.32568359375,1.02783203125,-6.2255859375,-15.07568359375,-30.1513671875,0.0,0.0,0.0,-0.0200373325496912,-0.03248182311654091,0.988153338432312,-0.14864903688430786
7.735076427459717,3.5320348941163986,2.629870424812322,163.3875779285163,-0.12744140625,-0.3623046875,1.09912109375,3.662109375,-11.474609375,-16.66259765625,0.0,0.0,0.0,-0.018245533108711243,-0.033800192177295685,0.9886775612831116,-0.1450566053390503
7.749840974807739,3.682277071185288,2.5147159967268458,163.60434081201583,-0.03564453125,-0.27880859375,0.97802734375,-0.30517578125,-1.03759765625,-7.87353515625,0.0,0.0,0.0,-0.017127709463238716,-0.034919753670692444,0.9889318943023682,-0.14318124949932098
7.774631500244141,3.9125103683885474,2.5712938687166464,163.7067253476743,-0.03076171875,-0.26904296875,0.9833984375,-3.41796875,4.45556640625,-3.35693359375,0.0,0.0,0.0,-0.017361363396048546,-0.03696107864379883,0.9889742136001587,-0.1423470377922058
7.794571399688721,4.098563013832402,2.5236336624619438,163.75523335115975,-0.05810546875,-0.28466796875,1.08544921875,0.1220703125,-2.25830078125,-1.77001953125,0.0,0.0,0.0,-0.016735127195715904,-0.038501109927892685,0.988984227180481,-0.14194293320178986
7.816698789596558,4.084836894921615,2.467005417827014,163.86287713247916,0.0478515625,-0.146484375,1.029296875,12.75634765625,6.591796875,-4.57763671875,0.0,0.0,0.0,-0.01629926636815071,-0.03829796612262726,0.9891349077224731,-0.14099594950675964
7.83497166633606,4.0060728609603204,2.363280030657085,163.90424075809275,-0.0888671875,-0.0654296875,0.93359375,6.77490234375,-13.5498046875,-0.91552734375,0.0,0.0,0.0,-0.015514147467911243,-0.03748619928956032,0.9892351031303406,-0.14059904217720032
7.854174375534058,3.841559217064101,1.9537649399115693,163.6742682887384,0.0234375,-0.0634765625,0.939453125,-2.3193359375,-17.822265625,16.11328125,0.0,0.0,0.0,-0.01210837997496128,-0.03559262305498123,0.9890874028205872,-0.1424526870250702
7.874663829803467,3.9176048357357307,1.6701138004266982,163.33799075514202,0.17041015625,-0.11767578125,0.93798828125,-2.13623046875,-6.9580078125,23.86474609375,0.0,0.0,0.0,-0.009459758177399635,-0.03592701628804207,0.9886922240257263,-0.1452845185995102
7.891406059265137,3.904677422071012,1.490627741539576,162.52029416808642,0.11669921875,-0.1044921875,1.03466796875,5.0048828125,-6.7138671875,39.97802734375,0.0,0.0,0.0,-0.007673148065805435,-0.03564508259296417,0.9876638054847717,-0.15228530764579773
7.915103197097778,3.855004444445271,1.2457931007164162,161.7971547199005,0.08251953125,-0.05224609375,0.99853515625,-2.62451171875,-6.53076171875,52.1240234375,0.0,0.0,0.0,-0.0054082912392914295,-0.034928180277347565,0.9867350459098816,-0.15844480693340302
7.935617208480835,3.8639020464996823,0.8294609475706988,160.6105186346375,0.13134765625,-0.08056640625,1.00927734375,0.30517578125,-14.6484375,61.82861328125,0.0,0.0,0.0,-0.001453921664506197,-0.03444842994213104,0.9850917458534241,-0.16853927075862885
7.954580307006836,3.97798328111182,0.5685449465118614,159.18669740025663,0.1357421875,-0.1640625,0.958984375,-3.173828125,-8.23974609375,76.84326171875,0.0,0.0,0.0,0.0013923333026468754,-0.03503180667757988,0.9829147458076477,-0.18069162964820862
7.974540710449219,4.10887233061089,0.22622965909129455,157.5425069424945,0.12744140625,-0.2197265625,0.99560546875,4.94384765625,-15.68603515625,83.984375,0.0,0.0,0.0,0.005045546684414148,-0.03554687649011612,0.9802113771438599,-0.19467036426067352
7.99544620513916,4.019155661428657,0.09228882904423133,155.43981954612772,0.349609375,-0.125,1.08544921875,6.53076171875,3.662109375,83.31298828125,0.0,0.0,0.0,0.0066718729212880135,-0.03443539887666702,0.9765123128890991,-0.21258756518363953
8.009978771209717,3.950099460712066,0.05099729727794278,154.21997508112014,0.263671875,-0.09912109375,1.00634765625,2.25830078125,2.50244140625,80.322265625,0.0,0.0,0.0,0.007254737429320812,-0.03369501233100891,0.9742174744606018,-0.22296258807182312
8.03521728515625,3.9406405024852447,0.07939204450907208,152.7412527861907,0.19873046875,-0.13037109375,1.021484375,3.90625,2.8076171875,70.556640625,0.0,0.0,0.0,0.007428818382322788,-0.03357677161693573,0.9712598919868469,-0.23552411794662476
8.054613828659058,3.974186549706939,-0.011082741486736054,151.46295556226613,0.10498046875,-0.162109375,1.048828125,5.79833984375,0.244140625,59.326171875,0.0,0.0,0.0,0.008639750070869923,-0.03358088433742523,0.9685693383216858,-0.24631518125534058
8.07460331916809,3.9931339213513777,0.004907285812875863,150.41433027937242,0.0654296875,-0.1064453125,0.912109375,3.23486328125,6.2255859375,47.9736328125,0.0,0.0,0.0,0.008854039944708347,-0.03369579464197159,0.9662679433822632,-0.2551712691783905
8.09461498260498,4.08019279317283,0.23572807766882867,149.7525259299332,0.12841796875,-0.076171875,0.91455078125,-5.92041015625,18.798828125,28.01513671875,0.0,0.0,0.0,0.007303280755877495,-0.034902192652225494,0.9647316336631775,-0.2608092725276947
8.11484956741333,4.256116268077555,0.4692763644970712,149.36705737393436,-0.12353515625,-0.095703125,0.93603515625,-3.5400390625,1.708984375,16.9677734375,0.0,0.0,0.0,0.005861619021743536,-0.03689487278461456,0.9637681245803833,-0.2641127109527588
8.134495735168457,4.272701674929639,0.4279685009747448,149.11928543160298,-0.095703125,-0.0859375,1.0693359375,2.685546875,-12.6953125,10.31494140625,0.0,0.0,0.0,0.006327143404632807,-0.03692566603422165,0.9631944298744202,-0.26618245244026184
8.150164365768433,4.134694714541769,0.4574600305112434,148.93064926710557,-0.013671875,-0.06884765625,1.02685546875,2.50244140625,-5.92041015625,9.3994140625,0.0,0.0,0.0,0.005817626602947712,-0.03582453727722168,0.9627951979637146,-0.26778385043144226
8.17804765701294,4.092778697379048,0.5562037551770004,148.7918871439276,0.017578125,-0.07177734375,1.044921875,1.15966796875,10.80322265625,3.60107421875,0.0,0.0,0.0,0.004933185875415802,-0.035696908831596375,0.9624713659286499,-0.26898035407066345
8.195014953613281,3.931229355582613,0.8444949409858373,148.94756081549053,-0.0390625,-0.0029296875,0.98828125,-5.0048828125,17.9443359375,-12.3291015625,0.0,0.0,0.0,0.002084641484543681,-0.0350186713039875,0.9628473520278931,-0.2677581012248993
8.215904951095581,3.8641261620818232,1.1750471752321876,149.26077963044898,-0.12109375,-0.03466796875,1.02734375,3.47900390625,12.5732421875,-24.96337890625,0.0,0.0,0.0,-0.0009463214664719999,-0.03522323817014694,0.9635456204414368,-0.2652135193347931
8.234630346298218,3.7564337156645857,1.4322223670599739,149.93056164083876,-0.2314453125,-0.00634765625,0.99951171875,3.23486328125,0.79345703125,-38.14697265625,0.0,0.0,0.0,-0.0035624955780804157,-0.03489112854003906,0.9650682806968689,-0.25964033603668213
8.258082866668701,3.4889306374815057,1.7818157813301445,150.9348180148841,-0.00146484375,0.0078125,1.033203125,7.568359375,27.34375,-58.2275390625,0.0,0.0,0.0,-0.007406296674162149,-0.03336423262953758,0.9673207402229309,-0.2512422800064087
8.274715662002563,3.322389067732027,2.1680098314848864,152.32346377503936,-0.197265625,0.07958984375,0.833984375,-2.74658203125,11.8408203125,-72.08251953125,0.0,0.0,0.0,-0.011429029516875744,-0.03266581520438194,0.970261812210083,-0.2395712286233902
8.29584264755249,3.2765584984012417,2.4573389926041536,154.41001826458657,-0.267578125,0.0224609375,1.0380859375,3.35693359375,3.173828125,-89.2333984375,0.0,0.0,0.0,-0.014571625739336014,-0.03261997178196907,0.9744102954864502,-0.22191967070102692
8.315940141677856,3.2366812927057684,2.537036841491036,155.83398976312915,-0.2841796875,0.044921875,1.0732421875,2.5634765625,0.0,-96.49658203125,0.0,0.0,0.0,-0.01572859287261963,-0.03224143385887146,0.9770849347114563,-0.20980508625507355
8.334589004516602,3.1514170530887373,2.729965352994978,157.89208968459408,-0.25048828125,0.02294921875,1.08349609375,6.591796875,13.18359375,-107.2998046875,0.0,0.0,0.0,-0.01809963770210743,-0.031545598059892654,0.9806720018386841,-0.1922493577003479
8.350056409835815,3.1027698844989677,2.8841980680864476,160.14163980849446,-0.3544921875,0.02294921875,1.02978515625,7.568359375,0.244140625,-115.3564453125,0.0,0.0,0.0,-0.020113853737711906,-0.03099742904305458,0.9842312932014465,-0.17298415303230286
8.375089645385742,3.0129477742714226,3.052124245246735,162.52678284779793,-0.326171875,0.0146484375,0.9521484375,3.35693359375,15.625,-119.32373046875,0.0,0.0,0.0,-0.022321738302707672,-0.03001939132809639,0.9875985980033875,-0.15247799456119537
8.395184755325317,3.044386281247345,3.312719440857993,164.96181358879917,-0.4716796875,0.00732421875,0.99755859375,5.4931640625,-0.8544921875,-122.1923828125,0.0,0.0,0.0,-0.02517160400748253,-0.030105795711278915,0.9905369281768799,-0.1315169483423233
8.414533376693726,3.003052751154778,3.514502225403799,167.38404455529582,-0.3828125,-0.0263671875,1.01953125,14.22119140625,14.95361328125,-121.88720703125,0.0,0.0,0.0,-0.02759118378162384,-0.0294007770717144,0.9930487871170044,-0.11058198660612106
8.435420274734497,3.0783030796749244,3.735282327352349,169.87807447034763,-0.4228515625,0.0478515625,0.77978515625,-5.79833984375,0.79345703125,-123.47412109375,0.0,0.0,0.0,-0.030083725228905678,-0.029615076258778572,0.9951358437538147,-0.08900894969701767
8.460522890090942,3.1475135999780752,4.224935600742801,173.01041288409382,-0.43896484375,-0.044921875,1.21533203125,7.9345703125,18.06640625,-123.779296875,0.0,0.0,0.0,-0.03510574251413345,-0.029640207067131996,0.9970241189002991,-0.06190386041998863
8.474710702896118,3.081786903038454,4.294566818010142,174.85393558259364,-0.58837890625,-0.00341796875,1.13330078125,10.19287109375,-1.52587890625,-121.88720703125,0.0,0.0,0.0,-0.036210741847753525,-0.028525901958346367,0.9978841543197632,-0.04585159197449684
8.496468305587769,3.0601951809681625,4.270673962519791,177.26022488756746,-0.52197265625,0.04150390625,0.869140625,4.5166015625,2.50244140625,-120.17822265625,0.0,0.0,0.0,-0.03659818693995476,-0.027566345408558846,0.9986400008201599,-0.02487626112997532
8.519800662994385,3.151960693457988,4.341800991215366,179.66371381498158,-0.47802734375,0.10107421875,0.9521484375,2.8076171875,-2.8076171875,-119.81201171875,0.0,0.0,0.0,-0.03778515011072159,-0.027593843638896942,0.9988970160484314,-0.003973258193582296
8.534638404846191,3.1578056278402262,4.360992115235809,-177.93458312470116,-0.45703125,0.119140625,1.00927734375,5.18798828125,6.103515625,-121.27685546875,0.0,0.0,0.0,-0.03852326422929764,-0.026843663305044174,0.9987532496452332,0.016955073922872543
8.561107635498047,3.111001756552714,4.395109337026845,-174.2910323723362,-0.4775390625,0.10107421875,1.083984375,13.24462890625,-0.8544921875,-120.91064453125,0.0,0.0,0.0,-0.03963429853320122,-0.02518278919160366,0.997708797454834,0.048704925924539566
8.574509382247925,3.0064010379519654,4.497388858526848,-173.0887005123605,-0.380859375,0.08642578125,1.04345703125,15.80810546875,12.39013671875,-120.66650390625,0.0,0.0,0.0,-0.04073221608996391,-0.023800693452358246,0.9971318244934082,0.059181347489356995
8.594825744628906,3.081246250876965,4.718888051328953,-170.6334387510377,-0.42041015625,0.18310546875,0.82861328125,-1.953125,8.72802734375,-122.802734375,0.0,0.0,0.0,-0.043209437280893326,-0.023413129150867462,0.9955467581748962,0.08044584095478058
8.614867448806763,3.1145120468992773,4.857259146176949,-168.1875343488778,-0.515625,0.05712890625,1.10986328125,13.97705078125,-3.23486328125,-120.849609375,0.0,0.0,0.0,-0.04492828994989395,-0.022648561745882034,0.993549644947052,0.10162486135959625
8.634478569030762,2.9980282932465876,4.746454694819125,-165.79095757290372,-0.50390625,0.10595703125,1.05419921875,8.23974609375,-3.35693359375,-118.46923828125,0.0,0.0,0.0,-0.04430944845080376,-0.020816950127482414,0.9912658333778381,0.12245653569698334
8.655020952224731,2.95690500491441,4.75067532483937,-162.91505178135648,-0.404296875,0.10888671875,0.95166015625,5.18798828125,5.92041015625,-111.083984375,0.0,0.0,0.0,-0.04480139911174774,-0.01933845318853855,0.9878863096237183,0.1473081111907959
8.675756216049194,2.9626946574530537,4.79626897198332,-160.8384693679975,-0.43701171875,0.04296875,1.08203125,7.4462890625,-8.30078125,-98.876953125,0.0,0.0,0.0,-0.04554460197687149,-0.01850665919482708,0.9850391745567322,0.16516971588134766
8.699746131896973,2.9942400995781693,4.7279406133001585,-159.03666546494813,-0.380859375,0.068359375,0.88623046875,0.54931640625,-4.21142578125,-85.38818359375,0.0,0.0,0.0,-0.045294176787137985,-0.01816767267882824,0.9823369979858398,0.18064434826374054
8.714803695678711,3.0890245556811404,4.608540795758697,-157.88319677829472,-0.3759765625,0.0693359375,0.85302734375,-4.150390625,-17.27294921875,-72.75390625,0.0,0.0,0.0,-0.04461115226149559,-0.01872255839407444,0.9804902076721191,0.1905212253332138
8.7349693775177,3.192122846107898,4.390846018324289,-156.6884600886761,-0.2744140625,0.0224609375,1.0302734375,-0.54931640625,-14.58740234375,-52.734375,0.0,0.0,0.0,-0.043126512318849564,-0.01952213980257511,0.9784960746765137,0.2007596641778946
8.75462293624878,3.11422966126578,4.2468899631693375,-155.8854620687144,-0.10888671875,0.0517578125,1.01513671875,-3.173828125,-11.3525390625,-36.376953125,0.0,0.0,0.0,-0.04189417511224747,-0.01881868578493595,0.9771172404289246,0.20768405497074127
8.77549934387207,3.005233075603893,3.9923599755410506,-155.2578359858819,-0.0146484375,0.06103515625,1.03125,-0.91552734375,0.8544921875,-22.76611328125,0.0,0.0,0.0,-0.03962694853544235,-0.01813807152211666,0.9760477542877197,0.21314652264118195
8.795913457870483,2.8197977085062784,3.967080591649187,-154.94670720880947,-0.09814453125,0.07763671875,1.08935546875,2.01416015625,-6.53076171875,-14.34326171875,0.0,0.0,0.0,-0.0391116701066494,-0.016499847173690796,0.9754997491836548,0.2158667892217636
8.814789056777954,2.7065743029652114,3.9048895848221057,-154.77373949826807,-0.11181640625,0.0966796875,1.0849609375,-0.42724609375,-4.5166015625,-10.7421875,0.0,0.0,0.0,-0.03839270398020744,-0.015596097335219383,0.9752039313316345,0.21739406883716583
8.83466124534607,2.568138961650335,3.8758544506603814,-154.5319371412713,-0.021484375,0.06494140625,1.04052734375,1.77001953125,4.5166015625,-13.427734375,0.0,0.0,0.0,-0.0379134826362133,-0.014393465593457222,0.9747682213783264,0.21950510144233704
8.854658365249634,2.3670246818695446,3.8379225682178926,-154.26045078214162,-0.1064453125,0.05078125,0.92626953125,2.0751953125,-10.1318359375,-15.56396484375,0.0,0.0,0.0,-0.03723572567105293,-0.012667626142501831,0.9742783308029175,0.2218892127275467
8.874749422073364,2.238015428496109,3.8083192476945875,-153.98381446037777,-0.07763671875,0.06201171875,0.94873046875,-1.3427734375,3.5400390625,-14.95361328125,0.0,0.0,0.0,-0.03676224127411842,-0.011539709754288197,0.9737606048583984,0.224289208650589
8.895890951156616,2.0443829806208327,3.8255731593116864,-153.67484402308307,-0.05126953125,0.03564453125,1.0869140625,1.953125,3.72314453125,-14.34326171875,0.0,0.0,0.0,-0.03655622527003288,-0.009761783294379711,0.9731659889221191,0.2269720435142517
8.915148258209229,1.9214254882954398,3.8455275569718785,-153.40600777735136,-0.1669921875,0.0458984375,0.95849609375,-0.91552734375,-9.27734375,-12.87841796875,0.0,0.0,0.0,-0.03650233522057533,-0.008592230267822742,0.9726357460021973,0.2292894572019577
8.935083627700806,1.877346649043351,3.819735482005441,-153.16084496728294,-0.0810546875,0.0546875,0.9794921875,-7.99560546875,3.11279296875,-12.14599609375,0.0,0.0,0.0,-0.03621288016438484,-0.008192494511604309,0.972152590751648,0.2313891351222992
8.95473027229309,1.6752658974950034,3.7835730454448084,-152.9346974038638,-0.076171875,0.00390625,0.99365234375,3.5400390625,-6.16455078125,-12.6953125,0.0,0.0,0.0,-0.03551091253757477,-0.006481371354311705,0.9717159867286682,0.23337778449058533
8.969674825668335,1.6271915043001628,3.831315640856374,-152.68789534839456,-0.07470703125,0.0712890625,0.92041015625,-9.82666015625,-1.03759765625,-11.8408203125,0.0,0.0,0.0,-0.0358305461704731,-0.005898935720324516,0.9712015986442566,0.23547588288784027
8.990798711776733,1.4012269686064558,3.7373851718430666,-152.34111298385469,-0.0625,-0.01025390625,1.16845703125,9.1552734375,-0.42724609375,-12.75634765625,0.0,0.0,0.0,-0.03458266705274582,-0.0040728859603405,0.9705179929733276,0.2385004311800003
9.014715433120728,1.1726857440483616,3.7167921514954783,-152.14773666807326,-0.1064453125,0.02587890625,1.10595703125,6.591796875,-6.28662109375,-13.12255859375,0.0,0.0,0.0,-0.03393618389964104,-0.002123006619513035,0.9701253771781921,0.24020950496196747
9.034524917602539,0.9609921415734558,3.7225935434217576,-151.89806593315262,-0.05859375,0.072265625,1.01025390625,0.42724609375,0.79345703125,-13.97705078125,0.0,0.0,0.0,-0.03354208916425705,-0.00024554613628424704,0.9696003794670105,0.24238412082195282
9.054649829864502,0.7633635527860458,3.793667638151264,-151.64951534925586,-0.09228515625,-0.0009765625,0.9794921875,6.77490234375,-3.35693359375,-12.87841796875,0.0,0.0,0.0,-0.03372182697057724,0.001650434103794396,0.9690524935722351,0.24453502893447876
9.074640989303589,0.6529466613027668,3.777945823342364,-151.40860091685119,-0.15478515625,0.0283203125,0.8525390625,2.62451171875,-11.41357421875,-11.1083984375,0.0,0.0,0.0,-0.03334781154990196,0.002620696322992444,0.9685382843017578,0.24660611152648926
9.09490442276001,0.46811363151258234,3.847905316576689,-151.1726042206489,-0.01123046875,0.0234375,1.0810546875,5.2490234375,10.009765625,-12.20703125,0.0,0.0,0.0,-0.03353225439786911,0.004402732476592064,0.9680038094520569,0.24864627420902252
9.114715576171875,0.25906336560732435,3.8288853741723194,-150.965266998204,-0.1767578125,0.0263671875,1.037109375,4.638671875,-11.71875,-9.82666015625,0.0,0.0,0.0,-0.03290678933262825,0.00618690624833107,0.9675478935241699,0.25045982003211975
9.13512134552002,0.19254870229327908,3.6802771064189437,-150.79582366527433,-0.14111328125,0.05859375,0.9267578125,-4.82177734375,-12.87841796875,-9.70458984375,0.0,0.0,0.0,-0.03149712085723877,0.006470118649303913,0.9672131538391113,0.251922070980072
9.155824184417725,0.12681328085421031,3.570893761295305,-150.61982335074143,-0.05029296875,0.00048828125,0.9697265625,0.48828125,-1.8310546875,-7.080078125,0.0,0.0,0.0,-0.030418898910284042,0.0068311309441924095,0.9668501615524292,0.25343406200408936
9.174671173095703,0.27482047862041153,3.6585690576893506,-150.51075889007467,-0.10693359375,-0.01416015625,0.84619140625,-14.2822265625,1.15966796875,-6.89697265625,0.0,0.0,0.0,-0.03148041293025017,0.005806283093988895,0.9665936827659607,0.25430673360824585
9.194535255432129,0.7160232982052759,3.6929466804424944,-150.37396386137766,-0.04296875,-0.15185546875,1.0517578125,-9.94873046875,-1.15966796875,-7.32421875,0.0,0.0,0.0,-0.03274666145443916,0.0022001098841428757,0.9662959575653076,0.25533297657966614
9.215182065963745,0.8646175854151941,3.5048221398025983,-150.27018596712847,-0.0908203125,-0.23876953125,1.197265625,5.0048828125,-13.73291015625,-3.0517578125,0.0,0.0,0.0,-0.03149103373289108,0.0005557251279242337,0.9661130905151367,0.25619059801101685
9.234615087509155,0.9856383455849178,3.2199505308904106,-150.4074591090674,-0.05126953125,-0.19384765625,1.025390625,-0.06103515625,-17.15087890625,13.24462890625,0.0,0.0,0.0,-0.029358748346567154,-0.0011378246126696467,0.9664843082427979,0.2550389766693115
9.25536823272705,1.2055732116236788,2.9130423838382344,-150.89809891790608,0.0751953125,-0.20166015625,0.9541015625,-5.55419921875,-8.60595703125,31.005859375,0.0,0.0,0.0,-0.02724399045109749,-0.003793901763856411,0.9676255583763123,0.25088703632354736
9.27457880973816,1.4709794217315648,2.528086092027146,-151.72543973206973,0.0146484375,-0.2216796875,0.86767578125,-8.1787109375,-20.69091796875,48.095703125,0.0,0.0,0.0,-0.02452450804412365,-0.007056960370391607,0.9694665670394897,0.2438918799161911
9.296272993087769,1.7281690209896314,2.215520200464672,-152.91728042148029,0.13330078125,-0.23193359375,0.9853515625,-6.34765625,-9.765625,65.4296875,0.0,0.0,0.0,-0.022323695942759514,-0.01013236679136753,0.971977174282074,0.23379333317279816
9.314767599105835,1.9391713869761908,1.7338669995830087,-154.42135637860878,0.087890625,-0.23046875,1.00048828125,-5.126953125,-22.27783203125,80.38330078125,0.0,0.0,0.0,-0.018498243764042854,-0.013151092454791069,0.9749960899353027,0.22106003761291504
9.335961818695068,2.178004319231319,1.4479001058043859,-156.2788126630154,0.19482421875,-0.16552734375,0.92431640625,-11.65771484375,0.8544921875,101.13525390625,0.0,0.0,0.0,-0.016268908977508545,-0.016001876443624496,0.9784451127052307,0.20524261891841888
9.349839925765991,2.457590855829798,1.219191755055038,-158.3573758312337,0.236328125,-0.2509765625,1.048828125,-5.06591796875,-9.58251953125,106.5673828125,0.0,0.0,0.0,-0.014473634772002697,-0.019065318629145622,0.9819789528846741,0.18746879696846008
9.375171661376953,2.544766481197375,0.9847330253547738,-160.60583312486688,0.17919921875,-0.333984375,1.1796875,1.89208984375,-19.71435546875,115.41748046875,0.0,0.0,0.0,-0.012208573520183563,-0.020440280437469482,0.9854647517204285,0.1682034283876419
9.395299673080444,2.4886972448573284,0.6329678777328035,-163.05612250847392,0.27490234375,-0.24365234375,1.0322265625,2.44140625,-4.57763671875,125.91552734375,0.0,0.0,0.0,-0.008661397732794285,-0.020665396004915237,0.9888575673103333,0.14716941118240356
9.414830446243286,2.581383765668048,0.734045979629971,-165.74175289012294,0.263671875,-0.2099609375,0.90234375,-2.25830078125,9.21630859375,139.404296875,0.0,0.0,0.0,-0.009149998426437378,-0.02155553176999092,0.9920148253440857,0.1239287331700325
9.435420513153076,2.6581890294414294,0.20747634752860641,-169.28884771102898,0.11865234375,-0.24462890625,0.8935546875,1.708984375,-24.0478515625,146.8505859375,0.0,0.0,0.0,-0.00396711565554142,-0.02292475476861,0.9953691363334656,0.09326929599046707
9.464759349822998,2.875468232553525,0.17467563135987632,-172.38214476347937,0.310546875,-0.2158203125,0.84814453125,-3.5400390625,0.42724609375,158.26416015625,0.0,0.0,0.0,-0.003187233814969659,-0.02493388205766678,0.9974783658981323,0.06637019664049149
9.471086502075195,2.915421637546926,-0.08335306063979024,-174.75472025471,0.3046875,-0.35546875,1.14453125,6.8359375,-20.1416015625,157.958984375,0.0,0.0,0.0,-0.00043764052679762244,-0.02544572949409485,0.9986281991004944,0.04576141759753227
9.494198083877563,2.8566194717652285,-0.329910543309913,-178.8114428103474,0.4111328125,-0.2978515625,1.10986328125,10.80322265625,-11.65771484375,164.00146484375,0.0,0.0,0.0,0.002619427628815174,-0.024954529479146004,0.9996306896209717,0.010440445505082607
9.514923095703125,2.8584888091636964,-0.4287816403315201,178.62406340065726,0.2861328125,-0.2724609375,0.94140625,7.6904296875,-16.357421875,172.66845703125,0.0,0.0,0.0,0.004039864055812359,-0.024895545095205307,0.9996110200881958,-0.011909832246601582
9.53102421760559,2.8962155724876735,-0.6886089999501074,175.07603967402412,0.26611328125,-0.1806640625,0.73974609375,-5.55419921875,6.53076171875,185.24169921875,0.0,0.0,0.0,0.00708730285987258,-0.024989724159240723,0.998746395111084,-0.04279021918773651
9.554500341415405,3.1409894886602436,-0.8760958250371063,171.32801434811464,0.2568359375,-0.3056640625,0.91943359375,0.67138671875,-30.57861328125,184.38720703125,0.0,0.0,0.0,0.009692596271634102,-0.02674982324242592,0.9967500567436218,-0.07536555826663971
9.57439112663269,3.2112439606893486,-1.1944887750961002,167.51179641353175,0.47509765625,-0.416015625,1.216796875,12.5732421875,-12.02392578125,189.51416015625,0.0,0.0,0.0,0.013405172154307365,-0.02671870030462742,0.9936550259590149,-0.10842559486627579
9.594662189483643,3.0897609354510323,-1.2947828459817443,163.63641538035822,0.3955078125,-0.32763671875,1.0419921875,14.892578125,-17.63916015625,195.12939453125,0.0,0.0,0.0,0.015016349032521248,-0.02507646009325981,0.9894419312477112,-0.14195206761360168
9.614707231521606,3.096297213043323,-1.376808615436837,159.56778097480833,0.33203125,-0.18115234375,0.783203125,-0.6103515625,-1.40380859375,210.693359375,0.0,0.0,0.0,0.016611263155937195,-0.02445659413933754,0.9837731122970581,-0.17696450650691986
9.635149002075195,3.465804043838666,-1.6560137286588532,155.34030368992063,0.30517578125,-0.33740234375,0.85595703125,0.244140625,-23.5595703125,211.48681640625,0.0,0.0,0.0,0.02056797221302986,-0.02645520493388176,0.9764791131019592,-0.21299253404140472
9.649739980697632,3.6427217381544517,-1.700987109248802,151.0881694221292,0.52490234375,-0.49609375,1.1923828125,11.41357421875,-12.5732421875,211.181640625,0.0,0.0,0.0,0.02229953743517399,-0.02707018330693245,0.9678620100021362,-0.2490246444940567
9.67502760887146,3.546766544939058,-1.7250772931731428,146.85791908043848,0.5,-0.41943359375,1.08447265625,17.333984375,-0.42724609375,214.78271484375,0.0,0.0,0.0,0.023246482014656067,-0.025366490706801414,0.9580321311950684,-0.2845885157585144
9.694758176803589,3.671573310982232,-1.6152821089868936,142.4851226907696,0.291015625,-0.296875,0.69580078125,-2.50244140625,-27.83203125,217.529296875,0.0,0.0,0.0,0.023640280589461327,-0.025800323113799095,0.9464536309242249,-0.3209379017353058
9.71713399887085,3.893091286804555,-1.9752394815489125,138.0747056191523,0.4814453125,-0.45556640625,0.99560546875,6.16455078125,-4.08935546875,219.90966796875,0.0,0.0,0.0,0.028236504644155502,-0.0255513247102499,0.9333457946777344,-0.3569529354572296
9.731645107269287,3.7521127672409067,-1.863353512424699,132.65706787138987,0.52392578125,-0.4189453125,1.09423828125,16.6015625,-25.08544921875,214.78271484375,0.0,0.0,0.0,0.028026146814227104,-0.023454301059246063,0.915464460849762,-0.4007359445095062
9.754909753799438,3.768946195337226,-1.8992130727843237,129.35564129455085,0.53662109375,-0.294921875,0.89404296875,3.2958984375,10.68115234375,222.22900390625,0.0,0.0,0.0,0.029035471379756927,-0.022636055946350098,0.9035372138023376,-0.4269251823425293
9.769941568374634,3.97888870806367,-1.8675116035253558,124.93458278820665,0.46435546875,-0.294921875,0.81640625,-1.3427734375,-24.5361328125,219.17724609375,0.0,0.0,0.0,0.030487291514873505,-0.02325112372636795,0.8863564133644104,-0.46141329407691956
9.795322895050049,4.233814846663818,-2.3425329041663483,119.41017552333861,0.67236328125,-0.35986328125,1.0048828125,2.0751953125,-1.5869140625,215.75927734375,0.0,0.0,0.0,0.03626738488674164,-0.021583152934908867,0.86305171251297,-0.5033493638038635
9.815270900726318,4.271762097031939,-2.141803676300017,116.25801590062103,0.7705078125,-0.37255859375,1.1484375,15.56396484375,0.48828125,209.41162109375,0.0,0.0,0.0,0.03553616628050804,-0.02178375981748104,0.8488686084747314,-0.5269579291343689
9.834758281707764,4.080424592717787,-2.2247087258890432,112.1102674139149,0.52099609375,-0.341796875,1.00634765625,20.08056640625,-20.1416015625,207.94677734375,0.0,0.0,0.0,0.035969968885183334,-0.018694795668125153,0.8292791247367859,-0.55736243724823
9.85649847984314,4.164953733225396,-2.2402156031824996,107.85010084365953,0.587890625,-0.2392578125,0.84521484375,4.2724609375,-10.19287109375,211.48681640625,0.0,0.0,0.0,0.037182778120040894,-0.017861247062683105,0.807977557182312,-0.5877676010131836
9.874856948852539,4.279501982022033,-2.6510269357664367,103.64277261682338,0.52490234375,-0.25634765625,0.86181640625,1.8310546875,-29.60205078125,209.89990234375,0.0,0.0,0.0,0.04124389588832855,-0.015053728595376015,0.7858632206916809,-0.6168398857116699
9.895049333572388,4.520321218665166,-2.780504057098018,99.41741269057839,0.66455078125,-0.2490234375,0.953125,3.84521484375,-5.55419921875,210.8154296875,0.0,0.0,0.0,0.043987296521663666,-0.014394924975931644,0.7625676393508911,-0.6452507972717285
9.914536237716675,4.554200664495721,-2.878870307090426,95.2986720172773,0.70361328125,-0.2998046875,1.158203125,12.939453125,-20.6298828125,202.45361328125,0.0,0.0,0.0,0.04530804976820946,-0.012445126660168171,0.7388914823532104,-0.6721843481063843
9.934945583343506,4.504383826010587,-2.6657329733797086,91.27024693537129,0.71923828125,-0.21630859375,1.0361328125,15.0146484375,9.33837890625,202.1484375,0.0,0.0,0.0,0.044087089598178864,-0.011834642849862576,0.7147951126098633,-0.6978426575660706
9.954474449157715,4.42559076374532,-2.619700913468408,87.23453404162088,0.5146484375,-0.1787109375,0.85986328125,11.90185546875,-17.9443359375,201.904296875,0.0,0.0,0.0,0.04370303452014923,-0.010091436095535755,0.6897822022438049,-0.722626268863678
9.969671726226807,4.517742395366663,-2.600171695084049,83.20321978969595,0.671875,-0.16796875,0.97119140625,0.42724609375,-8.6669921875,201.47705078125,0.0,0.0,0.0,0.04451826587319374,-0.00920936930924654,0.6639292240142822,-0.7464122772216797
9.994590282440186,4.816074386142241,-2.6808609886176407,79.15366893268708,0.556640625,-0.1728515625,0.8134765625,-5.92041015625,-10.43701171875,201.904296875,0.0,0.0,0.0,0.04726637527346611,-0.008746902458369732,0.6371331810951233,-0.7692534327507019
10.014645338058472,5.048196230651009,-2.5709472366162682,75.24059891567342,0.69775390625,-0.27392578125,1.025390625,4.57763671875,-4.5166015625,190.61279296875,0.0,0.0,0.0,0.04855472221970558,-0.009124101139605045,0.6104626655578613,-0.7905027270317078
10.034645795822144,4.915772096135979,-2.3716882069687824,71.57478857680339,0.697265625,-0.2958984375,1.10986328125,20.08056640625,3.41796875,182.7392578125,0.0,0.0,0.0,0.04687168449163437,-0.008300397545099258,0.5848360657691956,-0.8097536563873291
10.054599523544312,4.910377954238961,-2.0739666643502734,67.90641008680544,0.54833984375,-0.1953125,0.80810546875,1.3427734375,1.40380859375,186.58447265625,0.0,0.0,0.0,0.045626673847436905,-0.008923555724322796,0.5585545897483826,-0.8281639218330383
10.074655055999756,5.09881561636362,-2.139566149016603,64.2145220856843,0.607421875,-0.28369140625,1.0068359375,-1.220703125,-20.263671875,181.21337890625,0.0,0.0,0.0,0.04758463799953461,-0.007838745601475239,0.5315907597541809,-0.8456273674964905
10.096196413040161,5.184512719219301,-2.0104275489357604,59.80693954257253,0.80078125,-0.3203125,1.14306640625,8.60595703125,6.77490234375,171.56982421875,0.0,0.0,0.0,0.04793772101402283,-0.007352280896157026,0.4986412525177002,-0.8654506206512451
10.114535808563232,5.110881999306094,-1.8217845542491782,57.27860841750891,0.60693359375,-0.2841796875,0.96484375,10.8642578125,-1.0986328125,167.41943359375,0.0,0.0,0.0,0.046738166362047195,-0.007428587879985571,0.47937896847724915,-0.8763311505317688
10.134820222854614,5.078435185653948,-1.8518320505119452,53.9903436152005,0.46435546875,-0.2431640625,0.7626953125,7.4462890625,-10.009765625,161.4990234375,0.0,0.0,0.0,0.046798862516880035,-0.005722506903111935,0.45404842495918274,-0.8897286653518677
10.155560493469238,5.150418976203536,-1.848473945317826,50.870487372162515,0.57470703125,-0.20751953125,0.85107421875,0.6103515625,-8.544921875,151.0009765625,0.0,0.0,0.0,0.047491200268268585,-0.004742746241390705,0.42965561151504517,-0.9017307162284851
10.174656391143799,5.162218554881556,-2.0296626422989856,48.080676115103294,0.681640625,-0.25830078125,1.099609375,10.6201171875,-17.7001953125,130.126953125,0.0,0.0,0.0,0.04832877591252327,-0.002184386597946286,0.4076310098171234,-0.9118642807006836
10.195237159729004,4.9703657981718905,-2.111454797940123,45.71777217173739,0.7509765625,-0.21875,1.12939453125,15.13671875,-1.77001953125,111.9384765625,0.0,0.0,0.0,0.047099508345127106,0.00012061125744367018,0.3887677490711212,-0.9201310873031616
10.214724779129028,4.917708027878854,-1.952732300686428,43.59191677370593,0.5908203125,-0.1220703125,0.859375,1.220703125,4.0283203125,103.21044921875,0.0,0.0,0.0,0.0461503341794014,-0.00012001769209746271,0.3715854287147522,-0.9272509813308716
10.234877347946167,5.022819516563473,-1.9320933900053534,41.7123238461993,0.56982421875,-0.12890625,0.90380859375,0.0,-1.953125,88.134765625,0.0,0.0,0.0,0.046938154846429825,0.00014193796960171312,0.35632094740867615,-0.9331839680671692
10.249738931655884,4.98935415095135,-2.0062148163217435,40.19045866137749,0.64306640625,-0.15380859375,1.052734375,7.26318359375,-8.23974609375,68.05419921875,0.0,0.0,0.0,0.04687979072332382,0.0014726638328284025,0.34391888976097107,-0.9378272294998169
10.274893283843994,4.845334916546576,-2.2789423488896485,38.997139236011634,0.60107421875,-0.1044921875,0.97265625,7.14111328125,-14.83154296875,53.40576171875,0.0,0.0,0.0,0.04647055268287659,0.004622441250830889,0.33421143889427185,-0.941340446472168
10.289796352386475,4.80566901982855,-2.5327180275014722,38.069036056117376,0.61181640625,-0.046875,0.90234375,3.662109375,-2.38037109375,39.9169921875,0.0,0.0,0.0,0.04682444781064987,0.0072035579942166805,0.3266472816467285,-0.9439582228660583
10.30967903137207,4.675973972773763,-2.5257787687481508,37.51095495941398,0.68701171875,-0.05615234375,1.07177734375,11.41357421875,3.84521484375,20.751953125,0.0,0.0,0.0,0.045699216425418854,0.007738709449768066,0.32203564047813416,-0.9455923438072205
10.334760189056396,4.448636675778589,-2.7291672880791444,37.30710454854036,0.5849609375,-0.00537109375,0.9931640625,9.82666015625,-9.6435546875,4.2724609375,0.0,0.0,0.0,0.04437382519245148,0.010135980322957039,0.3203890919685364,-0.9461919069290161
10.357863426208496,4.338373516912489,-3.0211969352415053,37.52629214919524,0.61669921875,0.0927734375,0.9267578125,-1.5869140625,0.732421875,-18.85986328125,0.0,0.0,0.0,0.044299837201833725,0.01277240365743637,0.3222593069076538,-0.9455280900001526
10.376131057739258,4.286998541522945,-3.213415107071766,38.18971525346775,0.603515625,0.0908203125,0.994140625,-1.0986328125,1.5869140625,-42.05322265625,0.0,0.0,0.0,0.04449651017785072,0.014246637932956219,0.32776665687561035,-0.9436028003692627
10.394903898239136,4.201555436327024,-3.317734507256075,38.9889942354264,0.5634765625,0.07275390625,0.99853515625,1.8310546875,6.04248046875,-57.4951171875,0.0,0.0,0.0,0.0441955029964447,0.015042782761156559,0.33435261249542236,-0.9412910342216492
10.414570093154907,3.960855301107544,-3.3291204326024864,40.325645180524965,0.3544921875,0.07666015625,1.05029296875,8.6669921875,12.63427734375,-68.90869140625,0.0,0.0,0.0,0.04243312403559685,0.015344755724072456,0.3452802300453186,-0.937414288520813
10.438206911087036,3.5581415846714797,-3.168067773624759,41.714164582180615,-0.0341796875,0.248046875,1.0400390625,8.97216796875,18.73779296875,-65.61279296875,0.0,0.0,0.0,0.03883743658661842,0.014770008623600006,0.356532484292984,-0.9333584904670715
10.455214500427246,3.1516923950896536,-2.8331959783369043,42.98442267345207,-0.12158203125,0.3056640625,1.0166015625,9.70458984375,15.68603515625,-60.60791015625,0.0,0.0,0.0,0.03463426232337952,0.01292179711163044,0.3667568266391754,-0.9295821785926819
10.4750394821167,2.803814212074802,-2.514032764366433,44.176396551551434,-0.10009765625,0.31591796875,0.958984375,7.14111328125,14.09912109375,-57.2509765625,0.0,0.0,0.0,0.030911080539226532,0.011123551987111568,0.3763276934623718,-0.9259039759635925
10.495734930038452,2.4541377683175334,-2.353368358954339,45.31821293548081,-0.13623046875,0.318359375,0.9384765625,6.40869140625,3.41796875,-56.2744140625,0.0,0.0,0.0,0.02766711637377739,0.010697908699512482,0.3854837715625763,-0.9222376942634583
10.51711130142212,2.1271932613351248,-2.2971941084558036,46.400907201954546,-0.10546875,0.3212890625,0.97900390625,4.7607421875,0.8544921875,-52.91748046875,0.0,0.0,0.0,0.024953214451670647,0.011110158637166023,0.3941441476345062,-0.9186426997184753
10.534837245941162,1.8874749658088337,-2.149929253534805,47.63381098865521,-0.0615234375,0.3291015625,0.970703125,-3.23486328125,3.35693359375,-46.08154296875,0.0,0.0,0.0,0.022640077397227287,0.010510701686143875,0.4039720594882965,-0.9144307971000671
10.550561666488647,1.777637946713918,-2.080188539797332,48.27398412899299,-0.076171875,0.318359375,1.03564453125,-2.62451171875,4.33349609375,-40.8935546875,0.0,0.0,0.0,0.021575484424829483,0.010220853611826897,0.4090600907802582,-0.912195086479187
10.574715852737427,1.5994772646908957,-2.002411468171104,49.048824694101334,-0.0556640625,0.3173828125,1.05322265625,-0.30517578125,4.2724609375,-36.31591796875,0.0,0.0,0.0,0.019948672503232956,0.010102865286171436,0.41519901156425476,-0.9094558358192444
10.595071077346802,1.3743033233936177,-1.8912731913175955,49.872846036328355,-0.04638671875,0.3125,0.98095703125,-0.8544921875,2.38037109375,-30.2734375,0.0,0.0,0.0,0.017830951139330864,0.009908493608236313,0.42170408368110657,-0.9065040349960327
10.61499810218811,1.2385710294427739,-1.836446409076257,50.302908897418206,-0.01708984375,0.30126953125,1.01123046875,0.91552734375,2.197265625,-27.28271484375,0.0,0.0,0.0,0.016592904925346375,0.009911985136568546,0.42508986592292786,-0.9049447774887085
10.635267734527588,1.0469249926772075,-1.7927989389589365,50.821395387503046,-0.01318359375,0.2880859375,1.005859375,-0.42724609375,1.28173828125,-23.98681640625,0.0,0.0,0.0,0.014963970519602299,0.0102105513215065,0.42916247248649597,-0.903045654296875
10.650619506835938,0.8645939465573634,-1.754027476857065,51.2756917597681,-0.01171875,0.27880859375,1.01904296875,-0.30517578125,1.03759765625,-21.3623046875,0.0,0.0,0.0,0.01342382375150919,0.010534675791859627,0.43272244930267334,-0.9013657569885254
10.675596237182617,0.7127233029799548,-1.7078061993614135,51.66154622145505,-0.02001953125,0.26123046875,0.9775390625,-3.0517578125,1.52587890625,-17.333984375,0.0,0.0,0.0,0.012090858072042465,0.010703898966312408,0.43574121594429016,-0.8999271392822266
10.695218086242676,0.5699039407132823,-1.6575974787726497,52.002953227118134,-0.017578125,0.22216796875,1.00634765625,-1.5869140625,1.953125,-15.68603515625,0.0,0.0,0.0,0.010810665786266327,0.01082046702504158,0.43840765953063965,-0.8986461162567139
10.720160961151123,0.36223337302036696,-1.5825883413075699,52.34088366649369,-0.0341796875,0.19482421875,1.015625,0.244140625,-0.18310546875,-11.5966796875,0.0,0.0,0.0,0.008927632123231888,0.011000405065715313,0.4410378038883209,-0.8973768353462219
10.734673500061035,0.229717484518791,-1.5482081572334874,52.495782111585825,-0.02685546875,0.1865234375,1.0087890625,0.06103515625,0.06103515625,-9.33837890625,0.0,0.0,0.0,0.007772769313305616,0.011230682022869587,0.4422387182712555,-0.8967934250831604
10.749958515167236,0.04561195658659887,-1.5066690811355856,52.67079887887823,-0.0107421875,0.18896484375,1.00634765625,-0.3662109375,-0.1220703125,-7.9345703125,0.0,0.0,0.0,0.006189383566379547,0.01160664763301611,0.44359126687049866,-0.8961327075958252
10.774980545043945,-0.13287755502225604,-1.4761668436844837,52.82027756886396,-0.001953125,0.16796875,1.00146484375,-1.953125,-1.40380859375,-7.32421875,0.0,0.0,0.0,0.0046911947429180145,0.012052934616804123,0.4447430372238159,-0.8955649137496948
10.79477834701538,-0.2125621303969817,-1.430875005524483,52.97106424007575,0.0341796875,0.03369140625,1.001953125,-6.65283203125,2.8076171875,-9.1552734375,0.0,0.0,0.0,0.003908439073711634,0.012003101408481598,0.4459155797958374,-0.8949859738349915
10.814825773239136,0.2408804682218248,-1.0707665150270775,53.048556151304126,-0.08154296875,-0.18701171875,0.92138671875,-13.97705078125,15.68603515625,-3.2958984375,0.0,0.0,0.0,0.006053577177226543,0.007421840447932482,0.4465741217136383,-0.8946953415870667
10.834733724594116,0.5965972271241914,-0.8393590656168108,53.17718568884839,-0.080078125,-0.17236328125,1.06787109375,-8.72802734375,8.72802734375,-6.77490234375,0.0,0.0,0.0,0.007933910004794598,0.004219831898808479,0.44759708642959595,-0.8941901922225952
10.855308771133423,0.9142281842039056,-0.5412283519783359,53.37189389151794,-0.0615234375,-0.2353515625,1.0341796875,-6.77490234375,4.82177734375,-12.51220703125,0.0,0.0,0.0,0.009249242022633553,0.0006369544425979257,0.44911420345306396,-0.8934263586997986
10.87458062171936,1.1277911240772793,-0.3439757704408204,53.64817504344496,-0.0830078125,-0.21533203125,1.00390625,5.43212890625,6.4697265625,-15.68603515625,0.0,0.0,0.0,0.01013711653649807,-0.0017624417087063193,0.451255202293396,-0.8923356533050537
10.89499831199646,1.0454050621434683,-0.3023713539785538,54.03663863739485,-0.03857421875,-0.001953125,0.85009765625,-14.5263671875,9.27734375,-17.15087890625,0.0,0.0,0.0,0.009325719438493252,-0.0017936233198270202,0.45427632331848145,-0.8908102512359619
10.910277128219604,1.411040563061589,-0.18694956133966859,54.45450278062706,-0.02880859375,-0.31787109375,1.00537109375,-2.38037109375,-5.31005859375,-24.0478515625,0.0,0.0,0.0,0.011695356108248234,-0.004183036740869284,0.45750346779823303,-0.8891211152076721
10.935137033462524,1.7668466747121212,-0.001253110427782575,54.90682522822198,-0.06884765625,-0.3291015625,1.1171875,-6.7138671875,1.5869140625,-26.91650390625,0.0,0.0,0.0,0.013686790131032467,-0.0070984321646392345,0.4609726071357727,-0.8872804045677185
10.95637583732605,1.9272761856497904,0.06807530817854027,55.4982717990209,-0.08740234375,-0.2939453125,1.02978515625,2.13623046875,3.84521484375,-31.005859375,0.0,0.0,0.0,0.014607157558202744,-0.008356088772416115,0.46552637219429016,-0.8848740458488464
10.974705457687378,2.116471785328909,0.009144675309744936,56.2197549263331,-0.0927734375,-0.2412109375,0.8828125,-6.40869140625,1.3427734375,-35.70556640625,0.0,0.0,0.0,0.016252601519227028,-0.008772141300141811,0.47108229994773865,-0.881895899772644
10.98979663848877,2.3842265132942217,0.04979336971502225,57.032021512998526,-0.0224609375,-0.27734375,0.966796875,-2.3193359375,8.97216796875,-41.015625,0.0,0.0,0.0,0.018073437735438347,-0.0103140315040946,0.4772929847240448,-0.8784977793693542
11.01662540435791,2.6100750424937442,0.19636627111121377,57.92509265263979,-0.05517578125,-0.333984375,1.0654296875,3.0517578125,1.28173828125,-48.095703125,0.0,0.0,0.0,0.01909726858139038,-0.012527531012892723,0.4840773344039917,-0.8747270703315735
11.03494906425476,2.81402790620491,0.2528466128021434,58.903715326730044,-0.10302734375,-0.265625,0.92822265625,-1.64794921875,-2.62451171875,-52.1240234375,0.0,0.0,0.0,0.02029670774936676,-0.013994025066494942,0.49149543046951294,-0.8705311417579651
11.060365438461304,3.1232670687547643,0.13843456758250933,60.301745766804935,-0.09423828125,-0.2646484375,0.939453125,-1.15966796875,-12.6953125,-60.791015625,0.0,0.0,0.0,0.02295861952006817,-0.014732465147972107,0.5020633339881897,-0.8644004464149475
11.074578523635864,3.317387875155697,0.07759207621936216,61.22117119135869,-0.0732421875,-0.28857421875,0.99462890625,-3.662109375,0.244140625,-61.34033203125,0.0,0.0,0.0,0.024567345157265663,-0.0153216402977705,0.5089700818061829,-0.8602970838546753
11.094544887542725,3.5900063381402934,0.30698047768826947,62.50536969872615,-0.0458984375,-0.28662109375,1.03564453125,-5.859375,21.91162109375,-63.5986328125,0.0,0.0,0.0,0.02538888342678547,-0.01854007877409458,0.5184851288795471,-0.8545085191726685
11.11491084098816,3.853147059877851,0.5384683685842689,63.90672644092683,-0.1396484375,-0.259765625,0.970703125,-5.55419921875,13.61083984375,-70.25146484375,0.0,0.0,0.0,0.026039021089673042,-0.021776549518108368,0.528789758682251,-0.8480738401412964
11.134618759155273,4.092420966221268,0.7397638084606237,65.77142272585368,-0.18994140625,-0.3251953125,1.11181640625,2.3193359375,5.67626953125,-75.74462890625,0.0,0.0,0.0,0.026480335742235184,-0.024804119020700455,0.5424139499664307,-0.8393275737762451
11.154747247695923,4.148521578742814,0.7591105860889492,66.92947446944017,-0.2353515625,-0.29052734375,1.08544921875,4.45556640625,-0.732421875,-78.369140625,0.0,0.0,0.0,0.026543453335762024,-0.02548087388277054,0.5508502721786499,-0.8337926268577576
11.17493462562561,4.244516472432759,0.6624345944727078,68.5604553413475,-0.1787109375,-0.22607421875,0.91357421875,-0.30517578125,-3.7841796875,-84.28955078125,0.0,0.0,0.0,0.027344949543476105,-0.025630900636315346,0.5626682639122009,-0.8258328437805176
11.19827938079834,4.49692355188964,0.9951538663158034,70.71527757164898,-0.12939453125,-0.25341796875,1.00439453125,-0.3662109375,15.31982421875,-87.21923828125,0.0,0.0,0.0,0.026973972097039223,-0.02977946028113365,0.577933132648468,-0.8150944113731384
11.214805126190186,4.589925968949473,1.0007610247375607,72.06965627273833,-0.30322265625,-0.23193359375,0.95849609375,0.54931640625,-4.69970703125,-92.1630859375,0.0,0.0,0.0,0.02724728174507618,-0.030612530186772346,0.5874998569488525,-0.8081859946250916
11.234803676605225,4.688080056190787,0.9661438117549379,73.9321805575091,-0.263671875,-0.1806640625,0.9208984375,1.40380859375,5.37109375,-92.59033203125,0.0,0.0,0.0,0.027611708268523216,-0.03132464364171028,0.6005421876907349,-0.7985020279884338
11.249881982803345,4.734825443983532,1.3187412285994449,75.69519581626196,-0.35107421875,-0.14892578125,1.0263671875,4.8828125,15.80810546875,-83.3740234375,0.0,0.0,0.0,0.025561220943927765,-0.03442244604229927,0.6126235723495483,-0.7892111539840698
11.27528166770935,4.674800887783814,1.414600479001341,77.33764457578576,-0.435546875,-0.0595703125,1.05859375,4.21142578125,-1.220703125,-81.35986328125,0.0,0.0,0.0,0.024133944883942604,-0.03511077165603638,0.6238573789596558,-0.7803760170936584
11.294678211212158,4.593515660245138,1.4731326388674113,79.04810835906454,-0.15380859375,0.01123046875,0.9970703125,1.15966796875,11.77978515625,-88.56201171875,0.0,0.0,0.0,0.022735316306352615,-0.03540981560945511,0.6354409456253052,-0.7710020542144775
11.310303926467896,4.547800350356597,1.8457930960685962,80.88388562304554,-0.1572265625,-0.09326171875,0.94482421875,2.5634765625,12.8173828125,-91.73583984375,0.0,0.0,0.0,0.019752582535147667,-0.037982698529958725,0.6475959420204163,-0.7607803344726562
11.334732294082642,4.640157741426686,1.955448794985389,82.71294198088326,-0.37451171875,-0.10205078125,0.96142578125,2.99072265625,-0.1220703125,-89.29443359375,0.0,0.0,0.0,0.019116416573524475,-0.03954194486141205,0.6595855355262756,-0.7503452301025391
11.356303930282593,4.408472602137976,1.960669407388806,84.54378101809435,-0.14404296875,0.03369140625,1.19482421875,17.7001953125,9.46044921875,-92.4072265625,0.0,0.0,0.0,0.016955988481640816,-0.03851825371384621,0.6715665459632874,-0.7397480607032776
11.374546527862549,4.089805430655976,2.104132835149869,86.44022402228342,-0.1923828125,0.0771484375,0.9716796875,9.521484375,6.65283203125,-95.0927734375,0.0,0.0,0.0,0.013432960025966167,-0.037803154438734055,0.6837740540504456,-0.7285901308059692
11.394601106643677,3.9103699578573945,2.187171713757946,88.35877634881581,-0.2646484375,0.12158203125,0.92578125,6.34765625,3.96728515625,-96.37451171875,0.0,0.0,0.0,0.011170418001711369,-0.03745202720165253,0.6959075927734375,-0.7170670628547668
11.41474199295044,3.839193837177161,2.297455149748145,90.27950750569343,-0.2734375,0.091796875,0.94384765625,0.9765625,4.45556640625,-94.6044921875,0.0,0.0,0.0,0.009420925751328468,-0.03787223622202873,0.7078155875205994,-0.7053183913230896
11.435723066329956,3.684261668026,2.4502183069510037,92.16688684885388,-0.259765625,0.07958984375,1.10498046875,9.765625,4.45556640625,-94.6044921875,0.0,0.0,0.0,0.006897948682308197,-0.03797299787402153,0.7193371653556824,-0.693588137626648
11.455123662948608,3.515061233698682,2.5160263258304303,94.02253996331963,-0.26708984375,0.0849609375,1.00146484375,5.67626953125,1.0986328125,-91.36962890625,0.0,0.0,0.0,0.004855312407016754,-0.037392113357782364,0.7305083870887756,-0.6818620562553406
11.475084781646729,3.332740859749416,2.563114930628968,95.71160476392876,-0.2685546875,0.10107421875,0.96142578125,8.4228515625,-3.84521484375,-80.6884765625,0.0,0.0,0.0,0.0029313648119568825,-0.036556780338287354,0.740523099899292,-0.6710295677185059
11.495360851287842,3.304362490965071,2.445329599052567,97.21747706080897,-0.27099609375,0.10498046875,0.8896484375,-2.99072265625,-14.70947265625,-72.1435546875,0.0,0.0,0.0,0.003058014437556267,-0.03572789579629898,0.7493225336074829,-0.66123366355896
11.514751195907593,3.2288852720984336,2.344168947915978,98.51215307836324,-0.14013671875,0.02880859375,0.9794921875,2.0751953125,-2.62451171875,-59.4482421875,0.0,0.0,0.0,0.0028930010739713907,-0.03468628227710724,0.7567988634109497,-0.6527204513549805
11.534696102142334,3.0964491847523554,2.431088868076502,99.49617843208698,-0.10498046875,0.0615234375,0.94873046875,-1.708984375,-3.96728515625,-43.212890625,0.0,0.0,0.0,0.0012693621683865786,-0.0343182310461998,0.7623903155326843,-0.646205723285675
11.555166482925415,3.0122314581822174,2.365260572072977,100.18798780255005,-0.1064453125,0.09423828125,1.017578125,-4.08935546875,-1.8310546875,-30.09033203125,0.0,0.0,0.0,0.0010312484810128808,-0.03339401260018349,0.7663215398788452,-0.641588032245636
11.575934886932373,2.800821948888102,2.2238549522427915,100.68366146080706,-0.0712890625,0.08251953125,1.140625,2.99072265625,-6.89697265625,-16.11328125,0.0,0.0,0.0,0.0006591748679056764,-0.03119252622127533,0.7691881656646729,-0.6382603049278259
11.595313549041748,2.5042271740392335,2.2502751911694587,100.92323034594524,-0.0205078125,0.09619140625,1.09912109375,8.36181640625,3.173828125,-10.6201171875,0.0,0.0,0.0,-0.0012316644424572587,-0.029346048831939697,0.7705923318862915,-0.6366512179374695
11.611422061920166,2.285460270348545,2.197162572966382,101.04747831713695,-0.109375,0.11669921875,0.96435546875,4.5166015625,-8.97216796875,-7.99560546875,0.0,0.0,0.0,-0.002119570504873991,-0.02757776714861393,0.7713496088981628,-0.6358104348182678
11.636914014816284,2.108235004076697,2.1389322220842613,101.18020255308863,-0.05126953125,0.11962890625,0.93701171875,-0.244140625,-1.3427734375,-7.6904296875,0.0,0.0,0.0,-0.002740869764238596,-0.026058809831738472,0.7721405625343323,-0.634911298751831
11.650264024734497,1.879915653944922,2.1615875326743703,101.33938694188495,-0.02392578125,0.0927734375,1.0380859375,1.46484375,2.50244140625,-8.056640625,0.0,0.0,0.0,-0.004192875232547522,-0.024639924988150597,0.7730672955513,-0.6338315010070801
11.671778440475464,1.6549328512226986,2.163272454965248,101.50324318007357,-0.0869140625,0.087890625,1.025390625,4.33349609375,-4.33349609375,-8.056640625,0.0,0.0,0.0,-0.005481738597154617,-0.02312357909977436,0.7740193605422974,-0.6327159404754639
11.694551706314087,1.389253326826306,2.124743784744029,101.68414757043053,-0.03173828125,0.09814453125,1.02685546875,2.685546875,-0.48828125,-9.1552734375,0.0,0.0,0.0,-0.006721637211740017,-0.02110576443374157,0.7750762104988098,-0.6314795017242432
11.714753866195679,1.249319292597141,2.068922996535042,101.8537275071436,-0.0703125,0.119140625,0.92041015625,-6.591796875,-4.5166015625,-7.38525390625,0.0,0.0,0.0,-0.007144436240196228,-0.019841253757476807,0.7760453224182129,-0.6303246021270752
11.735835075378418,1.1305499868934357,2.070638868120596,101.93366804118942,-0.03857421875,0.06396484375,1.041015625,0.06103515625,0.18310546875,-1.8310546875,0.0,0.0,0.0,-0.007822643965482712,-0.01904088445007801,0.7765046954154968,-0.6297752857208252
11.755131483078003,0.7199895036789377,1.9931309486363493,101.81504814587382,-0.044921875,0.0439453125,1.1328125,13.18359375,-6.40869140625,9.1552734375,0.0,0.0,0.0,-0.009537209756672382,-0.015842745080590248,0.7759276032447815,-0.6305508613586426
11.774658441543579,0.4054892011578957,1.81991927227553,101.5144651808799,-0.0537109375,0.14697265625,0.92431640625,0.48828125,-10.43701171875,18.12744140625,0.0,0.0,0.0,-0.010061182081699371,-0.012786622159183025,0.7743344902992249,-0.6325674057006836
11.794971466064453,0.19000933934548883,1.5244014261597023,100.88608777723871,0.00439453125,0.08349609375,0.96728515625,-1.03759765625,-11.04736328125,26.7333984375,0.0,0.0,0.0,-0.009200234897434711,-0.009749933145940304,0.7709085941314697,-0.6368046998977661
11.814951419830322,0.05348334272853528,1.345251860810909,100.45095008559555,0.05517578125,0.05908203125,0.95361328125,1.220703125,0.1220703125,30.1513671875,0.0,0.0,0.0,-0.008723844774067402,-0.007869096472859383,0.7685115337371826,-0.6397282481193542
11.834620952606201,-0.09965953697360067,1.3023628618565775,99.8159132475136,0.00634765625,0.09619140625,0.9345703125,-2.62451171875,-0.9765625,33.26416015625,0.0,0.0,0.0,-0.009254418313503265,-0.00665398221462965,0.7649675607681274,-0.6439679861068726
11.854461193084717,-0.17050856229572064,1.236284196731289,99.1505776902735,-0.00537109375,0.10400390625,1.01513671875,-8.1787109375,0.3662109375,32.8369140625,0.0,0.0,0.0,-0.009177572093904018,-0.005863053258508444,0.7612239718437195,-0.6483976244926453
11.874588966369629,-0.2439399660831674,1.0979984792479185,98.50643621002794,0.02490234375,0.06298828125,1.138671875,-2.25830078125,-3.96728515625,31.982421875,0.0,0.0,0.0,-0.008648517541587353,-0.004641434643417597,0.7575784921646118,-0.6526703834533691
11.894699335098267,-0.44096338943794366,0.8995290835015093,97.86733540938984,0.02001953125,0.04736328125,1.10400390625,1.8310546875,-1.28173828125,30.94482421875,0.0,0.0,0.0,-0.008446180261671543,-0.0022555438335984945,0.7539405822753906,-0.6568845510482788
11.914734601974487,-0.63823795564685,0.7750184168310263,97.25328091243819,0.03173828125,0.04541015625,1.00927734375,6.103515625,-2.13623046875,30.6396484375,0.0,0.0,0.0,-0.008756442926824093,-0.0002907245943788439,0.7504146099090576,-0.6609094738960266
11.93479037284851,-0.8823614563835351,0.6495364225553735,96.61784792338439,-0.01953125,0.05126953125,0.87646484375,0.3662109375,-8.36181640625,31.3720703125,0.0,0.0,0.0,-0.009353871457278728,0.0019798867870122194,0.7467367053031921,-0.6650511622428894
11.955344676971436,-0.9802318239700296,0.3325871770517646,95.83786081073644,0.07861328125,0.0439453125,1.0205078125,-2.0751953125,-4.45556640625,31.67724609375,0.0,0.0,0.0,-0.007886778563261032,0.004403711296617985,0.7421836853027344,-0.6701356768608093
11.974856615066528,-1.0474323476664926,-0.053228904841739075,95.09744098395038,0.0546875,0.0166015625,1.09619140625,4.8828125,-8.60595703125,40.10009765625,0.0,0.0,0.0,-0.005826735869050026,0.007057803217321634,0.7378177642822266,-0.674937903881073
11.994684219360352,-1.1342971994268338,-0.32473952981925797,94.4338061438136,0.09326171875,0.04052734375,1.04248046875,4.21142578125,-7.62939453125,46.2646484375,0.0,0.0,0.0,-0.004643473774194717,0.009189491160213947,0.7338723540306091,-0.6792094111442566
12.01460886001587,-1.1417796716625828,-0.6464895178553131,93.43700833634195,0.08642578125,0.0126953125,0.91748046875,-4.638671875,-7.87353515625,52.001953125,0.0,0.0,0.0,-0.002723976504057646,0.011121063493192196,0.7279079556465149,-0.685579240322113
12.035428762435913,-0.7665660043722826,-0.9477994177481646,92.32219169020163,0.10302734375,-0.1220703125,0.93017578125,-9.8876953125,-6.65283203125,56.21337890625,0.0,0.0,0.0,0.001332456711679697,0.010553556494414806,0.7212109565734863,-0.6926339268684387
12.054418087005615,-0.48510538125942865,-1.145434676642186,91.21408228982628,0.21826171875,-0.19287109375,1.05908203125,-3.11279296875,-0.30517578125,54.62646484375,0.0,0.0,0.0,0.004181018564850092,0.010017451830208302,0.7144869565963745,-0.6995645761489868
12.076371669769287,-0.2592283040036096,-1.32759774279713,90.11645722982688,0.10205078125,-0.19775390625,0.98779296875,-4.150390625,-0.79345703125,56.2744140625,0.0,0.0,0.0,0.006602406967431307,0.009784762747585773,0.7077572345733643,-0.7063571810722351
12.095641136169434,0.09201079899035082,-1.435012499335924,88.90620918060316,0.0087890625,-0.24072265625,0.97607421875,-4.21142578125,-11.3525390625,62.01171875,0.0,0.0,0.0,0.009342949837446213,0.008376591838896275,0.7002772688865662,-0.7137606739997864
12.116303205490112,0.356525175823661,-1.6618629319093228,87.59727172806191,0.015625,-0.28662109375,0.98779296875,0.91552734375,-12.8173828125,66.89453125,0.0,0.0,0.0,0.012282551266252995,0.0083139818161726,0.692082405090332,-0.7216660976409912
12.129867315292358,0.6905217730828284,-1.8222831580585892,86.17672215429349,0.09765625,-0.2041015625,0.91162109375,-11.77978515625,3.11279296875,74.64599609375,0.0,0.0,0.0,0.015262859873473644,0.00749692739918828,0.6830966472625732,-0.7301300168037415
12.155325174331665,1.1838621746863238,-1.9263664898297095,84.61174823052515,0.05029296875,-0.1982421875,0.94140625,-12.75634765625,-13.85498046875,78.67431640625,0.0,0.0,0.0,0.018953271210193634,0.0054786549881100655,0.6730857491493225,-0.7393012642860413
12.174956798553467,1.8871791332404075,-2.502878638564979,83.03878298542789,0.08447265625,-0.25439453125,1.09521484375,-22.03369140625,-28.86962890625,77.33154296875,0.0,0.0,0.0,0.026802359148859978,0.005436480510979891,0.6628947854042053,-0.7482130527496338
