time,imu.ypr.x,imu.ypr.y,imu.ypr.z,imu.linear_acceleration.x,imu.linear_acceleration.y,imu.linear_acceleration.z,imu.angular_velocity.x,imu.angular_velocity.y,imu.angular_velocity.z,imu.compass.x,imu.compass.y,imu.compass.z,imu.orientation.x,imu.orientation.y,imu.orientation.z,imu.orientation.w
0.2794535160064697,-1.9506601920469753,1.7213976354795042,51.57566342283131,-0.0302734375,0.0341796875,1.00390625,0.1220703125,-0.732421875,-0.30517578125,0.0,0.0,0.0,0.02185896784067154,0.006119165103882551,-0.43515798449516296,0.9000679850578308
0.29499292373657227,-2.084446095527777,1.730937915646131,51.574495460483234,-0.0302734375,0.0361328125,1.00341796875,-0.18310546875,-0.8544921875,-0.18310546875,0.0,0.0,0.0,0.022945912554860115,0.005686299409717321,-0.4351564645767212,0.9000445604324341
0.31954312324523926,-2.0164054585634026,1.7727157281998662,51.577801272041526,-0.03076171875,0.03564453125,1.0068359375,-0.18310546875,-0.42724609375,0.0,0.0,0.0,0.0,0.02257014624774456,0.006272254977375269,-0.4351823627948761,0.9000375866889954
0.3404242992401123,-2.0059721311627965,1.8083124329981513,51.58346008376888,-0.03173828125,0.03515625,1.0048828125,0.0,-0.244140625,-0.244140625,0.0,0.0,0.0,0.022623559460043907,0.006590422708541155,-0.43522900342941284,0.9000113606452942
0.35965991020202637,-1.907915160673743,1.7567906085414524,51.59150263151657,-0.03076171875,0.033203125,1.0029296875,0.244140625,-0.67138671875,-0.244140625,0.0,0.0,0.0,0.021658388897776604,0.006556561216711998,-0.4352826476097107,0.9000095129013062
0.37970685958862305,-1.945933914584738,1.7451602904888017,51.59344923543002,-0.03076171875,0.0341796875,1.005859375,-0.30517578125,-1.0986328125,-0.244140625,0.0,0.0,0.0,0.021912965923547745,0.0063204034231603146,-0.43529924750328064,0.8999969959259033
0.39589929580688477,-1.9143782271758676,1.7363074048291132,51.597554179121204,-0.03076171875,0.03369140625,1.00634765625,-0.244140625,-0.732421875,-0.18310546875,0.0,0.0,0.0,0.021631762385368347,0.0063699521124362946,-0.43532904982566833,0.8999890685081482
0.4198117256164551,-1.955920504924943,1.7275961388729966,51.59914219810323,-0.02978515625,0.0341796875,1.0048828125,0.30517578125,-0.1220703125,-0.06103515625,0.0,0.0,0.0,0.021925058215856552,0.006143394857645035,-0.4353431761264801,0.8999766111373901
0.44529008865356445,-1.953494080222296,1.839986154613616,51.60236263229689,-0.0322265625,0.0341796875,1.00439453125,0.06103515625,-0.3662109375,0.0,0.0,0.0,0.0,0.02233271300792694,0.0070348880253732204,-0.43537673354148865,0.8999438881874084
0.4607391357421875,-1.9678191213459284,1.7339872749454244,51.605924575949054,-0.03125,0.03466796875,1.00537109375,-0.244140625,-0.9765625,-0.18310546875,0.0,0.0,0.0,0.022043121978640556,0.006147094536572695,-0.43539753556251526,0.8999475240707397
0.4880855083465576,-1.9379754635412039,1.7111218293166317,51.610265161166595,-0.02978515625,0.033203125,1.0048828125,0.06103515625,-0.732421875,-0.244140625,0.0,0.0,0.0,0.021722188219428062,0.006080043967813253,-0.43542829155921936,0.8999408483505249
0.5020561218261719,-2.016491689701674,1.7677874265485847,51.60970167056007,-0.03125,0.03564453125,1.00634765625,0.0,-0.8544921875,-0.18310546875,0.0,0.0,0.0,0.02255386672914028,0.00622692983597517,-0.4354325234889984,0.8999172449111938
0.5215795040130615,-2.0885926606842093,1.6850528115236911,51.60997829322145,-0.02978515625,0.03662109375,1.00634765625,-0.30517578125,-0.6103515625,-0.1220703125,0.0,0.0,0.0,0.02280607633292675,0.005302996374666691,-0.4354313910007477,0.8999174237251282
0.5395214557647705,-1.9509573052758709,1.7784824355717668,51.61846821835978,-0.03125,0.0341796875,1.0029296875,-0.1220703125,-0.30517578125,-0.18310546875,0.0,0.0,0.0,0.022080300375819206,0.0065582748502492905,-0.43549853563308716,0.899894654750824
0.5596208572387695,-2.028481659902808,1.6662901751519603,51.618451142886855,-0.029296875,0.03515625,1.00439453125,0.06103515625,-0.42724609375,-0.06103515625,0.0,0.0,0.0,0.022263186052441597,0.005382375326007605,-0.435493528842926,0.8999004364013672
0.5802574157714844,-1.939475970724491,1.7532033718450206,51.62560918113703,-0.03076171875,0.033203125,1.0048828125,-0.18310546875,-1.03759765625,-0.30517578125,0.0,0.0,0.0,0.021894564852118492,0.006401977501809597,-0.43555203080177307,0.8998745083808899
0.5997469425201416,-1.9451016987230543,1.7995582649163104,51.627808502049774,-0.03173828125,0.0341796875,1.00341796875,-0.42724609375,-1.03759765625,-0.30517578125,0.0,0.0,0.0,0.022114871069788933,0.006744279991835356,-0.4355730712413788,0.899856448173523
0.6195335388183594,-1.954268452919446,1.8940210617980562,51.62842663416966,-0.033203125,0.0341796875,1.00341796875,0.0,-0.30517578125,0.06103515625,0.0,0.0,0.0,0.022545555606484413,0.007451293058693409,-0.4355853796005249,0.899834156036377
0.6401557922363281,-1.8959770572216186,1.7573566604689173,51.63350829491215,-0.03076171875,0.033203125,1.0048828125,0.06103515625,-0.18310546875,-0.06103515625,0.0,0.0,0.0,0.02156919613480568,0.0065984479151666164,-0.43561190366744995,0.8998519778251648
0.6598308086395264,-1.868995889009364,1.7776700699473584,51.6371419555506,-0.03125,0.03271484375,1.00390625,-0.18310546875,-0.9765625,-0.1220703125,0.0,0.0,0.0,0.02143467776477337,0.00685989111661911,-0.43564027547836304,0.8998395204544067
0.6814289093017578,-2.001614043585505,1.7507661682500897,51.63692680459174,-0.03125,0.03515625,1.0029296875,-0.30517578125,-1.15966796875,-0.42724609375,0.0,0.0,0.0,0.022373877465724945,0.006144441198557615,-0.43564411997795105,0.8998199701309204
0.6998841762542725,-1.9477658993861824,1.7962957823705716,51.641065899228764,-0.03125,0.0341796875,1.005859375,0.0,-0.732421875,-0.244140625,0.0,0.0,0.0,0.02212418243288994,0.006705965846776962,-0.43567708134651184,0.8998061418533325
0.7204282283782959,-2.002344660383285,1.7580683875247738,51.642459257819446,-0.03076171875,0.03515625,1.00390625,0.0,-0.30517578125,0.06103515625,0.0,0.0,0.0,0.022407643496990204,0.006197937298566103,-0.43568816781044006,0.8997974395751953
0.7407398223876953,-1.8986517166119132,1.7146815318129718,51.65148876790221,-0.02978515625,0.03271484375,1.0048828125,-0.18310546875,-0.48828125,-0.18310546875,0.0,0.0,0.0,0.021429121494293213,0.006249721627682447,-0.43575015664100647,0.89979088306427
0.7596144676208496,-1.948198762624832,1.6668125779017606,51.65506778702729,-0.029296875,0.0341796875,1.00390625,0.18310546875,-0.67138671875,-0.18310546875,0.0,0.0,0.0,0.021636508405208588,0.005684672389179468,-0.4357772171497345,0.8997765779495239
0.7800097465515137,-1.927457612549619,1.7786929974972736,51.65831895707222,-0.03125,0.03369140625,1.00537109375,0.1220703125,-0.8544921875,-0.244140625,0.0,0.0,0.0,0.021898863837122917,0.006641623564064503,-0.4358100891113281,0.8997477293014526
0.7948424816131592,-1.9730807148843654,1.7220610176026416,51.65872193823325,-0.03076171875,0.0341796875,1.005859375,-0.3662109375,-0.732421875,-0.18310546875,0.0,0.0,0.0,0.022041959688067436,0.006023259833455086,-0.43581151962280273,0.8997478485107422
0.815009593963623,-1.9962867094763068,1.7754823817005445,51.661167145956114,-0.03125,0.03515625,1.0048828125,-0.1220703125,-0.3662109375,-0.06103515625,0.0,0.0,0.0,0.02242724969983101,0.0063540819101035595,-0.43583613634109497,0.8997241854667664
0.8394975662231445,-1.9815896364863204,1.8690050670760614,51.6651559764314,-0.033203125,0.03466796875,1.00341796875,0.18310546875,-0.244140625,-0.06103515625,0.0,0.0,0.0,0.022667404264211655,0.007143682334572077,-0.43587368726730347,0.8996940851211548
0.8598353862762451,-1.9489850881530297,1.8097230805051703,51.66876573140775,-0.03173828125,0.0341796875,1.00341796875,-0.06103515625,-0.91552734375,-0.1220703125,0.0,0.0,0.0,0.022186392918229103,0.006801430601626635,-0.4358956515789032,0.8996981382369995
0.8823802471160889,-1.9222173633523383,1.7237721934331416,51.674619203526454,-0.0302734375,0.03369140625,1.00244140625,-0.244140625,-1.03759765625,-0.244140625,0.0,0.0,0.0,0.021649952977895737,0.006227137055248022,-0.4359337389469147,0.8996968269348145
0.9012234210968018,-1.9451753367000435,1.805376732315515,51.67557884510484,-0.03125,0.03369140625,1.00146484375,-0.1220703125,-0.42724609375,-0.18310546875,0.0,0.0,0.0,0.022140370681881905,0.006780471187084913,-0.43594861030578613,0.8996737003326416
0.9203898906707764,-2.006671585222488,1.7802746131769547,51.67774401507174,-0.03125,0.03515625,1.00439453125,0.18310546875,-0.30517578125,-0.06103515625,0.0,0.0,0.0,0.022527912631630898,0.0063489628955721855,-0.43596720695495605,0.899658203125
0.9445819854736328,-2.030484826320326,1.7136668218344018,51.680438524699305,-0.0302734375,0.03564453125,1.00390625,-0.3662109375,-0.6103515625,-0.1220703125,0.0,0.0,0.0,0.022461876273155212,0.005734759382903576,-0.4359842836856842,0.8996556997299194
0.9596991539001465,-1.9160465008806433,1.5870828192248498,51.6887064686896,-0.0283203125,0.0341796875,1.005859375,-0.1220703125,-0.67138671875,-0.3662109375,0.0,0.0,0.0,0.021082665771245956,0.005174560472369194,-0.43603354692459106,0.8996685743331909
0.9804058074951172,-1.9321687355296353,1.6900065129409487,51.690540374481756,-0.02978515625,0.0341796875,1.00537109375,0.06103515625,-0.79345703125,-0.1220703125,0.0,0.0,0.0,0.021600591018795967,0.0059211072511971,-0.4360567331314087,0.8996403813362122
1.0024385452270508,-2.0098200889864524,1.695362768632414,51.69088529903484,-0.0302734375,0.03515625,1.0029296875,-0.18310546875,-1.15966796875,-0.244140625,0.0,0.0,0.0,0.022230591624975204,0.005667613819241524,-0.4360637664794922,0.8996232748031616
1.0195701122283936,-2.124317965137961,1.782457178781891,51.68913677060732,-0.03125,0.037109375,1.0029296875,-0.3662109375,-0.6103515625,-0.06103515625,0.0,0.0,0.0,0.023460425436496735,0.005916175432503223,-0.43606317043304443,0.8995907306671143
1.0346906185150146,-2.062604217779134,1.8366502475342994,51.69486046913179,-0.0322265625,0.0361328125,1.00341796875,0.1220703125,-0.244140625,-0.06103515625,0.0,0.0,0.0,0.023182254284620285,0.006575417704880238,-0.4361092448234558,0.8995711207389832
1.0604972839355469,-1.9037912205189362,1.723979553707475,51.70461739436115,-0.02978515625,0.033203125,1.0048828125,0.18310546875,-0.6103515625,-0.06103515625,0.0,0.0,0.0,0.021507717669010162,0.0062932344153523445,-0.43616822361946106,0.8995862007141113
1.0795202255249023,-1.968517081301739,1.7069512517763983,51.70747924362338,-0.0302734375,0.03515625,1.00390625,-0.1220703125,-0.8544921875,0.0,0.0,0.0,0.0,0.021951239556074142,0.005912608467042446,-0.4361928701400757,0.8995660543441772
1.0994441509246826,-2.009895007623911,1.7117181902085383,51.706789394517216,-0.0302734375,0.0361328125,1.00439453125,-0.18310546875,-0.8544921875,-0.18310546875,0.0,0.0,0.0,0.02229415252804756,0.005792667623609304,-0.4361899495124817,0.8995598554611206
1.120161533355713,-1.9556472973581425,1.850546480844102,51.711519300517445,-0.0322265625,0.0341796875,1.0029296875,0.06103515625,-0.244140625,-0.06103515625,0.0,0.0,0.0,0.02239646390080452,0.0070883347652852535,-0.4362346827983856,0.8995262980461121
1.1467623710632324,-1.9412942951475953,1.724536641011654,51.714941225291625,-0.03076171875,0.03369140625,1.00537109375,0.06103515625,-0.30517578125,0.0,0.0,0.0,0.0,0.021804802119731903,0.006152896210551262,-0.43625137209892273,0.8995396494865417
1.1702454090118408,-1.9790406952654362,1.815393631620162,51.71876613122683,-0.03173828125,0.03466796875,1.0048828125,-0.244140625,-1.03759765625,-0.30517578125,0.0,0.0,0.0,0.022446848452091217,0.006721841637045145,-0.4362903833389282,0.8995009064674377
1.1757519245147705,-2.0181968891166497,1.8348820823129124,51.72086982949119,-0.03271484375,0.03466796875,1.005859375,-0.18310546875,-0.8544921875,-0.244140625,0.0,0.0,0.0,0.022828450426459312,0.006725358311086893,-0.43631067872047424,0.8994813561439514
1.1956517696380615,-1.9602681337750676,1.7583743586552492,51.72579098078819,-0.02978515625,0.0341796875,1.00341796875,-0.06103515625,-0.54931640625,-0.244140625,0.0,0.0,0.0,0.02208302915096283,0.006344262510538101,-0.4363401234149933,0.8994885087013245
1.2197849750518799,-1.9256226395404126,1.7226671968914804,51.7309819245574,-0.0302734375,0.0341796875,1.00341796875,-0.30517578125,-0.42724609375,-0.1220703125,0.0,0.0,0.0,0.021675538271665573,0.00619484530761838,-0.43637630343437195,0.8994818925857544
1.2397921085357666,-1.9133615962065935,1.7172162790469871,51.73573232112514,-0.0302734375,0.03369140625,1.00439453125,-0.18310546875,-0.6103515625,-0.1220703125,0.0,0.0,0.0,0.021558817476034164,0.006197845097631216,-0.4364125430583954,0.8994670510292053
1.2620742321014404,-1.945480347335167,1.6920466050686669,51.738549774157775,-0.0302734375,0.0341796875,1.005859375,0.244140625,-0.732421875,-0.244140625,0.0,0.0,0.0,0.0217153150588274,0.005877377465367317,-0.43643441796302795,0.8994548320770264
1.2797904014587402,-1.9469533203183624,1.7497189081512563,51.74121696302866,-0.03076171875,0.0341796875,1.00341796875,-0.1220703125,-0.79345703125,-0.18310546875,0.0,0.0,0.0,0.02194644697010517,0.006324047222733498,-0.43645983934402466,0.8994338512420654
1.3013718128204346,-1.8656155857004426,1.705165584195263,51.74839207675176,-0.0302734375,0.033203125,1.0029296875,-0.30517578125,-0.9765625,-0.30517578125,0.0,0.0,0.0,0.021138887852430344,0.00628273282200098,-0.4365084171295166,0.899429976940155
1.3197929859161377,-1.9188233996650765,1.6554895116400545,51.75014402027387,-0.029296875,0.03369140625,1.00244140625,-0.06103515625,-0.18310546875,-0.06103515625,0.0,0.0,0.0,0.021367564797401428,0.005689724814146757,-0.4365212917327881,0.8994221687316895
1.3356304168701172,-2.0813577828058736,1.7482591686595776,51.74968298250489,-0.03076171875,0.03662109375,1.00537109375,0.1220703125,-0.42724609375,-0.18310546875,0.0,0.0,0.0,0.02299625054001808,0.005798960570245981,-0.43653327226638794,0.8993755578994751
1.3597240447998047,-2.0794758522461234,1.6697376064138185,51.75201549210645,-0.029296875,0.0361328125,1.00390625,-0.1220703125,-1.0986328125,-0.244140625,0.0,0.0,0.0,0.02268279530107975,0.005189222749322653,-0.4365447461605072,0.8993816375732422
1.3869621753692627,-1.9883254836684223,1.6949923375916465,51.75979849266568,-0.02978515625,0.03466796875,1.00439453125,-0.18310546875,-1.0986328125,-0.244140625,0.0,0.0,0.0,0.022063883021473885,0.005733232479542494,-0.4366035759449005,0.899365246295929
1.4004802703857422,-1.9118395312387384,1.6861519383715344,51.76420054958576,-0.02978515625,0.03369140625,1.00537109375,0.06103515625,-0.79345703125,-0.18310546875,0.0,0.0,0.0,0.02143016643822193,0.005954424850642681,-0.4366335868835449,0.8993644714355469
1.4211328029632568,-1.9265182480953307,1.7901570431323168,51.766802851659534,-0.03125,0.03369140625,1.00439453125,-0.244140625,-0.42724609375,0.0,0.0,0.0,0.0,0.021941404789686203,0.0067144641652703285,-0.4366624355316162,0.8993328809738159
1.4396662712097168,-2.0431153401995603,1.7542093306437165,51.76635205917431,-0.03076171875,0.0361328125,1.00341796875,-0.18310546875,-0.48828125,-0.06103515625,0.0,0.0,0.0,0.022719616070389748,0.005988051183521748,-0.4366626441478729,0.8993184566497803
1.4570810794830322,-1.9779583237254006,1.666131586697169,51.77176156899696,-0.02978515625,0.03466796875,1.00390625,0.06103515625,-0.6103515625,-0.1220703125,0.0,0.0,0.0,0.02187325246632099,0.005543879698961973,-0.4366946816444397,0.899326741695404
1.4765641689300537,-1.9799153863660208,1.7750258262432115,51.77512543716319,-0.03076171875,0.03466796875,1.00390625,0.1220703125,-0.91552734375,-0.3662109375,0.0,0.0,0.0,0.022303342819213867,0.0063905855640769005,-0.4367297291755676,0.8992935419082642
1.4953737258911133,-1.9465642129790834,1.771608703945795,51.77864298458575,-0.03173828125,0.03466796875,1.0068359375,-0.30517578125,-0.9765625,-0.1220703125,0.0,0.0,0.0,0.02202879637479782,0.00649019330739975,-0.4367551803588867,0.8992872834205627
1.5207030773162842,-2.0514131662674795,1.7838570473966262,51.7785166260861,-0.03125,0.03564453125,1.00439453125,-0.30517578125,-0.48828125,-0.06103515625,0.0,0.0,0.0,0.022898240014910698,0.006186738610267639,-0.43676096200942993,0.899264931678772
1.541175127029419,-1.9331838723950283,1.818284936073193,51.787242192750796,-0.03173828125,0.03369140625,1.001953125,0.18310546875,-0.18310546875,-0.06103515625,0.0,0.0,0.0,0.02210201509296894,0.006905930116772652,-0.4368252754211426,0.8992483615875244
1.564880609512329,-1.9170861837383661,1.7604319531427155,51.79221115537198,-0.03076171875,0.033203125,1.00439453125,-0.06103515625,-0.42724609375,-0.06103515625,0.0,0.0,0.0,0.021755674853920937,0.006512236315757036,-0.4368591606616974,0.8992432951927185
1.5798234939575195,-1.8873665365557597,1.792868094624283,51.79644587265739,-0.03125,0.033203125,1.005859375,-0.3662109375,-1.15966796875,-0.30517578125,0.0,0.0,0.0,0.02164623700082302,0.006879336666315794,-0.43689295649528503,0.899226725101471
1.5995478630065918,-2.0384639813747816,1.7207223005253192,51.794567570635635,-0.0302734375,0.03564453125,1.00390625,-0.18310546875,-0.6103515625,-0.1220703125,0.0,0.0,0.0,0.022557063028216362,0.005737344268709421,-0.43688106536865234,0.8992180824279785
1.6209321022033691,-1.9722339848706953,1.6675338031894316,51.80024345783591,-0.02978515625,0.03466796875,1.00390625,0.1220703125,-0.1220703125,-0.06103515625,0.0,0.0,0.0,0.021835047751665115,0.005571275018155575,-0.4369180202484131,0.8992190957069397
1.6401798725128174,-1.9164336872292183,1.850797917182923,51.80692679793877,-0.03173828125,0.03369140625,1.00537109375,-0.244140625,-0.67138671875,-0.244140625,0.0,0.0,0.0,0.022095616906881332,0.007221193518489599,-0.43698105216026306,0.8991703391075134
1.6561164855957031,-2.0162208300124007,1.8021770021327757,51.80665017527738,-0.03125,0.0361328125,1.0029296875,-0.06103515625,-1.03759765625,-0.18310546875,0.0,0.0,0.0,0.022693397477269173,0.006459107622504234,-0.4369812309741974,0.899161159992218
1.6798837184906006,-1.9714769010898818,1.6885066460878964,51.80857970371792,-0.02978515625,0.03466796875,1.00439453125,0.0,-0.79345703125,-0.1220703125,0.0,0.0,0.0,0.021909410133957863,0.005737184081226587,-0.4369850754737854,0.8991836309432983
1.7009062767028809,-1.9615613874057272,1.8136502258345162,51.81260951532822,-0.03173828125,0.03466796875,1.00732421875,0.06103515625,-0.54931640625,-0.18310546875,0.0,0.0,0.0,0.022308556362986565,0.00675643514841795,-0.4370257258415222,0.8991469740867615
1.7196531295776367,-1.8645114429324277,1.7820795973868362,51.81964802526792,-0.03125,0.03271484375,1.00537109375,-0.18310546875,-0.42724609375,-0.18310546875,0.0,0.0,0.0,0.02142718993127346,0.006877455394715071,-0.43707290291786194,0.8991445899009705
1.7399814128875732,-1.9442743920598367,1.7792199892804224,51.82027981776615,-0.03125,0.0341796875,1.00341796875,-0.06103515625,-0.6103515625,-0.06103515625,0.0,0.0,0.0,0.02204218879342079,0.006550658494234085,-0.43708235025405884,0.8991274833679199
1.7599444389343262,-1.9680562569761748,1.7684732202299362,51.82265330850272,-0.03125,0.03466796875,1.00341796875,0.06103515625,-0.732421875,-0.244140625,0.0,0.0,0.0,0.0221879743039608,0.006375143304467201,-0.4371015131473541,0.8991158604621887
1.780287504196167,-1.977436668027541,1.6885650228609588,51.82483555394254,-0.02978515625,0.0341796875,1.0048828125,-0.30517578125,-1.0986328125,-0.18310546875,0.0,0.0,0.0,0.02195720560848713,0.005711802747100592,-0.4371128976345062,0.899120569229126
1.7996582984924316,-2.002374969347727,1.8567164895421506,51.82796378058241,-0.033203125,0.03564453125,1.00439453125,-0.30517578125,-0.6103515625,-0.1220703125,0.0,0.0,0.0,0.022793788462877274,0.0069357361644506454,-0.43715184926986694,0.8990721106529236
1.816366195678711,-2.0032588385150087,1.7319166604098528,51.83323668662166,-0.0302734375,0.03515625,1.00537109375,0.06103515625,-0.06103515625,-0.18310546875,0.0,0.0,0.0,0.022325439378619194,0.005951898638159037,-0.43718358874320984,0.8990755677223206
1.839658260345459,-2.010893922790025,1.7007132613517668,51.83628636608607,-0.02978515625,0.03515625,1.00341796875,0.18310546875,-0.6103515625,-0.1220703125,0.0,0.0,0.0,0.022266579791903496,0.005677294917404652,-0.43720540404319763,0.8990681171417236
1.8601186275482178,-1.964328254349817,1.8166386470398084,51.84028202675053,-0.0322265625,0.0341796875,1.00634765625,-0.1220703125,-0.79345703125,-0.1220703125,0.0,0.0,0.0,0.022343283519148827,0.006763942074030638,-0.4372432231903076,0.8990403413772583
1.8800013065338135,-2.0040417489486217,1.7794722793928897,51.840237630520924,-0.03125,0.03515625,1.0048828125,-0.18310546875,-0.8544921875,-0.18310546875,0.0,0.0,0.0,0.02251320518553257,0.006320747081190348,-0.437242329120636,0.8990396857261658
1.8968055248260498,-1.9979174171406473,1.796170064201161,51.84256330993331,-0.03125,0.03466796875,1.005859375,0.0,-0.67138671875,-0.18310546875,0.0,0.0,0.0,0.02252892777323723,0.006474699359387159,-0.43726152181625366,0.8990288972854614
1.9147772789001465,-1.9537273738711343,1.7147665890124797,51.84705757440718,-0.03076171875,0.0341796875,1.00390625,-0.3662109375,-0.54931640625,-0.1220703125,0.0,0.0,0.0,0.021872183308005333,0.006003635935485363,-0.4372881352901459,0.8990353941917419
1.9404149055480957,-1.8751684590283517,1.7540560782742145,51.85325255598438,-0.03076171875,0.03271484375,1.0029296875,-0.18310546875,-0.48828125,-0.06103515625,0.0,0.0,0.0,0.02140597440302372,0.006610589567571878,-0.4373352527618408,0.8990194797515869
1.9603056907653809,-1.9469546009788319,1.7154597464915302,51.85429415983281,-0.0302734375,0.0341796875,1.005859375,0.1220703125,-0.732421875,-0.1220703125,0.0,0.0,0.0,0.021822070702910423,0.00603354349732399,-0.43734458088874817,0.8990090489387512
1.9798550605773926,-1.9600241679556514,1.8142578992272358,51.85552017878883,-0.03125,0.0341796875,1.00439453125,0.0,-0.91552734375,-0.18310546875,0.0,0.0,0.0,0.022301342338323593,0.006758715957403183,-0.4373623728752136,0.8989834189414978
1.9999144077301025,-2.0824600045831843,1.699115957581336,51.854584442872536,-0.02978515625,0.0361328125,1.00341796875,-0.42724609375,-0.732421875,-0.1220703125,0.0,0.0,0.0,0.022822843864560127,0.005388065706938505,-0.4373522996902466,0.8989845514297485
2.0204548835754395,-1.9702487476997488,1.6696781624236983,51.861380481096695,-0.02978515625,0.03515625,1.0029296875,0.1220703125,-0.18310546875,0.0,0.0,0.0,0.0,0.021830620244145393,0.005584030412137508,-0.4373977780342102,0.8989858031272888
2.039823532104492,-1.9624826091700327,1.821943356147381,51.865137085140205,-0.03173828125,0.0341796875,1.005859375,0.18310546875,-0.30517578125,-0.1220703125,0.0,0.0,0.0,0.022350501269102097,0.006807767320424318,-0.4374385178089142,0.8989447355270386
2.0602850914001465,-1.8825862579103971,1.7973333307941788,51.86992846284297,-0.03173828125,0.033203125,1.0048828125,-0.1220703125,-1.03759765625,-0.18310546875,0.0,0.0,0.0,0.021630169823765755,0.006918742321431637,-0.4374695420265198,0.8989464640617371
2.0798723697662354,-1.9553004518143529,1.7261430161270763,51.87046121759823,-0.02978515625,0.03466796875,1.00439453125,-0.244140625,-1.0986328125,-0.244140625,0.0,0.0,0.0,0.02192913554608822,0.006082430016249418,-0.4374726712703705,0.8989437818527222
2.100083589553833,-2.0264012269703047,1.7842033593318871,51.870765161016294,-0.03173828125,0.0361328125,1.00537109375,0.06103515625,-0.30517578125,-0.06103515625,0.0,0.0,0.0,0.02270832657814026,0.006266511045396328,-0.43748340010643005,0.8989179134368896
2.1196248531341553,-2.022882185443867,1.7708625057789713,51.8737021423594,-0.03125,0.03564453125,1.00537109375,0.06103515625,-0.1220703125,0.0,0.0,0.0,0.0,0.022630004212260246,0.006174684502184391,-0.43750518560409546,0.8989099860191345
2.1348700523376465,-1.9422863801245398,1.6815261927561431,51.8811504636493,-0.029296875,0.03369140625,1.0048828125,-0.18310546875,-0.79345703125,-0.1220703125,0.0,0.0,0.0,0.0216574277728796,0.005779997445642948,-0.43755242228507996,0.8989135026931763
2.1598799228668213,-1.9366200978777794,1.7646976197228001,51.88414891669493,-0.03076171875,0.0341796875,1.0048828125,-0.1220703125,-0.9765625,-0.30517578125,0.0,0.0,0.0,0.021930396556854248,0.006453654263168573,-0.4375819265842438,0.8988879323005676
2.181013584136963,-2.0487974172587764,1.7381931773702715,51.88373910534474,-0.03076171875,0.0361328125,1.00537109375,0.0,-0.79345703125,-0.244140625,0.0,0.0,0.0,0.02270921692252159,0.0058174110017716885,-0.4375826418399811,0.8988725543022156
2.200758934020996,-1.9996503641991266,1.7633986031200282,51.887171275402665,-0.03125,0.03515625,1.00634765625,-0.244140625,-0.54931640625,-0.1220703125,0.0,0.0,0.0,0.02242002822458744,0.006202181801199913,-0.4376089870929718,0.8988645076751709
2.215081214904785,-2.0370377524987187,1.693364511413362,51.88898127553272,-0.02978515625,0.03564453125,1.00439453125,-0.1220703125,-0.3662109375,0.0,0.0,0.0,0.0,0.022446230053901672,0.005509553011506796,-0.43761947751045227,0.8988631963729858
2.240368604660034,-1.9825676341981016,1.649656956975687,51.89429516270699,-0.02880859375,0.03466796875,1.00537109375,0.18310546875,-0.54931640625,-0.1220703125,0.0,0.0,0.0,0.021852467209100723,0.005373622756451368,-0.4376550018787384,0.8988613486289978
2.2601335048675537,-1.9747622220806578,1.7195739749711108,51.89738582330642,-0.0302734375,0.03466796875,1.005859375,0.0,-0.9765625,-0.244140625,0.0,0.0,0.0,0.02205815352499485,0.005951404571533203,-0.43768438696861267,0.898838460445404
2.2825472354888916,-2.0208348362401556,1.736727354741363,51.89878601208627,-0.0302734375,0.03564453125,1.0048828125,-0.30517578125,-1.03759765625,-0.1220703125,0.0,0.0,0.0,0.02248505875468254,0.005909736268222332,-0.4376991093158722,0.8988209366798401
2.2998688220977783,-2.0830578595789717,1.7586106405118493,51.90120048395787,-0.03125,0.037109375,1.005859375,-0.18310546875,-0.42724609375,-0.18310546875,0.0,0.0,0.0,0.02305673062801361,0.005843267776072025,-0.4377230703830719,0.8987951278686523
2.3196518421173096,-2.0802854431061815,1.7463460753617395,51.90292169162871,-0.03125,0.0361328125,1.00439453125,0.1220703125,-0.244140625,0.06103515625,0.0,0.0,0.0,0.022988274693489075,0.005757289472967386,-0.437735378742218,0.8987915515899658
2.3403737545013428,-1.8955836810141082,1.775281851615381,51.912408824385864,-0.03125,0.033203125,1.0048828125,-0.18310546875,-0.6103515625,-0.06103515625,0.0,0.0,0.0,0.021650519222021103,0.006688063032925129,-0.4378019869327545,0.8987858891487122
2.3596744537353516,-2.026996307201742,1.8012502308397695,51.91270593761476,-0.03173828125,0.03515625,1.00390625,-0.30517578125,-0.9765625,-0.1220703125,0.0,0.0,0.0,0.022780345752835274,0.006389661226421595,-0.43781378865242004,0.8987542986869812
2.379803419113159,-1.9875933727667614,1.7199628688669784,51.9169782209406,-0.02978515625,0.03466796875,1.005859375,0.1220703125,-0.8544921875,-0.1220703125,0.0,0.0,0.0,0.022161293774843216,0.005901658441871405,-0.43783873319625854,0.8987610340118408
2.4000983238220215,-2.0039352406862516,1.650560249493421,51.91869601351686,-0.029296875,0.03515625,1.0048828125,-0.244140625,-0.6103515625,-0.1220703125,0.0,0.0,0.0,0.022024648264050484,0.005294412840157747,-0.43784746527671814,0.89876389503479
2.4201340675354004,-2.0362256003177217,1.812815235208482,51.92086801367292,-0.03173828125,0.03564453125,1.00537109375,-0.30517578125,-0.3662109375,-0.1220703125,0.0,0.0,0.0,0.022897325456142426,0.006443498190492392,-0.4378792345523834,0.898719072341919
2.434845447540283,-1.838875181656431,1.715096038918227,51.93108256157668,-0.0302734375,0.03271484375,1.0048828125,-0.06103515625,-0.3662109375,-0.1220703125,0.0,0.0,0.0,0.020977068692445755,0.006429120432585478,-0.4379410445690155,0.8987360000610352
2.459810495376587,-1.9481957744170701,1.77687136470129,51.931188429508815,-0.03125,0.0341796875,1.0048828125,0.1220703125,-0.8544921875,-0.1220703125,0.0,0.0,0.0,0.022070303559303284,0.006495910231024027,-0.4379524290561676,0.8987037539482117
2.4858453273773193,-1.8869253490240592,1.825670718443504,51.93533093924042,-0.03271484375,0.03271484375,1.00439453125,-0.244140625,-1.220703125,-0.1220703125,0.0,0.0,0.0,0.021776340901851654,0.007112105842679739,-0.43798476457595825,0.8986904621124268
2.499843120574951,-1.9362060176593474,1.783132940622899,51.93597297702241,-0.03125,0.0341796875,1.00390625,-0.3662109375,-0.6103515625,-0.06103515625,0.0,0.0,0.0,0.022000454366207123,0.006589933764189482,-0.437989741563797,0.8986865878105164
2.5210721492767334,-1.9455678591339076,1.6681891811846354,51.93913193951354,-0.02978515625,0.0341796875,1.00341796875,0.18310546875,-0.1220703125,-0.06103515625,0.0,0.0,0.0,0.021635157987475395,0.005651874002069235,-0.43800634145736694,0.8986937999725342
2.5471739768981934,-1.9221631487258013,1.7798703513554546,51.94332567566393,-0.03125,0.03369140625,1.00439453125,0.18310546875,-0.3662109375,-0.1220703125,0.0,0.0,0.0,0.02187829092144966,0.006616611033678055,-0.4380463659763336,0.898661732673645
2.559725046157837,-2.030979374704917,1.7750216640966858,51.942420675598896,-0.03125,0.03564453125,1.00341796875,-0.42724609375,-1.15966796875,-0.244140625,0.0,0.0,0.0,0.022713083773851395,0.006162785924971104,-0.438044935464859,0.8986450433731079
2.5802042484283447,-1.9987118535184845,1.6773735444624813,51.94529618523948,-0.029296875,0.03515625,1.00537109375,-0.18310546875,-0.91552734375,-0.30517578125,0.0,0.0,0.0,0.022087307646870613,0.005519597791135311,-0.4380579888820648,0.8986583948135376
2.597135066986084,-2.1233903400713086,1.6930233221199789,51.9438550153246,-0.02978515625,0.03662109375,1.00537109375,0.18310546875,-0.3662109375,0.0,0.0,0.0,0.0,0.023124752566218376,0.005166026297956705,-0.43805384635925293,0.8986364006996155
2.6202170848846436,-2.036022615633325,1.6985272806522453,51.9496401855516,-0.02978515625,0.03564453125,1.00390625,-0.18310546875,-0.30517578125,0.0,0.0,0.0,0.0,0.022460898384451866,0.005542049650102854,-0.4380955994129181,0.8986306190490723
2.6399824619293213,-2.0049123846243866,1.7754631717935037,51.95406956322836,-0.03125,0.03515625,1.00390625,-0.06103515625,-0.79345703125,0.0,0.0,0.0,0.0,0.022510988637804985,0.006263604387640953,-0.43813493847846985,0.898605465888977
2.659890651702881,-1.8900034164622077,1.7755266712084437,51.96106367693845,-0.03125,0.033203125,1.0048828125,0.18310546875,-0.732421875,-0.244140625,0.0,0.0,0.0,0.021610530093312263,0.006702130660414696,-0.4381832480430603,0.8986009359359741
2.6797053813934326,-1.9157431977928123,1.726225725449057,51.96360792240428,-0.0302734375,0.033203125,1.00439453125,0.0,-0.732421875,-0.18310546875,0.0,0.0,0.0,0.021624192595481873,0.00621652090921998,-0.4382011294364929,0.8985953330993652
2.7007102966308594,-1.9553992761139063,1.8060793880263801,51.96511056402168,-0.03173828125,0.0341796875,1.00390625,-0.244140625,-0.67138671875,-0.06103515625,0.0,0.0,0.0,0.02224028669297695,0.006690924055874348,-0.4382210075855255,0.898567259311676
2.7217319011688232,-2.030570203684951,1.7812813190275911,51.96778799817633,-0.03125,0.03466796875,1.001953125,-0.1220703125,-0.30517578125,-0.06103515625,0.0,0.0,0.0,0.022735154256224632,0.006208417937159538,-0.4382443428039551,0.8985468745231628
2.739586353302002,-1.9949836374487153,1.7323613697578442,51.9720090550834,-0.0302734375,0.03515625,1.00390625,0.18310546875,-0.6103515625,-0.244140625,0.0,0.0,0.0,0.022269444540143013,0.005959995090961456,-0.4382716715335846,0.8985469341278076
2.759571075439453,-1.917817227422969,1.69601505169815,51.97795473475589,-0.02978515625,0.03369140625,1.00341796875,-0.244140625,-0.91552734375,-0.30517578125,0.0,0.0,0.0,0.021525796502828598,0.005968932528048754,-0.43831151723861694,0.8985455632209778
2.77976131439209,-1.9384397029613532,1.7840321777158137,51.98014381038488,-0.0322265625,0.0341796875,1.00341796875,-0.30517578125,-1.0986328125,-0.244140625,0.0,0.0,0.0,0.022023942321538925,0.006579962093383074,-0.4383362829685211,0.8985171914100647
2.7995784282684326,-1.999624750989739,1.828064913191005,51.98091562176109,-0.03173828125,0.03466796875,1.00341796875,-0.18310546875,-0.54931640625,-0.18310546875,0.0,0.0,0.0,0.022671982645988464,0.006691113114356995,-0.4383491575717926,0.8984939455986023
2.8164548873901367,-1.9523423395735024,1.7223434032361393,51.9855601503967,-0.02978515625,0.0341796875,1.00390625,0.06103515625,-0.18310546875,0.06103515625,0.0,0.0,0.0,0.02189752086997032,0.006041917484253645,-0.43837493658065796,0.8985051512718201
2.839681625366211,-1.906808670028201,1.8696656744348485,51.99127018854283,-0.0322265625,0.033203125,1.0048828125,-0.1220703125,-0.6103515625,-0.06103515625,0.0,0.0,0.0,0.022103847935795784,0.007370439358055592,-0.4384276866912842,0.8984643816947937
2.8599612712860107,-1.9048746592760295,1.745937011063479,51.995050698248434,-0.0302734375,0.03271484375,1.00341796875,0.1220703125,-0.8544921875,-0.244140625,0.0,0.0,0.0,0.021616023033857346,0.006406758911907673,-0.4384485185146332,0.8984735012054443
2.880329132080078,-1.8919476724981341,1.7207458860222968,51.999391283465975,-0.0302734375,0.033203125,1.0048828125,0.0,-0.79345703125,-0.3662109375,0.0,0.0,0.0,0.02141861617565155,0.006257845088839531,-0.438480019569397,0.8984639048576355
2.901139497756958,-1.993144822458101,1.8068926074244347,51.99904635891289,-0.03125,0.03515625,1.0048828125,-0.244140625,-0.6103515625,-0.1220703125,0.0,0.0,0.0,0.022541314363479614,0.006546278949826956,-0.4384893476963043,0.898429811000824
2.9198079109191895,-2.02345207935274,1.7489364246044667,52.00189796289137,-0.03076171875,0.03564453125,1.0048828125,-0.18310546875,-0.48828125,-0.1220703125,0.0,0.0,0.0,0.022557556629180908,0.0059752315282821655,-0.43850886821746826,0.8984238505363464
2.9427764415740967,-2.0246633707133594,1.8009307060526598,52.006009736771716,-0.03173828125,0.03515625,1.0048828125,0.1220703125,-0.18310546875,-0.18310546875,0.0,0.0,0.0,0.022766025736927986,0.006377535406500101,-0.43854525685310364,0.8983981609344482
2.9600656032562256,-1.9973678003558728,1.7359811565745393,52.00967754835602,-0.03076171875,0.03515625,1.0048828125,0.0,-0.91552734375,-0.1220703125,0.0,0.0,0.0,0.022303931415081024,0.005971935112029314,-0.4385674297809601,0.8984017372131348
2.98014497756958,-2.0027570330544244,1.71565227244876,52.01253256742908,-0.02978515625,0.03515625,1.00439453125,-0.3662109375,-1.0986328125,-0.244140625,0.0,0.0,0.0,0.022268610075116158,0.005791334435343742,-0.43858852982521057,0.8983933329582214
2.999690055847168,-1.9786748532580174,1.8215950164997103,52.01568469973104,-0.03125,0.0341796875,1.00439453125,-0.18310546875,-0.48828125,-0.18310546875,0.0,0.0,0.0,0.02248503640294075,0.006713686045259237,-0.43862006068229675,0.8983661532402039
3.0207295417785645,-1.8947040807150575,1.6726616744305245,52.02113519068871,-0.02978515625,0.03369140625,1.005859375,0.1220703125,-0.1220703125,0.0,0.0,0.0,0.0,0.021257534623146057,0.005866164341568947,-0.4386471211910248,0.8983888626098633
3.035491943359375,-1.8973998710030968,1.825482674797917,52.0245537003683,-0.03173828125,0.033203125,1.00439453125,-0.06103515625,-0.67138671875,-0.1220703125,0.0,0.0,0.0,0.021863266825675964,0.00705357501283288,-0.43868497014045715,0.8983472585678101
3.060878276824951,-1.9182959809951046,1.8152587353840541,52.02842983272228,-0.03173828125,0.0341796875,1.001953125,-0.30517578125,-1.15966796875,-0.30517578125,0.0,0.0,0.0,0.021988222375512123,0.006892662029713392,-0.43871596455574036,0.8983302712440491
3.0800940990448,-1.919241108421505,1.8313423367755532,52.030851134783056,-0.0322265625,0.03369140625,1.0048828125,0.0,-0.67138671875,-0.1220703125,0.0,0.0,0.0,0.02205728553235531,0.007014697417616844,-0.43873608112335205,0.8983178734779358
3.0999557971954346,-2.058591908528575,1.8533124940145456,52.02926653089561,-0.03271484375,0.0361328125,1.00390625,-0.06103515625,-0.1220703125,-0.06103515625,0.0,0.0,0.0,0.023233609274029732,0.0066537559032440186,-0.43873360753059387,0.8982921838760376
3.1197609901428223,-2.008157364810377,1.764884169264506,52.034747757704544,-0.03125,0.03515625,1.0048828125,-0.18310546875,-0.54931640625,0.06103515625,0.0,0.0,0.0,0.02250036410987377,0.00615237932652235,-0.43876680731773376,0.8982982635498047
3.1363205909729004,-1.9621519853255218,1.5711936647812845,52.039494739177705,-0.0283203125,0.03466796875,1.00439453125,-0.06103515625,-0.8544921875,-0.18310546875,0.0,0.0,0.0,0.021399060264229774,0.004808865953236818,-0.4387862980365753,0.8983238339424133
3.1608572006225586,-1.9884678504239346,1.7155737252733048,52.04222681484571,-0.0302734375,0.03466796875,1.0048828125,0.0,-0.8544921875,-0.30517578125,0.0,0.0,0.0,0.02215779572725296,0.0058396682143211365,-0.4388205409049988,0.8982825875282288
3.1799843311309814,-1.997733002033057,1.7317305377549699,52.04477789050071,-0.0302734375,0.03515625,1.00341796875,-0.18310546875,-0.732421875,-0.06103515625,0.0,0.0,0.0,0.0222923643887043,0.00593037623912096,-0.4388422966003418,0.8982679843902588
3.1999034881591797,-2.0061606016952065,1.8037402616790623,52.04701819254847,-0.03173828125,0.03466796875,1.00439453125,-0.18310546875,-0.54931640625,0.1220703125,0.0,0.0,0.0,0.022634020075201988,0.006462277844548225,-0.43886590003967285,0.8982442617416382
3.2218592166900635,-1.942916678518885,1.7529052981207731,52.051526117400684,-0.03076171875,0.03466796875,1.00439453125,0.18310546875,-0.30517578125,-0.06103515625,0.0,0.0,0.0,0.021944038569927216,0.006305038928985596,-0.4388938844203949,0.8982488512992859
3.2397584915161133,-1.953578603813275,1.6624490475174745,52.05247551369531,-0.02978515625,0.03369140625,1.00244140625,0.1220703125,-0.3662109375,-0.18310546875,0.0,0.0,0.0,0.021681567654013634,0.005554783623665571,-0.43889495730400085,0.898259699344635
3.2597477436065674,-2.0677840624909423,1.6070667787975434,52.05292289108595,-0.02880859375,0.0361328125,1.00439453125,-0.18310546875,-0.9765625,-0.244140625,0.0,0.0,0.0,0.022364914417266846,0.004683046136051416,-0.4388989806175232,0.8982458710670471
3.2809364795684814,-2.021228852777901,1.7895826669118011,52.058363136759866,-0.03125,0.03564453125,1.00341796875,-0.18310546875,-0.9765625,-0.3662109375,0.0,0.0,0.0,0.022698596119880676,0.006291316356509924,-0.43895456194877625,0.8982005715370178
3.2966086864471436,-1.8713557193676036,1.7486157258785935,52.06544945802376,-0.03076171875,0.033203125,1.00390625,0.0,-0.30517578125,0.0,0.0,0.0,0.0,0.021367473527789116,0.006542891729623079,-0.43899866938591003,0.8982098698616028
3.3195645809173584,-1.9409485168208636,1.826392797504821,52.06520357121364,-0.03173828125,0.03369140625,1.00439453125,-0.1220703125,-0.3662109375,-0.1220703125,0.0,0.0,0.0,0.02221059426665306,0.006886116694658995,-0.43900635838508606,0.8981829881668091
3.3399884700775146,-1.9968736788581047,1.624248866706651,52.067044307194955,-0.02880859375,0.03466796875,1.00537109375,-0.3662109375,-0.6103515625,-0.06103515625,0.0,0.0,0.0,0.02187543734908104,0.0050866627134382725,-0.4390081465244293,0.8982023000717163
3.358726739883423,-2.0615141622762825,1.5877879295349477,52.06807566575962,-0.02783203125,0.0361328125,1.00439453125,0.0,-0.732421875,-0.18310546875,0.0,0.0,0.0,0.022242607548832893,0.004552958067506552,-0.43901586532592773,0.8981923460960388
3.379744052886963,-2.0713543304361552,1.7636991314435089,52.069803703619634,-0.03125,0.0361328125,1.00537109375,0.0,-0.8544921875,-0.244140625,0.0,0.0,0.0,0.022993044927716255,0.005894072353839874,-0.4390448331832886,0.8981515765190125
3.3999643325805664,-2.029910876986633,1.8384260967185027,52.07443798697149,-0.0322265625,0.03564453125,1.00390625,-0.244140625,-0.54931640625,-0.1220703125,0.0,0.0,0.0,0.022954467684030533,0.006637786980718374,-0.43908488750457764,0.8981277942657471
3.4198617935180664,-2.0018052888822657,1.6237602947375835,52.07888444012117,-0.0283203125,0.03515625,1.00537109375,0.0,-0.42724609375,0.06103515625,0.0,0.0,0.0,0.021912742406129837,0.005061675328761339,-0.43910107016563416,0.8981562852859497
3.439667224884033,-1.9084760899593303,1.6566604621958887,52.08503844056335,-0.029296875,0.033203125,1.0048828125,0.1220703125,-0.54931640625,-0.06103515625,0.0,0.0,0.0,0.021307485178112984,0.005676086526364088,-0.43914756178855896,0.8981443047523499
3.4596540927886963,-1.9834314396846966,1.6900280707255166,52.0863020255598,-0.0302734375,0.03515625,1.0048828125,-0.06103515625,-1.0986328125,-0.30517578125,0.0,0.0,0.0,0.02202277071774006,0.005650180857628584,-0.4391637444496155,0.8981192708015442
3.4798367023468018,-1.9608390949009984,1.74765651118703,52.09004838431955,-0.03125,0.03466796875,1.0029296875,-0.42724609375,-0.91552734375,-0.1220703125,0.0,0.0,0.0,0.022066527977585793,0.006187821738421917,-0.4391964375972748,0.8980987071990967
3.499976873397827,-2.042666682148455,1.705624594251829,52.09121634666763,-0.0302734375,0.03564453125,1.00390625,0.06103515625,-0.1220703125,-0.18310546875,0.0,0.0,0.0,0.022546974942088127,0.0055444673635065556,-0.43920642137527466,0.8980860710144043
3.519746780395508,-1.9492288405290346,1.8031246908801148,52.09812166791851,-0.03173828125,0.0341796875,1.00341796875,0.18310546875,-0.18310546875,0.0,0.0,0.0,0.0,0.022188367322087288,0.0066655948758125305,-0.43926313519477844,0.8980597257614136
3.5429952144622803,-2.0238356371633186,1.728579365948361,52.10034489449335,-0.0302734375,0.03564453125,1.00634765625,-0.18310546875,-0.54931640625,-0.06103515625,0.0,0.0,0.0,0.022487735375761986,0.0057948012836277485,-0.4392789304256439,0.8980505466461182
3.559974431991577,-2.086745521400544,1.6907600749054716,52.10093912095114,-0.02978515625,0.03662109375,1.00439453125,-0.1220703125,-1.15966796875,-0.244140625,0.0,0.0,0.0,0.02283596433699131,0.00525705749168992,-0.43928343057632446,0.8980429172515869
3.576894998550415,-2.0961442885853048,1.6675879110942629,52.102520309744,-0.029296875,0.03662109375,1.0048828125,0.1220703125,-0.54931640625,0.0,0.0,0.0,0.0,0.022820958867669106,0.005039066541939974,-0.4392942488193512,0.8980392217636108
3.600177049636841,-1.957211624121487,1.8144617376852783,52.10866064980784,-0.03271484375,0.03369140625,1.005859375,-0.18310546875,-0.30517578125,-0.06103515625,0.0,0.0,0.0,0.02229495905339718,0.006721814628690481,-0.4393470585346222,0.898015558719635
3.6199426651000977,-1.8587553010093993,1.8376337947747812,52.115825518247185,-0.0322265625,0.03271484375,1.0029296875,-0.1220703125,-0.42724609375,0.0,0.0,0.0,0.0,0.021612582728266716,0.00727958744391799,-0.43939879536628723,0.898002564907074
3.6397013664245605,-1.9995827026376611,1.7451124791646115,52.11488295214172,-0.03076171875,0.0341796875,1.00439453125,0.1220703125,-0.79345703125,-0.1220703125,0.0,0.0,0.0,0.022361736744642258,0.006014540325850248,-0.43939289450645447,0.8979965448379517
3.6597373485565186,-1.9858841179269657,1.7505456812059452,52.11781651839024,-0.03076171875,0.03466796875,1.00439453125,0.0,-0.91552734375,-0.18310546875,0.0,0.0,0.0,0.022275356575846672,0.006109083537012339,-0.4394155740737915,0.8979869484901428
3.680088758468628,-1.94775736164972,1.7982445207181408,52.11993729212753,-0.03173828125,0.0341796875,1.00244140625,-0.30517578125,-0.79345703125,-0.1220703125,0.0,0.0,0.0,0.022159410640597343,0.006628761533647776,-0.43943366408348083,0.8979772925376892
3.7006192207336426,-1.9856717417324607,1.7946016820129969,52.1228367074302,-0.03173828125,0.03466796875,1.00390625,-0.1220703125,-0.67138671875,-0.18310546875,0.0,0.0,0.0,0.022442730143666267,0.006454245187342167,-0.43945828080177307,0.8979594111442566
3.7159039974212646,-2.0605686079630585,1.6699953393332807,52.12495065097832,-0.029296875,0.0361328125,1.00390625,0.1220703125,-0.06103515625,-0.06103515625,0.0,0.0,0.0,0.02255239337682724,0.005189903080463409,-0.4394686818122864,0.8979597091674805
3.741564989089966,-1.9605968366288746,1.7817587919392572,52.13212576470142,-0.03076171875,0.03466796875,1.00390625,-0.06103515625,-0.6103515625,-0.1220703125,0.0,0.0,0.0,0.022197561338543892,0.006447941996157169,-0.4395286738872528,0.8979311585426331
3.7551937103271484,-2.0119237872508164,1.8179686129372568,52.13304442514478,-0.0322265625,0.03564453125,1.00537109375,-0.244140625,-1.0986328125,-0.18310546875,0.0,0.0,0.0,0.022738538682460785,0.006534697953611612,-0.4395415484905243,0.8979105949401855
3.780651330947876,-2.051046897373238,1.8838933853628081,52.13302051948269,-0.03271484375,0.03515625,1.00439453125,-0.06103515625,-0.732421875,-0.1220703125,0.0,0.0,0.0,0.023297667503356934,0.006901346612721682,-0.4395487308502197,0.897890031337738
3.795701503753662,-2.0493935647072714,1.7028165327293077,52.13414408560116,-0.02978515625,0.0361328125,1.00439453125,-0.06103515625,-0.3662109375,0.06103515625,0.0,0.0,0.0,0.02259100042283535,0.005488207563757896,-0.4395429193973541,0.8979207277297974
3.8185391426086426,-2.0208218161920506,1.6867672957270703,52.138723727439654,-0.02978515625,0.03515625,1.00439453125,-0.30517578125,-0.54931640625,-0.06103515625,0.0,0.0,0.0,0.022305840626358986,0.005471117794513702,-0.439576119184494,0.8979116678237915
3.84063458442688,-2.0102668260468537,1.684050908149815,52.14373708629044,-0.029296875,0.03466796875,1.00390625,-0.06103515625,-0.67138671875,-0.18310546875,0.0,0.0,0.0,0.022212963551282883,0.0054893456399440765,-0.4396146535873413,0.8978950381278992
3.8602116107940674,-2.002681047199908,1.8476585914856558,52.146195954391644,-0.03271484375,0.03466796875,1.00390625,0.0,-0.8544921875,-0.18310546875,0.0,0.0,0.0,0.0227806456387043,0.006800245027989149,-0.43964630365371704,0.8978563547134399
3.875922918319702,-2.059922941643081,1.8098114460775574,52.14772591676573,-0.03173828125,0.03564453125,1.00341796875,-0.244140625,-0.8544921875,-0.244140625,0.0,0.0,0.0,0.02308419533073902,0.0062836939468979836,-0.43965861201286316,0.8978464007377625
3.9002180099487305,-2.062408063283908,1.7146888956106707,52.15089170944603,-0.0302734375,0.0361328125,1.0048828125,-0.42724609375,-0.67138671875,-0.06103515625,0.0,0.0,0.0,0.02273927442729473,0.0055280206725001335,-0.4396757483482361,0.8978517055511475
3.9199836254119873,-1.9727744235887725,1.6877775233939973,52.15610314378275,-0.02978515625,0.03466796875,1.00634765625,0.18310546875,-0.18310546875,0.0,0.0,0.0,0.0,0.021934080868959427,0.0056600202806293964,-0.43971002101898193,0.8978540897369385
3.940223217010498,-2.0229690569123733,1.8482523910566238,52.155280105987764,-0.033203125,0.03564453125,1.0048828125,0.1220703125,-0.48828125,0.18310546875,0.0,0.0,0.0,0.022942418232560158,0.006725238170474768,-0.43971875309944153,0.8978172540664673
3.963996171951294,-2.104793229065245,1.9312861470228226,52.14380880327673,-0.02978515625,0.0380859375,1.00634765625,-0.54931640625,0.06103515625,-0.1220703125,0.0,0.0,0.0,0.02390102483332157,0.007064389064908028,-0.43964025378227234,0.8978281617164612
3.979628562927246,-2.1546630015164467,1.741604216530458,52.162021502698565,-0.02197265625,0.03955078125,0.99853515625,-0.06103515625,0.6103515625,-1.64794921875,0.0,0.0,0.0,0.023565780371427536,0.005382698494940996,-0.4397696554660797,0.8977853655815125
4.001158237457275,-1.9089727727780372,1.6904350005896613,52.22455188455003,-0.01953125,-0.07666015625,0.92041015625,-10.3759765625,3.5400390625,-3.41796875,0.0,0.0,0.0,0.02144789695739746,0.005912854336202145,-0.44024327397346497,0.897602915763855
4.019845724105835,-1.3953097836294035,1.8164098357026128,52.31137383418465,-0.0615234375,-0.353515625,0.99853515625,-15.19775390625,4.21142578125,-6.77490234375,0.0,0.0,0.0,0.017914434894919395,0.008859666995704174,-0.4408969581127167,0.8973352313041687
4.039764642715454,-0.9680754746295821,2.0650987309300697,52.39996138771971,-0.076171875,-0.35302734375,1.08984375,-10.7421875,8.11767578125,-7.4462890625,0.0,0.0,0.0,0.015534590929746628,0.012439176440238953,-0.4415546953678131,0.8970136642456055
4.060890197753906,-0.7049539627990653,2.1973527510460844,52.60308438344672,-0.033203125,-0.31201171875,1.06103515625,-3.173828125,1.40380859375,-13.3056640625,0.0,0.0,0.0,0.014009860344231129,0.014463633298873901,-0.44311124086380005,0.8962404727935791
4.079818487167358,-0.4364889485209242,2.321833588999801,52.89533110255864,-0.06005859375,-0.25439453125,0.93603515625,-6.9580078125,4.69970703125,-17.27294921875,0.0,0.0,0.0,0.012433253228664398,0.016443738713860512,-0.4453546106815338,0.895116925239563
4.099794387817383,-0.15668285869322646,2.36373274413301,53.311081302242734,-0.04052734375,-0.27099609375,0.99609375,-2.5634765625,2.8076171875,-23.193359375,0.0,0.0,0.0,0.010475078597664833,0.017820561304688454,-0.44855499267578125,0.8935161828994751
4.1203296184539795,0.06501886522602568,2.419550117247412,53.84910896354298,-0.03369140625,-0.2802734375,1.01708984375,-0.67138671875,4.39453125,-28.50341796875,0.0,0.0,0.0,0.009054535068571568,0.01908128336071968,-0.45270514488220215,0.8914101123809814
4.139613151550293,0.3161583309420625,2.5178926750211366,54.45940002626196,-0.07666015625,-0.24365234375,0.92822265625,-2.38037109375,5.4931640625,-31.18896484375,0.0,0.0,0.0,0.0076003302820026875,0.020798174664378166,-0.45739278197288513,0.8889890909194946
4.161693811416626,0.6354290403506824,2.53286658411592,55.17823645527078,-0.0859375,-0.255859375,0.92138671875,-4.57763671875,1.8310546875,-36.62109375,0.0,0.0,0.0,0.005322313401848078,0.02215566486120224,-0.462898850440979,0.8861182332038879
4.181180000305176,0.8806150623901275,2.714890271723114,55.9480260954879,-0.072265625,-0.35107421875,1.11962890625,4.39453125,13.12255859375,-37.04833984375,0.0,0.0,0.0,0.004326855763792992,0.024524839594960213,-0.4687647819519043,0.8829719424247742
4.205995082855225,1.010320194646111,2.868915092931721,56.96635948941261,-0.1611328125,-0.26220703125,0.970703125,3.23486328125,5.18798828125,-39.9169921875,0.0,0.0,0.0,0.004190999548882246,0.026205744594335556,-0.476538747549057,0.8787528872489929
4.219319581985474,1.108741619760408,2.9006835834219196,57.62084870625074,-0.1533203125,-0.2109375,0.9306640625,6.16455078125,-0.48828125,-43.3349609375,0.0,0.0,0.0,0.003721813438460231,0.02683776244521141,-0.4815215766429901,0.8760154247283936
4.239936113357544,1.3028798217993827,3.0057276239884843,58.51014616637557,-0.1728515625,-0.1669921875,0.88720703125,-1.77001953125,-0.6103515625,-46.142578125,0.0,0.0,0.0,0.002900263760238886,0.028434626758098602,-0.488238662481308,0.8722419142723083
4.2596752643585205,1.6055745959073073,3.0927077351910697,59.47443227339797,-0.1455078125,-0.19921875,0.90966796875,-2.38037109375,-2.197265625,-49.31640625,0.0,0.0,0.0,0.0012229009298607707,0.03037678636610508,-0.49546512961387634,0.8680956959724426
4.280000448226929,1.9103170393840603,3.1903792268788402,60.47698110015078,-0.13525390625,-0.2412109375,1.01318359375,0.79345703125,-1.89208984375,-51.45263671875,0.0,0.0,0.0,-0.00037901036557741463,0.03243838995695114,-0.5029343962669373,0.8637155890464783
4.299638986587524,2.1691513268499247,3.3011217796473113,61.48273328562433,-0.16650390625,-0.1845703125,0.96826171875,-2.5634765625,-1.15966796875,-51.08642578125,0.0,0.0,0.0,-0.001541013247333467,0.0344233363866806,-0.510391354560852,0.8592516183853149
4.320148706436157,2.4193750936499305,3.3592469029275316,62.486641320021974,-0.16845703125,-0.20458984375,1.064453125,-1.40380859375,-5.126953125,-50.84228515625,0.0,0.0,0.0,-0.002842629561200738,0.03599955886602402,-0.5178061723709106,0.8547354340553284
4.336522340774536,2.710814142892497,3.3036617562449098,63.47065984355654,-0.14794921875,-0.25341796875,1.03515625,-5.67626953125,-9.6435546875,-49.49951171875,0.0,0.0,0.0,-0.004951081704348326,0.03694598749279976,-0.5250505805015564,0.8502542972564697
4.360004663467407,2.9641085066112463,3.2220254142942135,64.41352647734178,-0.03955078125,-0.32275390625,1.10693359375,-1.64794921875,-3.84521484375,-47.36328125,0.0,0.0,0.0,-0.00689656799659133,0.03755931928753853,-0.5319720506668091,0.8459003567695618
4.374826431274414,3.175553020624858,3.1508749068233675,65.21621713879085,-0.08642578125,-0.27783203125,0.861328125,-1.0986328125,0.67138671875,-36.0107421875,0.0,0.0,0.0,-0.008521986193954945,0.038076769560575485,-0.5378377437591553,0.8421449661254883
4.401209354400635,3.4183976218003114,3.0487110716524324,65.88084235635728,-0.029296875,-0.2998046875,1.04638671875,1.220703125,-3.11279296875,-28.80859375,0.0,0.0,0.0,-0.010564036667346954,0.03852837160229683,-0.5426664352416992,0.8389977812767029
4.414739608764648,3.550157306975146,2.852837681399157,66.32864321872165,-0.04541015625,-0.25634765625,1.1083984375,5.126953125,-8.544921875,-17.578125,0.0,0.0,0.0,-0.012311086989939213,0.03776809945702553,-0.5459645986557007,0.836866021156311
4.435693979263306,3.595013720575559,2.6973159815452594,66.58097772741861,0.0498046875,-0.2080078125,0.919921875,6.34765625,-1.220703125,-9.6435546875,0.0,0.0,0.0,-0.0133002158254385,0.03687654063105583,-0.5478448867797852,0.8356609344482422
4.4603657722473145,3.7911315035350737,2.674161213372093,66.68939332011422,-0.05712890625,-0.14892578125,0.79345703125,-5.92041015625,-2.5634765625,-2.9296875,0.0,0.0,0.0,-0.014805716462433338,0.03765944018959999,-0.5485795140266418,0.8351185917854309
4.474797487258911,4.014891915839277,2.6607377572189024,66.68295928191607,-0.064453125,-0.2060546875,1.16357421875,5.126953125,-7.99560546875,-0.6103515625,0.0,0.0,0.0,-0.01650298945605755,0.03863191977143288,-0.5484629273414612,0.8351190090179443
4.4997498989105225,4.022311635712026,2.5182476314145656,66.70431728345069,0.015625,-0.158203125,1.06103515625,8.48388671875,2.3193359375,-0.54931640625,0.0,0.0,0.0,-0.0172337144613266,0.037633296102285385,-0.5486679673194885,0.835015058517456
4.52044939994812,4.187211612183175,2.5214433061724852,66.7599833251863,-0.02978515625,-0.08544921875,0.7958984375,-4.39453125,1.64794921875,-2.74658203125,0.0,0.0,0.0,-0.018401287496089935,0.03845500573515892,-0.549017608165741,0.8347228765487671
4.539873361587524,4.489836376852106,2.6310744590969484,66.81393498944023,-0.0576171875,-0.1201171875,0.86669921875,-7.568359375,0.54931640625,-3.60107421875,0.0,0.0,0.0,-0.020059935748577118,0.04071183130145073,-0.5492639541625977,0.83441561460495
4.561382532119751,4.723283704946679,2.6482254909896734,66.8906106930628,-0.0703125,-0.14453125,1.0703125,1.77001953125,-1.5869140625,-2.25830078125,0.0,0.0,0.0,-0.021649261936545372,0.04196993634104729,-0.5497310161590576,0.8340058326721191
4.584154367446899,4.709257057712412,2.610185606180934,66.95488960334178,-0.0830078125,-0.1220703125,1.18603515625,12.14599609375,-7.87353515625,-2.62451171875,0.0,0.0,0.0,-0.02170683816075325,0.041638314723968506,-0.5502194762229919,0.8336987495422363
4.599685192108154,4.41837040001897,2.486517133851625,67.04321077949922,0.01904296875,-0.0546875,1.10498046875,10.31494140625,-0.1220703125,-6.40869140625,0.0,0.0,0.0,-0.020155608654022217,0.03935824707150459,-0.5510137677192688,0.8333238363265991
4.619934558868408,4.201055978743967,2.3507607207952748,67.14307497535398,-0.0048828125,-0.04345703125,0.94775390625,5.0048828125,7.8125,-5.18798828125,0.0,0.0,0.0,-0.0191971305757761,0.037343695759773254,-0.551863431930542,0.8328767418861389
4.641921520233154,3.9380010612578578,2.2966293371888082,67.25443437958187,-0.0888671875,-0.0419921875,1.02392578125,6.34765625,-5.79833984375,-3.662109375,0.0,0.0,0.0,-0.017511742189526558,0.035700686275959015,-0.5527756810188293,0.8323808908462524
4.6599602699279785,3.827516775017378,2.338998067827455,67.29779925062228,-0.044921875,0.009765625,0.89501953125,-1.3427734375,-1.8310546875,-4.08935546875,0.0,0.0,0.0,-0.016490953043103218,0.035481441766023636,-0.5531103610992432,0.8321887254714966
4.679902076721191,3.713798394204897,2.3858047138793177,67.36747401034557,-0.05322265625,-0.04443359375,0.92431640625,0.79345703125,3.173828125,-3.2958984375,0.0,0.0,0.0,-0.015417254529893398,0.035281531512737274,-0.5536355376243591,0.831868588924408
4.699744701385498,3.453399139645453,2.3367895688480136,67.44159522321856,-0.052734375,-0.0458984375,1.1416015625,8.056640625,-0.18310546875,-3.96728515625,0.0,0.0,0.0,-0.01374237984418869,0.03367670997977257,-0.5542678833007812,0.8315432667732239
4.719730377197266,3.1744219839869867,2.2433152284052156,67.50815541668032,-0.119140625,-0.01318359375,0.982421875,8.11767578125,-18.85986328125,-5.31005859375,0.0,0.0,0.0,-0.012152488343417645,0.03165646269917488,-0.5548589825630188,0.831253170967102
4.7397449016571045,3.041253145409013,2.2388779533222345,67.58681870535136,0.03564453125,0.0390625,0.7802734375,-8.85009765625,12.0849609375,-3.41796875,0.0,0.0,0.0,-0.011186718940734863,0.030987152829766273,-0.5554671883583069,0.8308855891227722
4.76210880279541,3.1249208283075536,2.396399617942477,67.67039973022482,-0.0712890625,0.01416015625,0.8798828125,-13.85498046875,5.79833984375,-5.859375,0.0,0.0,0.0,-0.011004883795976639,0.03254205361008644,-0.5560036897659302,0.8304697275161743
4.775464296340942,3.2032432478503248,2.6457399424620234,67.94042442887209,-0.1142578125,0.0078125,1.09228515625,-3.23486328125,4.82177734375,-19.83642578125,0.0,0.0,0.0,-0.010278735309839249,0.03475189954042435,-0.5578595399856567,0.829143762588501
4.799973964691162,2.9950388048242376,2.8172272095008264,68.52573065960716,-0.1171875,0.00390625,1.19091796875,8.60595703125,6.40869140625,-34.72900390625,0.0,0.0,0.0,-0.007757020182907581,0.035018131136894226,-0.5620972514152527,0.8262930512428284
4.819816827774048,2.7745517606797634,3.111058959387013,69.4529288394364,-0.1376953125,0.01708984375,1.03125,5.67626953125,9.21630859375,-51.08642578125,0.0,0.0,0.0,-0.004431235138326883,0.03609051927924156,-0.5687422156333923,0.8217117190361023
4.839925050735474,2.6417686143464842,3.447829974150954,70.65762394486491,-0.16796875,0.05322265625,1.013671875,8.36181640625,18.24951171875,-63.96484375,0.0,0.0,0.0,-0.0014064977876842022,0.037861019372940063,-0.5772868990898132,0.8156619071960449
4.860141754150391,2.419335179731968,3.5847513613476147,72.120705106595,-0.24658203125,0.04296875,1.04150390625,10.3759765625,-1.953125,-78.18603515625,0.0,0.0,0.0,0.0013493249425664544,0.037699922919273376,-0.5876842141151428,0.8082104921340942
4.876183986663818,2.388638175167815,3.8467744933822288,73.86587308104662,-0.12451171875,0.07861328125,0.90478515625,-3.96728515625,14.22119140625,-90.88134765625,0.0,0.0,0.0,0.0035115538630634546,0.03933976590633392,-0.5998516082763672,0.7991358637809753
4.900158643722534,2.4411949867271825,4.0521890175757775,75.68899400449558,-0.330078125,-0.02001953125,0.96142578125,5.43212890625,-11.5966796875,-92.34619140625,0.0,0.0,0.0,0.004874789156019688,0.04097342491149902,-0.6124030947685242,0.7894681692123413
4.920278549194336,2.4552011433939396,4.173300651277974,77.52622609876981,-0.20166015625,-0.0244140625,1.10791015625,6.7138671875,8.30078125,-90.27099609375,0.0,0.0,0.0,0.006097556557506323,0.04178927093744278,-0.6249349117279053,0.7795337438583374
4.9404661655426025,2.497015774936169,4.433245698257612,79.2923559237842,-0.2158203125,-0.0205078125,0.92919921875,3.0517578125,0.67138671875,-85.3271484375,0.0,0.0,0.0,0.007907413877546787,0.04366660118103027,-0.6367670893669128,0.7697781920433044
4.959631443023682,2.662629719618996,4.45021274192957,80.90995645510749,-0.26025390625,-0.03125,0.77880859375,-5.31005859375,-1.5869140625,-76.416015625,0.0,0.0,0.0,0.007519648410379887,0.04459894821047783,-0.647499680519104,0.7607225179672241
4.9765167236328125,2.896949390936627,4.5813101121983255,82.1933011888287,-0.2744140625,-0.060546875,1.06884765625,-5.126953125,-0.54931640625,-57.4951171875,0.0,0.0,0.0,0.007230058778077364,0.04671366512775421,-0.6558346748352051,0.7534232139587402
5.000305414199829,3.0960517531200256,4.50902622021208,83.07483955405638,-0.27490234375,-0.15576171875,1.11865234375,-3.41796875,-9.765625,-36.9873046875,0.0,0.0,0.0,0.00587062444537878,0.04733497276902199,-0.6615584492683411,0.7483751177787781
5.021301507949829,3.223727412058016,4.376474019650112,83.69640042890589,-0.10791015625,-0.08984375,1.0849609375,6.7138671875,-8.9111328125,-25.390625,0.0,0.0,0.0,0.004525685682892799,0.04718416556715965,-0.6656090021133423,0.7447938919067383
5.039927244186401,3.162921439528566,4.389853933347344,84.03929641580804,-0.07421875,-0.0751953125,1.0732421875,10.68115234375,1.52587890625,-13.916015625,0.0,0.0,0.0,0.005139169283211231,0.04690259322524071,-0.6678542494773865,0.7427951693534851
5.06066370010376,2.987012692219238,4.373546856703938,84.22872488224917,-0.1142578125,0.03271484375,0.861328125,-4.2724609375,0.8544921875,-10.498046875,0.0,0.0,0.0,0.006259817164391279,0.04576151818037033,-0.6691588163375854,0.741682767868042
5.080203056335449,2.8466266915660885,4.422105659721321,84.46184606881089,-0.0478515625,-0.025390625,1.09033203125,4.08935546875,19.47021484375,-11.90185546875,0.0,0.0,0.0,0.007544681895524263,0.04524019733071327,-0.670703113079071,0.7403064966201782
5.099708795547485,2.650412005297724,4.706260312214069,84.81066382972342,-0.24072265625,0.017578125,0.99072265625,0.91552734375,4.33349609375,-21.484375,0.0,0.0,0.0,0.010618627071380615,0.045892179012298584,-0.6729210615158081,0.7382130026817322
5.120506048202515,2.5846927788775074,4.904645291091205,85.39636621143036,-0.15771484375,0.04345703125,0.9140625,0.3662109375,8.60595703125,-36.07177734375,0.0,0.0,0.0,0.012448325753211975,0.046719007194042206,-0.6766337156295776,0.7347307801246643
5.139754056930542,2.472891333344273,5.256055108793776,86.30952152232605,-0.068359375,0.056640625,0.91650390625,-2.86865234375,20.3857421875,-52.06298828125,0.0,0.0,0.0,0.01562884822487831,0.04818486049771309,-0.6823710799217224,0.7292488217353821
5.155830144882202,2.56631914312335,5.196490309702564,87.44226741503765,-0.36572265625,0.02685546875,0.9111328125,-0.54931640625,-22.03369140625,-58.41064453125,0.0,0.0,0.0,0.015156170353293419,0.048215385526418686,-0.689531683921814,0.7224898338317871
5.179648160934448,2.6057820551569795,5.174236699613016,88.61160946132216,-0.1259765625,-0.01123046875,1.12890625,-5.31005859375,3.662109375,-56.640625,0.0,0.0,0.0,0.015265388414263725,0.04815954342484474,-0.6968609690666199,0.7154247760772705
5.19968843460083,2.5992963636532296,5.1811322024669675,89.68886689721657,-0.150390625,0.00439453125,1.03466796875,-3.173828125,-3.11279296875,-52.3681640625,0.0,0.0,0.0,0.015799999237060547,0.048016659915447235,-0.7035555243492126,0.7088401317596436
5.215984106063843,2.6903713867066488,5.183188089407142,90.58138820662965,-0.22119140625,-0.03759765625,1.0498046875,0.9765625,-10.31494140625,-39.24560546875,0.0,0.0,0.0,0.015627240762114525,0.04846825823187828,-0.7090159058570862,0.7033513784408569
5.239761829376221,2.5880052071815522,5.243445298925463,91.16653734301381,-0.11572265625,-0.0478515625,1.09130859375,9.46044921875,-6.103515625,-26.18408203125,0.0,0.0,0.0,0.01687508448958397,0.04811839759349823,-0.7126157879829407,0.6996989846229553
5.259652853012085,2.4611826815595785,5.215362976152956,91.60281567624838,-0.05615234375,0.0693359375,0.88720703125,-3.84521484375,9.46044921875,-22.3388671875,0.0,0.0,0.0,0.01765388622879982,0.04709169268608093,-0.7153390049934387,0.6969655752182007
5.2808678150177,2.2766770739627313,5.427537253190701,92.14851363998655,-0.09912109375,0.00732421875,1.11083984375,12.3291015625,13.85498046875,-31.3720703125,0.0,0.0,0.0,0.020327670499682426,0.04713153466582298,-0.7186372876167297,0.6934882998466492
5.299703121185303,2.0987030482031206,5.672297935871755,92.94069947049213,-0.2490234375,0.07568359375,0.96826171875,4.94384765625,7.9345703125,-45.22705078125,0.0,0.0,0.0,0.023270132020115852,0.04733402281999588,-0.723384439945221,0.6884279847145081
5.320180416107178,2.137193085166847,5.940930129702002,94.02385135964028,-0.154296875,0.10791015625,0.8291015625,-6.103515625,14.34326171875,-58.4716796875,0.0,0.0,0.0,0.025201408192515373,0.04895158112049103,-0.7297267913818359,0.6815184354782104
5.334780693054199,2.0935227766044893,6.240363061594422,95.39318134482276,-0.15869140625,0.04150390625,1.04345703125,2.99072265625,11.77978515625,-75.1953125,0.0,0.0,0.0,0.027972158044576645,0.05011983588337898,-0.7377021312713623,0.6726821660995483
5.3596861362457275,2.093903132763894,6.355282701927179,97.06520482345272,-0.3369140625,0.06396484375,1.078125,4.21142578125,-9.1552734375,-87.7685546875,0.0,0.0,0.0,0.029449153691530228,0.050371069461107254,-0.7473849654197693,0.6618242263793945
5.37527322769165,2.125608230560859,6.209639590047235,98.85478268788776,-0.3369140625,0.0244140625,0.9609375,5.06591796875,-6.9580078125,-90.4541015625,0.0,0.0,0.0,0.029087677597999573,0.04929036647081375,-0.7576834559440613,0.6501078009605408
5.400280237197876,2.3794020518626655,6.378989861649471,100.53729050689368,-0.30908203125,0.017578125,0.92919921875,-9.46044921875,-2.74658203125,-79.833984375,0.0,0.0,0.0,0.029528779909014702,0.051498621702194214,-0.7669547200202942,0.6389495134353638
5.419775485992432,2.5386353192002304,6.4076207339896945,102.01752910381884,-0.318359375,-0.06201171875,1.13671875,4.638671875,-7.01904296875,-69.82421875,0.0,0.0,0.0,0.02951151877641678,0.05234665423631668,-0.7750580310821533,0.6290261149406433
5.440970420837402,2.588696123504781,6.272455986070197,103.29105885570274,-0.20458984375,-0.01806640625,1.0185546875,3.23486328125,-6.53076171875,-58.41064453125,0.0,0.0,0.0,0.028896184638142586,0.05162759870290756,-0.7820456624031067,0.6204065084457397
5.460426568984985,2.483305023951015,6.165482843949927,104.2560143212638,-0.1669921875,-0.0400390625,1.005859375,11.29150390625,-14.95361328125,-39.6728515625,0.0,0.0,0.0,0.02915809489786625,0.05008714646100998,-0.7873414754867554,0.6137869358062744
5.479636907577515,2.2972220695427183,6.059615765588375,104.86496666690546,-0.10009765625,0.0068359375,1.02294921875,3.60107421875,-7.32421875,-26.3671875,0.0,0.0,0.0,0.029682012274861336,0.048086017370224,-0.7907224297523499,0.6095611453056335
5.49959659576416,2.133051642652292,5.882622085418073,105.28067930054911,-0.03515625,0.01904296875,0.9755859375,1.40380859375,1.40380859375,-19.10400390625,0.0,0.0,0.0,0.029498688876628876,0.045907337218523026,-0.7930778861045837,0.6066712141036987
5.5223166942596436,2.0105682081439804,5.829327399984932,105.56528645307438,-0.107421875,0.01904296875,0.86572265625,-2.74658203125,-2.0751953125,-12.6953125,0.0,0.0,0.0,0.029888875782489777,0.04470404237508774,-0.7946545481681824,0.6046753525733948
5.540488004684448,1.8810565089797258,5.795552968312866,105.7419629563351,-0.103515625,-0.015625,1.1611328125,7.99560546875,-2.5634765625,-10.009765625,0.0,0.0,0.0,0.03040495701134205,0.043581243604421616,-0.7956507205963135,0.6034204959869385
5.559470891952515,1.6031752785179287,5.685514778802552,105.90863323246175,-0.12646484375,0.03662109375,1.0146484375,2.44140625,-8.30078125,-9.521484375,0.0,0.0,0.0,0.03116287849843502,0.04102809727191925,-0.7966772317886353,0.602205216884613
5.580718040466309,1.4974580374312945,5.500205343317759,106.07397845188942,-0.16796875,0.03662109375,0.8271484375,-0.732421875,-18.61572265625,-9.33837890625,0.0,0.0,0.0,0.030485449358820915,0.039276979863643646,-0.7976585030555725,0.6010564565658569
5.599529266357422,1.3967434830248715,5.416389103804771,106.20008423453537,-0.0712890625,0.02099609375,0.9990234375,-3.60107421875,0.244140625,-5.0048828125,0.0,0.0,0.0,0.030471671372652054,0.03810345008969307,-0.7983868718147278,0.600165069103241
5.624946117401123,1.2301581573760223,5.412860457324813,106.2329647651998,-0.1689453125,0.0390625,0.9970703125,-4.94384765625,-11.53564453125,-0.9765625,0.0,0.0,0.0,0.031330108642578125,0.03691532835364342,-0.7986149191856384,0.5998915433883667
5.639793634414673,1.1104171505411768,5.344761336865671,106.24150933185149,-0.08056640625,0.02490234375,1.12109375,0.8544921875,-6.9580078125,-2.50244140625,0.0,0.0,0.0,0.03148464858531952,0.035722408443689346,-0.7987235188484192,0.5998111963272095
5.660012483596802,0.8748116961122909,5.059572337600488,106.25918586142348,-0.0361328125,0.01025390625,1.0869140625,12.0849609375,-6.7138671875,-0.244140625,0.0,0.0,0.0,0.030733687803149223,0.03258407860994339,-0.7989895343780518,0.5996744632720947
5.679754018783569,0.6207296728440216,4.691630047011902,106.17895845943251,-0.0126953125,0.05615234375,0.94921875,3.41796875,-15.13671875,8.7890625,0.0,0.0,0.0,0.029476238414645195,0.028908859938383102,-0.7987594604492188,0.6002323627471924
5.6997010707855225,0.5100710033362946,4.28362869694119,105.81301741427073,0.14599609375,0.025390625,0.92529296875,-1.28173828125,-7.2021484375,22.705078125,0.0,0.0,0.0,0.02712765708565712,0.026088111102581024,-0.796986997127533,0.6028227210044861
5.720269680023193,0.6364656282789376,3.9886537441426726,105.14351544163692,0.12451171875,-0.0654296875,0.90869140625,-9.033203125,-8.7890625,39.48974609375,0.0,0.0,0.0,0.024261604994535446,0.025558294728398323,-0.7935044169425964,0.6075433492660522
5.740585803985596,0.7384882172722709,3.518966394356637,104.23514126316024,0.14208984375,-0.15380859375,1.125,0.1220703125,-15.380859375,53.03955078125,0.0,0.0,0.0,0.020277950912714005,0.02393721044063568,-0.7887624502182007,0.6138972043991089
5.762670278549194,0.8573239038769724,3.0893792986311577,103.01711362847186,0.16357421875,-0.12109375,0.9423828125,-6.7138671875,-17.27294921875,65.85693359375,0.0,0.0,0.0,0.01644364558160305,0.022630935534834862,-0.782269299030304,0.6223118901252747
5.780582666397095,0.9766516309061793,2.4921257863772635,101.53186850288509,0.1640625,-0.171875,0.9326171875,-3.84521484375,-20.6298828125,79.65087890625,0.0,0.0,0.0,0.011453993618488312,0.020353667438030243,-0.7742400765419006,0.6324610710144043
5.799908638000488,1.1730016402974748,2.221405902538519,99.7691332818882,0.291015625,-0.13330078125,0.970703125,-10.80322265625,0.30517578125,91.49169921875,0.0,0.0,0.0,0.008229014463722706,0.020315801724791527,-0.7644363045692444,0.6443265676498413
5.820584058761597,1.3350800015894675,2.091581722219736,97.8273719725561,0.17578125,-0.25048828125,1.07568359375,-0.732421875,-14.22119140625,99.54833984375,0.0,0.0,0.0,0.006100195925682783,0.020773734897375107,-0.7534039616584778,0.6572014689445496
5.839948415756226,1.3461942134729592,1.5330726714761507,95.73099567098242,0.24365234375,-0.2529296875,1.10791015625,3.35693359375,-17.9443359375,108.0322265625,0.0,0.0,0.0,0.00203983043320477,0.01768527738749981,-0.7413490414619446,0.6708834767341614
5.859752893447876,1.3554881799426424,1.6113374612977998,93.4431896575408,0.35595703125,-0.1396484375,0.9072265625,-3.173828125,16.29638671875,118.408203125,0.0,0.0,0.0,0.002127991756424308,0.01824956387281418,-0.7277942895889282,0.6855494379997253
5.880228281021118,1.4718469624778623,1.3667394224963574,90.94538947806714,0.14501953125,-0.2451171875,0.96142578125,-5.9814453125,-15.68603515625,125.6103515625,0.0,0.0,0.0,-0.000504070136230439,0.017518943175673485,-0.7126994132995605,0.7012506723403931
5.899704933166504,1.624632211073818,1.117639648701642,88.2984179671204,0.27392578125,-0.2578125,0.99755859375,-6.103515625,-14.0380859375,131.65283203125,0.0,0.0,0.0,-0.003379367059096694,0.016871722415089607,-0.6963269710540771,0.7175184488296509
5.919661521911621,1.7605378210748508,0.7771225953430663,85.5022273133764,0.22412109375,-0.2548828125,0.9404296875,-2.44140625,-19.83642578125,139.34326171875,0.0,0.0,0.0,-0.006678000558167696,0.015407606028020382,-0.6786428093910217,0.7342764735221863
5.939606666564941,1.8191124561798222,0.4479369859001002,82.55776691312974,0.34375,-0.291015625,1.04736328125,0.9765625,-7.26318359375,148.62060546875,0.0,0.0,0.0,-0.009350876323878765,0.013409702107310295,-0.659589946269989,0.7514477968215942
5.9596266746521,1.825723865852983,0.40229955617635266,79.50408495786542,0.41845703125,-0.2890625,1.150390625,3.0517578125,8.1787109375,155.1513671875,0.0,0.0,0.0,-0.010003873147070408,0.012886536307632923,-0.6393383145332336,0.7687524557113647
5.980058193206787,1.8244306122223235,0.34877472538469484,76.32929008823844,0.228515625,-0.2548828125,0.88671875,2.38037109375,-22.39990234375,159.1796875,0.0,0.0,0.0,-0.010636748746037483,0.01223030872642994,-0.6178040504455566,0.7861650586128235
5.999910354614258,1.749755620418045,0.1651714231298036,73.05923457025727,0.35400390625,-0.28955078125,0.9833984375,14.16015625,-1.28173828125,166.19873046875,0.0,0.0,0.0,-0.011411433108150959,0.010246720165014267,-0.5951505303382874,0.8034679293632507
6.019681215286255,1.8265556548278437,-0.4322418515176456,69.57662356530533,0.26708984375,-0.19287109375,0.79150390625,-8.11767578125,-17.15087890625,178.64990234375,0.0,0.0,0.0,-0.01524191815406084,0.005996454041451216,-0.5705188512802124,0.8211212158203125
6.035094738006592,2.0015948336784644,-0.680810311300128,65.99177828885662,0.47705078125,-0.3310546875,1.13671875,2.50244140625,-0.67138671875,182.4951171875,0.0,0.0,0.0,-0.017883848398923874,0.004529478494077921,-0.5445732474327087,0.8385103344917297
6.0594916343688965,2.001629198067726,-0.5824085763405477,62.29958975941201,0.37646484375,-0.31103515625,1.04638671875,10.8642578125,-14.22119140625,184.38720703125,0.0,0.0,0.0,-0.017576688900589943,0.0046859788708388805,-0.517267644405365,0.8556303977966309
6.079715251922607,1.966350844117787,-0.8775533233729635,58.52584194108826,0.41748046875,-0.2939453125,1.021484375,6.2255859375,1.5869140625,193.05419921875,0.0,0.0,0.0,-0.01871148869395256,0.001707521383650601,-0.4888463318347931,0.8721675872802734
6.099813938140869,1.9818308275413863,-1.1599448799253491,54.66840722995893,0.29296875,-0.2744140625,0.8515625,6.04248046875,-29.96826171875,193.29833984375,0.0,0.0,0.0,-0.020009353756904602,-0.0010500987991690636,-0.4592432677745819,0.8880845308303833
6.119876384735107,2.0888551960804316,-1.7852911736789174,50.69995803915481,0.3466796875,-0.28466796875,0.859375,7.62939453125,-15.93017578125,200.1953125,0.0,0.0,0.0,-0.023139508441090584,-0.0062733544036746025,-0.4282798767089844,0.9033280611038208
6.1396589279174805,2.1960183028369933,-1.6966994579973265,46.55213783546239,0.47998046875,-0.34375,1.0205078125,11.29150390625,-0.1220703125,208.31298828125,0.0,0.0,0.0,-0.0234508216381073,-0.0060268850065767765,-0.39530661702156067,0.9182300567626953
6.159767150878906,2.2003149187117543,-2.1580535501091234,42.40081374472575,0.45849609375,-0.3740234375,1.12841796875,10.498046875,-22.705078125,209.53369140625,0.0,0.0,0.0,-0.02470635622739792,-0.010611575096845627,-0.3618375062942505,0.9318533539772034
6.179914474487305,2.274114045476684,-2.2257178863389124,38.18206544159734,0.501953125,-0.2939453125,0.96142578125,8.85009765625,-13.3056640625,212.40234375,0.0,0.0,0.0,-0.02510017156600952,-0.01186083909124136,-0.3273080885410309,0.9445098638534546
6.20011305809021,2.472989944200415,-2.615030771623412,33.79235408844892,0.29150390625,-0.2548828125,0.68310546875,-1.03759765625,-12.02392578125,225.52490234375,0.0,0.0,0.0,-0.027272723615169525,-0.015558258630335331,-0.2909661829471588,0.9562179446220398
6.2196362018585205,2.7754527053199705,-2.3494663999475573,29.343308881980594,0.58935546875,-0.46533203125,1.13525390625,7.8125,15.625,221.19140625,0.0,0.0,0.0,-0.02861451730132103,-0.013694580644369125,-0.25363218784332275,0.966780424118042
6.241233825683594,2.7104794636231664,-2.5303242596407944,24.98262754035202,0.44921875,-0.41650390625,1.05419921875,19.287109375,-30.33447265625,214.53857421875,0.0,0.0,0.0,-0.027859974652528763,-0.016436466947197914,-0.21668823063373566,0.9757047891616821
6.259965658187866,2.6533494135276525,-2.884542138865887,20.59440175334808,0.568359375,-0.27099609375,0.89892578125,11.8408203125,-12.20703125,220.03173828125,0.0,0.0,0.0,-0.027270637452602386,-0.020620349794626236,-0.179222971200943,0.983214259147644
6.284507751464844,3.0285769546397043,-3.0175758677643407,15.067870299648153,0.50048828125,-0.302734375,0.81201171875,1.220703125,-21.6064453125,217.71240234375,0.0,0.0,0.0,-0.0296400785446167,-0.022630225867033005,-0.131711944937706,0.9905863404273987
6.300069808959961,3.2419860018133413,-3.1283973945950905,11.855570007514979,0.673828125,-0.43017578125,1.107421875,6.9580078125,-12.02392578125,212.158203125,0.0,0.0,0.0,-0.030944116413593292,-0.024219859391450882,-0.10396313667297363,0.9938045740127563
6.317748785018921,3.3562612564865897,-3.1570184485383823,6.667588832857781,0.66064453125,-0.36376953125,1.08251953125,12.5732421875,-19.71435546875,202.69775390625,0.0,0.0,0.0,-0.03082529827952385,-0.025785941630601883,-0.058911196887493134,0.9974539279937744
6.340829849243164,3.309828563291785,-3.3385546313935666,3.6199861728415947,0.6455078125,-0.3486328125,1.02197265625,12.75634765625,-5.43212890625,203.0029296875,0.0,0.0,0.0,-0.029772724956274033,-0.028191804885864258,-0.032399363815784454,0.998633623123169
6.36010479927063,3.620825859222683,-3.155076326936572,-0.5214570887652645,0.47802734375,-0.18408203125,0.65234375,-9.70458984375,-4.2724609375,207.763671875,0.0,0.0,0.0,-0.031454890966415405,-0.02765943668782711,0.003676838241517544,0.9991157054901123
6.379741907119751,3.9404949340785587,-3.3828475543874528,-4.601396844773687,0.529296875,-0.376953125,0.95068359375,3.47900390625,-22.52197265625,201.171875,0.0,0.0,0.0,-0.033153630793094635,-0.0308549664914608,0.03908877819776535,0.9982088804244995
6.40047287940979,4.038562790181602,-3.4594882532905196,-8.54375385917472,0.791015625,-0.3916015625,1.169921875,15.44189453125,-3.41796875,193.9697265625,0.0,0.0,0.0,-0.03287483751773834,-0.032706085592508316,0.07334843277931213,0.9962276816368103
6.419741153717041,4.017162953738306,-3.098517024523577,-12.329339249103743,0.71826171875,-0.314453125,1.05810546875,15.31982421875,3.23486328125,188.29345703125,0.0,0.0,0.0,-0.03193221241235733,-0.03062593564391136,0.1063389778137207,0.9933450818061829
6.4398276805877686,4.073833887055548,-3.086592794893204,-16.06314668248219,0.55908203125,-0.291015625,0.884765625,1.15966796875,3.90625,187.01171875,0.0,0.0,0.0,-0.03142143413424492,-0.03161559998989105,0.13863195478916168,0.9893404841423035
6.460774898529053,4.351578833899062,-2.8380454126476136,-19.744126871498825,0.52197265625,-0.2353515625,0.7470703125,-6.7138671875,-3.5400390625,180.7861328125,0.0,0.0,0.0,-0.03314922749996185,-0.030886966735124588,0.17034634947776794,0.9843420386314392
6.4754462242126465,4.475716241403575,-3.051057241632332,-23.078492035610235,0.65283203125,-0.34228515625,1.041015625,14.892578125,-12.26806640625,158.99658203125,0.0,0.0,0.0,-0.03292381018400192,-0.033872734755277634,0.19879715144634247,0.9789016246795654
6.50029444694519,4.365952540120531,-2.9858007605283836,-25.99767219819137,0.810546875,-0.2939453125,1.14697265625,14.22119140625,2.8076171875,139.892578125,0.0,0.0,0.0,-0.031246313825249672,-0.03393195942044258,0.22372478246688843,0.9735602736473083
6.5196213722229,4.272702101816463,-2.8423454436169595,-28.60540939499827,0.68994140625,-0.21875,1.05126953125,10.1318359375,1.03759765625,123.84033203125,0.0,0.0,0.0,-0.029988305643200874,-0.03322257846593857,0.2459011971950531,0.968261182308197
6.5400731563568115,4.13921245779091,-3.0451561716328523,-30.84065710277664,0.62353515625,-0.2158203125,1.0263671875,15.19775390625,-16.7236328125,103.21044921875,0.0,0.0,0.0,-0.027740711346268654,-0.03519678860902786,0.2647058665752411,0.963287353515625
6.560095310211182,3.986300743973603,-2.9782721845157374,-32.791936280717145,0.6435546875,-0.18017578125,0.95166015625,9.27734375,16.05224609375,93.81103515625,0.0,0.0,0.0,-0.026023251935839653,-0.03472968563437462,0.2811408042907715,0.9586848020553589
6.580286026000977,4.010410884856925,-2.767905986617341,-34.61466105319426,0.423828125,-0.109375,0.6962890625,-2.38037109375,-2.13623046875,88.56201171875,0.0,0.0,0.0,-0.026215476915240288,-0.03345099464058876,0.2964213192462921,0.9541112184524536
6.600180149078369,4.142656580679889,-3.317920416467546,-36.294689513531466,0.50341796875,-0.17431640625,0.904296875,-2.44140625,-21.8505859375,77.45361328125,0.0,0.0,0.0,-0.0253203883767128,-0.038744907826185226,0.3101334571838379,0.9495657086372375
6.619937181472778,4.226791704649752,-3.468401436713975,-37.663964857200604,0.7529296875,-0.13232421875,1.05224609375,4.08935546875,6.65283203125,60.9130859375,0.0,0.0,0.0,-0.025125253945589066,-0.04052174836397171,0.3213704526424408,0.9457525014877319
6.640428781509399,4.13189647141618,-3.4378681432464906,-38.679883779253714,0.62158203125,-0.150390625,1.02783203125,9.27734375,-7.8125,44.5556640625,0.0,0.0,0.0,-0.02407262846827507,-0.0402187779545784,0.3297877013683319,0.9428908228874207
6.659780263900757,4.040030427079508,-3.845828512182182,-39.49924010227762,0.5556640625,-0.09814453125,0.91796875,2.99072265625,-1.220703125,37.17041015625,0.0,0.0,0.0,-0.021825043484568596,-0.04346567392349243,0.3363971412181854,0.9404634237289429
6.680399656295776,4.078709361462468,-3.7432219953756656,-40.07165435095429,0.68701171875,-0.0498046875,1.02685546875,1.953125,10.25390625,23.62060546875,0.0,0.0,0.0,-0.022231921553611755,-0.04284941405057907,0.3411161005496979,0.9387809038162231
6.6997950077056885,4.050909210880047,-3.979402679798713,-40.33033410539018,0.54638671875,-0.048828125,0.96142578125,1.03759765625,-11.71875,6.89697265625,0.0,0.0,0.0,-0.021195610985159874,-0.044747788459062576,0.34315258264541626,0.9379737973213196
6.720393896102905,4.0032029008484455,-4.124190737371936,-40.25659196801614,0.63427734375,-0.0126953125,0.921875,2.685546875,13.97705078125,-10.07080078125,0.0,0.0,0.0,-0.020398084074258804,-0.045775871723890305,0.3425107002258301,0.9381763935089111
6.740066289901733,3.936811327681806,-3.9403890661464236,-39.83437699428263,0.556640625,0.03515625,0.8974609375,-1.953125,11.1083984375,-25.93994140625,0.0,0.0,0.0,-0.020569894462823868,-0.04399840906262398,0.3391490578651428,0.9394780993461609
6.759788990020752,3.948317208225516,-4.343258382829517,-39.07909467586262,0.48779296875,0.076171875,0.93505859375,-4.638671875,-18.98193359375,-46.875,0.0,0.0,0.0,-0.01977548748254776,-0.0472029447555542,0.3327886164188385,0.9416117668151855
6.779642581939697,3.843510943619432,-4.559871855940948,-37.84033400194867,0.7080078125,0.07177734375,1.14208984375,0.244140625,13.61083984375,-70.25146484375,0.0,0.0,0.0,-0.018805690109729767,-0.048476386815309525,0.3225494921207428,0.9451233148574829
6.800751447677612,3.7559987179918206,-4.652989105556201,-36.151077956042776,0.46533203125,0.11474609375,0.97314453125,-7.26318359375,2.62451171875,-90.88134765625,0.0,0.0,0.0,-0.018540093675255775,-0.04872934892773628,0.30858364701271057,0.9497672915458679
6.819645166397095,3.5650541629983556,-4.63120763229303,-34.10147478990535,0.30517578125,0.142578125,1.12109375,-0.3662109375,27.099609375,-104.8583984375,0.0,0.0,0.0,-0.01787297986447811,-0.047722671180963516,0.291635662317276,0.9551710486412048
6.839744806289673,3.1099462788825356,-4.314449071797227,-31.917118821632744,-0.0498046875,0.2392578125,1.10595703125,11.71875,16.90673828125,-108.642578125,0.0,0.0,0.0,-0.015726283192634583,-0.04363332316279411,0.2736639082431793,0.9607064127922058
6.860251188278198,2.5436296815873907,-3.8727945259122154,-29.71403447465596,-0.14794921875,0.2861328125,1.01025390625,11.71875,27.099609375,-106.0791015625,0.0,0.0,0.0,-0.0127793550491333,-0.038340236991643906,0.255473256111145,0.9659711718559265
6.8797385692596436,2.121398486154604,-3.475960962021298,-27.633905485570455,-0.2236328125,0.32373046875,0.97021484375,8.1787109375,12.02392578125,-101.1962890625,0.0,0.0,0.0,-0.010725793428719044,-0.033865105360746384,0.238124817609787,0.9705848097801208
6.899939060211182,1.811339487460936,-3.212550447811525,-25.549374439564875,-0.17333984375,0.357421875,0.9697265625,1.52587890625,12.451171875,-103.8818359375,0.0,0.0,0.0,-0.00921155046671629,-0.03082752227783203,0.22057107090950012,0.9748401045799255
6.919790029525757,1.4688819133261362,-3.033078689632977,-23.414388786160412,-0.16455078125,0.3203125,1.01171875,5.9814453125,5.92041015625,-106.99462890625,0.0,0.0,0.0,-0.007177331950515509,-0.02851283550262451,0.20249032974243164,0.9788427948951721
6.940554141998291,1.162786878950309,-2.893473891866148,-21.28586961435266,-0.18115234375,0.31103515625,0.92529296875,2.9296875,1.8310546875,-105.5908203125,0.0,0.0,0.0,-0.005306625738739967,-0.026685474440455437,0.18436770141124725,0.9824807047843933
6.959911584854126,0.848227799449808,-2.6825911609117696,-19.196238124584376,-0.16064453125,0.30615234375,0.99267578125,4.2724609375,8.72802734375,-102.11181640625,0.0,0.0,0.0,-0.003393659135326743,-0.024313440546393394,0.1665152758359909,0.9857333302497864
6.980501651763916,0.5152158433286067,-2.443642542327574,-17.186147602795472,-0.21630859375,0.32958984375,1.0048828125,4.33349609375,7.080078125,-97.96142578125,0.0,0.0,0.0,-0.0012586202938109636,-0.021755244582891464,0.14928553998470306,0.9885540008544922
7.000072717666626,0.2558676108081253,-2.3019233741258027,-15.233095990765346,-0.2001953125,0.34716796875,1.037109375,2.0751953125,4.638671875,-96.3134765625,0.0,0.0,0.0,0.000449623039457947,-0.020205341279506683,0.13247114419937134,0.990980863571167
7.02094292640686,0.0076175552348418385,-2.0836458961778277,-13.336946684710595,-0.181640625,0.31103515625,1.03515625,5.43212890625,4.8828125,-93.07861328125,0.0,0.0,0.0,0.002045383444055915,-0.018066948279738426,0.11610383540391922,0.993070662021637
7.039792537689209,-0.27540128482370063,-1.8970886705090382,-11.573204864584774,-0.2451171875,0.31982421875,1.005859375,4.94384765625,-0.79345703125,-85.63232421875,0.0,0.0,0.0,0.004059829283505678,-0.016227781772613525,0.10084912925958633,0.9947611689567566
7.060196161270142,-0.45639788273445353,-1.7699583594875907,-9.931381067370035,-0.2216796875,0.3544921875,1.00341796875,-1.5869140625,1.40380859375,-79.833984375,0.0,0.0,0.0,0.005304302088916302,-0.015042384155094624,0.08660946041345596,0.9961147308349609
7.0798187255859375,-0.6355337343440539,-1.6618659201170847,-8.391018022728542,-0.20068359375,0.310546875,1.0419921875,0.9765625,-1.3427734375,-75.0732421875,0.0,0.0,0.0,0.006591556593775749,-0.014057217165827751,0.07323141396045685,0.9971941113471985
7.099766731262207,-0.871492597701635,-1.5422725094013348,-6.984912164620581,-0.19091796875,0.28515625,0.98291015625,5.126953125,0.54931640625,-67.2607421875,0.0,0.0,0.0,0.00841014925390482,-0.012969836592674255,0.06101199984550476,0.9980173707008362
7.119978427886963,-1.125855619221227,-1.4096861578935167,-5.751920866121178,-0.20263671875,0.31640625,0.97265625,3.5400390625,-0.18310546875,-58.837890625,0.0,0.0,0.0,0.010428853332996368,-0.01179252378642559,0.05028839036822319,0.9986107349395752
7.140324354171753,-1.2871970671347988,-1.3097806607386229,-4.659632318297684,-0.17529296875,0.36083984375,1.02685546875,-3.0517578125,-0.30517578125,-51.45263671875,0.0,0.0,0.0,0.011687268503010273,-0.010962976142764091,0.04077481850981712,0.999039888381958
7.159849405288696,-1.4280356745421674,-1.1947550457520248,-3.6892289230998916,-0.15673828125,0.32861328125,1.068359375,0.48828125,-1.89208984375,-46.5087890625,0.0,0.0,0.0,0.012790082022547722,-0.010018697939813137,0.032314643263816833,0.9993456602096558
7.17978835105896,-1.662517669574292,-1.1556441019040624,-2.829627417938984,-0.1318359375,0.29736328125,1.01953125,5.4931640625,-3.662109375,-41.015625,0.0,0.0,0.0,0.01475150603801012,-0.00972240511327982,0.024833057075738907,0.9995355010032654
7.200573205947876,-1.9011146401379375,-1.1172819175438626,-2.0591223154063085,-0.07275390625,0.30419921875,0.9140625,1.52587890625,-1.64794921875,-36.31591796875,0.0,0.0,0.0,0.01676129177212715,-0.00944898184388876,0.018126657232642174,0.9996505975723267
7.22048544883728,-2.1136660716839146,-1.0653609539075415,-1.3739142160543385,-0.03857421875,0.2998046875,1.00048828125,1.708984375,-1.46484375,-32.40966796875,0.0,0.0,0.0,0.018553491681814194,-0.009073520079255104,0.012158279307186604,0.9997128248214722
7.234869480133057,-2.335693110042815,-1.0296541123088898,-0.7623055137949285,-0.0048828125,0.30517578125,1.0732421875,1.708984375,-1.0986328125,-29.47998046875,0.0,0.0,0.0,0.020439844578504562,-0.00884766411036253,0.0068338001146912575,0.9997285604476929
7.259972810745239,-2.5222371022200876,-0.9726540492510178,-0.21311831056666172,-0.01318359375,0.3037109375,1.001953125,-1.89208984375,0.91552734375,-25.390625,0.0,0.0,0.0,0.022023843601346016,-0.00844490434974432,0.0020460986997932196,0.9997196793556213
7.285864591598511,-2.7585667701444065,-0.8573413528758678,0.4677623036571498,-0.076171875,0.2822265625,0.98828125,-0.30517578125,-0.54931640625,-19.8974609375,0.0,0.0,0.0,0.02403930388391018,-0.007577667944133282,-0.003900600830093026,0.9996747374534607
7.304595470428467,-2.882638223634746,-0.8052834652910288,0.7339958204282537,-0.07470703125,0.2666015625,0.98681640625,-0.6103515625,-0.6103515625,-16.4794921875,0.0,0.0,0.0,0.025106975808739662,-0.007186106871813536,-0.00622633658349514,0.9996395707130432
7.319770336151123,-3.004729135709193,-0.7588711559420286,0.965676904292144,-0.04296875,0.25732421875,0.9912109375,-1.220703125,-0.67138671875,-14.5263671875,0.0,0.0,0.0,0.02616090700030327,-0.006840776186436415,-0.00825031939893961,0.999600350856781
7.342336654663086,-3.2184207819597392,-0.7285327363093013,1.2934866041433226,-0.01318359375,0.23046875,1.03173828125,-0.244140625,-1.40380859375,-11.77978515625,0.0,0.0,0.0,0.0280082356184721,-0.006671666633337736,-0.01110435463488102,0.9995237588882446
7.360152244567871,-3.347329503486329,-0.6987728016827623,1.4558651735936787,-0.01611328125,0.21923828125,1.0107421875,-0.48828125,0.79345703125,-10.19287109375,0.0,0.0,0.0,0.029126465320587158,-0.006465862039476633,-0.012520737014710903,0.999476432800293
7.380403995513916,-3.5136905001096252,-0.6602252950804731,1.6285649059318643,-0.03125,0.2041015625,1.00146484375,-1.220703125,-1.5869140625,-7.568359375,0.0,0.0,0.0,0.03057248145341873,-0.006193916313350201,-0.014027896337211132,0.9994149804115295
7.399812459945679,-3.686246264866712,-0.6078453213875858,1.7540009031523254,-0.01953125,0.181640625,0.99658203125,-1.03759765625,-0.3662109375,-5.79833984375,0.0,0.0,0.0,0.03207765147089958,-0.005793339107185602,-0.015127226710319519,0.9993541240692139
7.419811964035034,-3.8592959376781546,-0.5584368535096244,1.8503904537102493,-0.0322265625,0.1845703125,1.01904296875,0.79345703125,-1.708984375,-4.21142578125,0.0,0.0,0.0,0.03358890861272812,-0.005413563456386328,-0.01597357913851738,0.9992934465408325
7.439639568328857,-3.962281529983607,-0.5200122369515424,1.9300509500001082,0.01806640625,0.09326171875,0.95654296875,-5.79833984375,1.3427734375,-5.2490234375,0.0,0.0,0.0,0.034488897770643234,-0.005116824992001057,-0.016674978658556938,0.9992528557777405
7.460161924362183,-3.5393698769547575,-0.39971040755281534,1.9898925851961171,-0.06591796875,-0.1181640625,0.93505859375,-15.19775390625,9.8876953125,-1.708984375,0.0,0.0,0.0,0.03081653267145157,-0.004022171255201101,-0.0172481220215559,0.9993682503700256
7.4797937870025635,-3.250777309048794,-0.2677041685571987,2.091232742241831,-0.06591796875,-0.01123046875,1.14990234375,1.77001953125,-3.0517578125,-6.89697265625,0.0,0.0,0.0,0.02831716276705265,-0.0028524361550807953,-0.01817478984594345,0.9994297027587891
7.49976658821106,-3.182711272318443,-0.12726670136143603,2.1670971474570435,-0.0771484375,-0.04296875,0.94384765625,-7.99560546875,-4.33349609375,-3.173828125,0.0,0.0,0.0,0.027744846418499947,-0.0016351401573047042,-0.01887221820652485,0.9994356036186218
7.5197508335113525,-2.706906634357015,-0.112848225384392,2.208532916943749,-0.0380859375,-0.26611328125,0.92529296875,-13.97705078125,-2.3193359375,-2.38037109375,0.0,0.0,0.0,0.02359664812684059,-0.0014395311009138823,-0.01924324966967106,0.999535322189331
7.539780378341675,-2.4676899308478966,-0.1626773235254779,2.293623413623768,-0.0009765625,-0.0361328125,1.18212890625,3.7841796875,-10.19287109375,-6.2255859375,0.0,0.0,0.0,0.021500250324606895,-0.001849980908446014,-0.01997908018529415,0.9995675086975098
7.559674024581909,-2.121307132374455,-0.11189990297692465,2.288460857828296,-0.05224609375,-0.2353515625,0.84765625,-8.6669921875,-0.3662109375,0.0,0.0,0.0,0.0,0.01848764158785343,-0.0013457961613312364,-0.019947756081819534,0.9996292591094971
7.579785108566284,-1.6560567375062831,-0.16127586742536912,2.3293113654804958,-0.037109375,-0.32177734375,0.96044921875,-18.73779296875,6.65283203125,1.52587890625,0.0,0.0,0.0,0.014419713988900185,-0.0017006916459649801,-0.02030319720506668,0.9996885061264038
7.59970235824585,-1.3018891242046136,-0.19336370927990557,2.370064756380435,-0.01953125,-0.34423828125,1.08349609375,-2.99072265625,-0.42724609375,-0.67138671875,0.0,0.0,0.0,0.011323539540171623,-0.0019219027599319816,-0.02066071145236492,0.9997206330299377
7.621045351028442,-1.0582555294583182,-0.16945991481471212,2.3774496849770994,-0.0283203125,-0.318359375,1.0185546875,-0.8544921875,-2.685546875,-1.8310546875,0.0,0.0,0.0,0.00920221395790577,-0.0016700184205546975,-0.020731110125780106,0.9997414350509644
7.639706373214722,-0.7881601810418069,-0.21059587634945107,2.390314132835407,-0.05517578125,-0.26904296875,0.94970703125,-5.37109375,-9.09423828125,-2.197265625,0.0,0.0,0.0,0.006838101428002119,-0.001980810659006238,-0.020844750106334686,0.9997573494911194
7.65992283821106,-0.48675775343004285,-0.2628989170326832,2.410421142534867,-0.03369140625,-0.29541015625,0.96826171875,-5.859375,-0.18310546875,-0.6103515625,0.0,0.0,0.0,0.004198544193059206,-0.002383039565756917,-0.021023351699113846,0.9997673630714417
7.679680347442627,-0.26487769754042995,-0.31389527049054045,2.4353135535215666,-0.05322265625,-0.3427734375,1.06884765625,-1.89208984375,-4.8828125,-1.0986328125,0.0,0.0,0.0,0.0022527510300278664,-0.002787743927910924,-0.021244054660201073,0.9997678995132446
7.700568675994873,-0.11946825283529464,-0.43288127461783515,2.480533888138694,-0.04248046875,-0.2919921875,0.99169921875,1.708984375,-6.65283203125,-2.50244140625,0.0,0.0,0.0,0.0009605390951037407,-0.003799271536991,-0.021640945225954056,0.9997581839561462
7.719968318939209,0.0624436637954127,-0.4547209112106567,2.545611503663752,0.02587890625,-0.275390625,1.00146484375,2.0751953125,0.6103515625,-4.21142578125,0.0,0.0,0.0,-0.0006329294410534203,-0.003955094609409571,-0.02221480756998062,0.99974524974823
7.736982822418213,0.1832572571238949,-0.38521618584509293,2.619349585612975,-0.0185546875,-0.2734375,1.01123046875,3.41796875,2.13623046875,-3.84521484375,0.0,0.0,0.0,-0.0016756276600062847,-0.003324204357340932,-0.022861359640955925,0.9997317790985107
7.755225896835327,0.3580386230137742,-0.3216838739393235,2.6985358106423414,-0.04443359375,-0.20849609375,0.86376953125,-1.5869140625,0.18310546875,-3.96728515625,0.0,0.0,0.0,-0.003189693670719862,-0.002732854103669524,-0.02355555072426796,0.9997137784957886
7.783812046051025,0.7127912847065375,-0.313358113464916,2.8308286774592606,0.037109375,-0.21044921875,1.05908203125,-3.41796875,0.91552734375,-6.89697265625,0.0,0.0,0.0,-0.006285861600190401,-0.00258002826012671,-0.024717560037970543,0.9996713995933533
7.8004090785980225,0.8552794361593172,-0.2428217627304158,2.915751834504614,0.01611328125,-0.205078125,1.08349609375,0.6103515625,7.080078125,-6.04248046875,0.0,0.0,0.0,-0.007515129633247852,-0.0019283833680674434,-0.02545703388750553,0.9996458292007446
7.815004348754883,1.0212323823405585,-0.12714054296498914,3.0437926951197887,-0.0595703125,-0.15673828125,1.02978515625,-0.54931640625,6.28662109375,-4.45556640625,0.0,0.0,0.0,-0.008938131853938103,-0.0008723862702026963,-0.026567790657281876,0.999606728553772
7.834904909133911,1.1467087203658048,-0.008609465955250969,3.14084562780085,-0.0791015625,-0.14501953125,1.0244140625,0.67138671875,5.18798828125,-3.23486328125,0.0,0.0,0.0,-0.010005054995417595,0.00019914151926059276,-0.027404997497797012,0.9995743036270142
7.859723806381226,1.2344596824492493,0.06854344961105721,3.1689230413748914,-0.17529296875,-0.12353515625,0.89306640625,-1.220703125,-4.08935546875,0.48828125,0.0,0.0,0.0,-0.010751824826002121,0.0008957560057751834,-0.027642494067549706,0.9995597004890442
7.8807244300842285,1.3904083758479788,0.11529383331365324,3.2245192871149144,-0.01220703125,-0.13330078125,1.0234375,3.23486328125,-0.67138671875,-5.06591796875,0.0,0.0,0.0,-0.012100188992917538,0.001347032724879682,-0.028121238574385643,0.9995303750038147
7.899768352508545,1.511673582084795,0.17331022051589526,3.3298034515194876,-0.00244140625,-0.095703125,1.0810546875,3.7841796875,3.72314453125,-5.9814453125,0.0,0.0,0.0,-0.01314193569123745,0.0018949094228446484,-0.02903142012655735,0.9994903802871704
7.91980504989624,1.6484041508715184,0.25770354431268355,3.3945145847068923,-0.11376953125,-0.08740234375,0.951171875,-0.67138671875,-8.85009765625,-2.685546875,0.0,0.0,0.0,-0.01431159395724535,0.0026737123262137175,-0.02958291955292225,0.9994563460350037
7.9404566287994385,1.7294165977302165,0.19077873614310698,3.428247608357116,-0.0634765625,-0.10546875,0.96875,4.08935546875,-10.43701171875,-1.77001953125,0.0,0.0,0.0,-0.015034864656627178,0.0021153471898287535,-0.029884077608585358,0.9994381070137024
7.955602169036865,1.8862933430824214,0.10904348985157755,3.4626926792283133,0.01318359375,-0.0439453125,0.9462890625,-1.8310546875,0.9765625,-1.40380859375,0.0,0.0,0.0,-0.01642400026321411,0.0014483359409496188,-0.030193330720067024,0.9994081258773804
7.976166486740112,2.0328519137545586,0.08466337640316166,3.4962009469661615,-0.044921875,-0.04443359375,0.9833984375,-4.7607421875,-3.2958984375,-0.67138671875,0.0,0.0,0.0,-0.017708253115415573,0.0012795033399015665,-0.030487466603517532,0.9993774890899658
7.997508525848389,2.1628688334739823,0.32706470230354484,3.498394504906793,-0.044921875,-0.07470703125,1.1123046875,5.859375,1.28173828125,0.54931640625,0.0,0.0,0.0,-0.01877749152481556,0.0034284365829080343,-0.030465103685855865,0.9993535876274109
8.021314859390259,2.0942809276023606,0.35826284531762104,3.4748047390608616,-0.10205078125,-0.04296875,1.03662109375,5.79833984375,-11.41357421875,1.3427734375,0.0,0.0,0.0,-0.0181717686355114,0.003678542096167803,-0.030256425961852074,0.9993702173233032
8.035021781921387,1.9333102308946737,0.34855191714344963,3.488015819019547,-0.0009765625,0.00244140625,1.0166015625,2.86865234375,-3.35693359375,-2.44140625,0.0,0.0,0.0,-0.01677006296813488,0.003553277114406228,-0.03037821501493454,0.9993915557861328
8.054857730865479,1.7830071157317828,0.14478054703317844,3.583255549919382,0.017578125,-0.01611328125,0.98388671875,-0.54931640625,0.244140625,-4.69970703125,0.0,0.0,0.0,-0.015511928126215935,0.0017491262406110764,-0.03124125301837921,0.9993900060653687
8.079758167266846,1.6624269561243776,0.08216043223746933,3.6839141821519754,0.04296875,-0.0205078125,0.95458984375,4.33349609375,11.16943359375,-4.82177734375,0.0,0.0,0.0,-0.014476357959210873,0.0011828293791040778,-0.03212888911366463,0.9993783235549927
8.100233793258667,1.4863992141131033,0.1087397265263905,3.7668399357519236,-0.02685546875,0.01220703125,0.9462890625,-2.74658203125,1.708984375,-3.90625,0.0,0.0,0.0,-0.01293271780014038,0.0013746418990194798,-0.032850880175828934,0.9993756413459778
8.12087631225586,1.3012686442072001,0.1872355888513761,3.8314688932258765,-0.0087890625,0.00341796875,1.0986328125,1.953125,-2.44140625,-4.2724609375,0.0,0.0,0.0,-0.011294486001133919,0.0020125280134379864,-0.03340889513492584,0.9993759989738464
8.135990381240845,1.0770722737348803,0.24794461805133694,3.9204803453763057,-0.03173828125,0.01123046875,1.06298828125,1.15966796875,2.25830078125,-3.96728515625,0.0,0.0,0.0,-0.00931955873966217,0.002483865711838007,-0.0341840535402298,0.9993690252304077
8.160092830657959,1.0000589026352247,0.403546305823718,3.9846525339495145,-0.099609375,0.01806640625,0.9375,-0.67138671875,-0.67138671875,-3.0517578125,0.0,0.0,0.0,-0.008599293418228626,0.003822735045105219,-0.03473338857293129,0.9993523955345154
8.18223786354065,0.8413951556805622,0.5512741195043965,4.080615411127724,-0.02392578125,0.0029296875,1.02685546875,3.41796875,-1.77001953125,-5.06591796875,0.0,0.0,0.0,-0.007166481111198664,0.0050689843483269215,-0.03556588664650917,0.9993288516998291
8.200385808944702,0.6585323153008091,0.5629656958161658,4.113553144626464,-0.05712890625,0.01953125,0.96533203125,-1.0986328125,-11.8408203125,2.685546875,0.0,0.0,0.0,-0.005566658917814493,0.005115783307701349,-0.0358605720102787,0.9993282556533813
8.215127944946289,0.5686965446949239,0.37924513308704727,3.8422187572058304,-0.02734375,-0.0048828125,0.99853515625,3.72314453125,-21.17919921875,18.37158203125,0.0,0.0,0.0,-0.004849030636250973,0.0034739996772259474,-0.03350638970732689,0.9994207620620728
8.235929250717163,0.4587446930445876,-0.1309578716590858,3.3102985656840467,0.09619140625,0.005859375,1.02099609375,6.2255859375,-10.6201171875,31.494140625,0.0,0.0,0.0,-0.004034627694636583,-0.0010267064208164811,-0.02888810820877552,0.9995740652084351
8.260589122772217,0.30579543986727226,-0.5082407794429957,2.5058341894848906,0.05126953125,0.06201171875,0.9384765625,-0.48828125,-15.7470703125,46.08154296875,0.0,0.0,0.0,-0.002764880657196045,-0.004375797230750322,-0.02187732607126236,0.9997472763061523
8.279789447784424,0.2020047123329783,-0.8170379540483563,1.4302262442750375,0.12548828125,0.05908203125,1.02783203125,0.1220703125,-3.173828125,58.16650390625,0.0,0.0,0.0,-0.001851627486757934,-0.0071073733270168304,-0.012492985464632511,0.9998950362205505
8.299834728240967,0.07114914676909724,-1.0918080867040654,0.13722131521054615,0.10986328125,0.017578125,1.0849609375,6.9580078125,-3.662109375,68.90869140625,0.0,0.0,0.0,-0.0006322739063762128,-0.009526926092803478,-0.0012033426901325583,0.9999537467956543
8.315478324890137,-0.1707981383041454,-1.4317654914375233,-1.3066800750205543,0.0380859375,0.09765625,0.96875,4.150390625,-20.5078125,73.8525390625,0.0,0.0,0.0,0.001632748288102448,-0.012476366013288498,0.011420407332479954,0.9998555779457092
8.339857339859009,-0.0898270661167574,-1.9536810566508251,-2.7436310674202926,0.16796875,0.1005859375,0.9638671875,-19.34814453125,-16.17431640625,70.1904296875,0.0,0.0,0.0,0.0011916924268007278,-0.017024600878357887,0.023950282484292984,0.9995675086975098
8.355067253112793,0.2483504806984238,-2.308916420618838,-4.12572496861425,0.37353515625,-0.14208984375,1.0654296875,-9.033203125,-5.18798828125,67.138671875,0.0,0.0,0.0,-0.0014401857042685151,-0.020212624222040176,0.03594493493437767,0.9991483688354492
8.380258083343506,0.38549785110707663,-2.3872042623289356,-5.499295220610855,0.3076171875,-0.15771484375,0.970703125,5.126953125,7.62939453125,69.2138671875,0.0,0.0,0.0,-0.002360206563025713,-0.02096802555024624,0.04789131134748459,0.998629629611969
8.39982557296753,0.6025216158163841,-2.428568741716179,-6.9086112676287215,0.1787109375,-0.05029296875,0.82275390625,-10.6201171875,10.07080078125,70.556640625,0.0,0.0,0.0,-0.0039704036898911,-0.021469613537192345,0.060126904398202896,0.9979519248008728
8.42345929145813,1.3368006756517816,-2.386985269388672,-8.798888745431377,0.09033203125,-0.3046875,1.14990234375,-7.4462890625,-11.3525390625,76.11083984375,0.0,0.0,0.0,-0.010030964389443398,-0.021660741418600082,0.07644522935152054,0.9967880845069885
8.439876317977905,1.599576195712155,-2.4993738977471165,-9.990044708377628,0.10302734375,-0.345703125,1.14404296875,-4.82177734375,-4.69970703125,79.77294921875,0.0,0.0,0.0,-0.012003419920802116,-0.022939544171094894,0.08673673868179321,0.9958947896957397
8.45980453491211,1.8367693489579515,-2.7143880393757063,-11.612888263662548,0.076171875,-0.25390625,0.88818359375,0.6103515625,-16.66259765625,82.82470703125,0.0,0.0,0.0,-0.013545552268624306,-0.02518182434141636,0.10074913501739502,0.9945008754730225
8.479960203170776,2.1291402921354017,-3.0658591153373957,-13.349477520516631,0.068359375,-0.24658203125,0.84912109375,-1.46484375,-17.9443359375,88.80615234375,0.0,0.0,0.0,-0.015337787568569183,-0.02872430719435215,0.11567754298448563,0.9927529096603394
8.500277280807495,2.5523612246676057,-3.146004768501737,-15.297209268956962,0.16796875,-0.26123046875,0.94580078125,-5.126953125,-5.615234375,98.876953125,0.0,0.0,0.0,-0.018412547186017036,-0.030162828043103218,0.13240809738636017,0.9905651807785034
8.519750356674194,2.9082947620348407,-3.2347244435085596,-17.350444388185544,0.20263671875,-0.31982421875,1.12890625,-4.33349609375,-4.45556640625,103.57666015625,0.0,0.0,0.0,-0.020820776000618935,-0.03171881288290024,0.15001662075519562,0.9879551529884338
8.539708614349365,3.1280819252328005,-3.4367896136878633,-19.494732759239565,0.2099609375,-0.3291015625,1.0830078125,5.126953125,-9.033203125,108.33740234375,0.0,0.0,0.0,-0.02181309275329113,-0.03416219353675842,0.16835834085941315,0.9848922491073608
8.559818267822266,3.3143623147967927,-3.3377053400589576,-21.803295717568854,0.2197265625,-0.23681640625,0.87841796875,2.01416015625,3.72314453125,118.34716796875,0.0,0.0,0.0,-0.022879771888256073,-0.03405231237411499,0.18813736736774445,0.981285572052002
8.579878091812134,3.6087432545809306,-3.491458661248057,-24.254946016368034,0.10400390625,-0.40478515625,1.02099609375,7.50732421875,-26.55029296875,121.337890625,0.0,0.0,0.0,-0.024373091757297516,-0.0363813191652298,0.20894794166088104,0.9769458174705505
8.599790334701538,3.568914073653059,-3.874101653364627,-26.802338491857867,0.470703125,-0.4853515625,1.419921875,16.54052734375,-10.80322265625,123.9013671875,0.0,0.0,0.0,-0.022444117814302444,-0.04007818549871445,0.23049907386302948,0.971987783908844
8.6199369430542,3.3912435644246908,-4.361778013877183,-29.22028692974491,0.3837890625,-0.2958984375,0.8544921875,15.13671875,-32.958984375,125.42724609375,0.0,0.0,0.0,-0.01901763118803501,-0.0442662313580513,0.25085797905921936,0.9668242335319519
8.640142679214478,3.6466000049425498,-4.618302416743115,-31.97599846737284,0.2470703125,-0.181640625,0.5068359375,-10.1318359375,0.18310546875,144.287109375,0.0,0.0,0.0,-0.019469594582915306,-0.04746977239847183,0.27384066581726074,0.9604055285453796
8.660658121109009,4.118270244022004,-4.803671616383145,-34.90251937576445,0.31689453125,-0.3828125,0.8955078125,0.1220703125,-15.56396484375,148.37646484375,0.0,0.0,0.0,-0.02168726548552513,-0.05071896314620972,0.29800093173980713,0.9529705047607422
8.679831266403198,4.53758409490555,-4.627555188634366,-37.93325531051211,0.65576171875,-0.39794921875,1.02783203125,8.056640625,12.87841796875,147.76611328125,0.0,0.0,0.0,-0.02429639920592308,-0.05100640282034874,0.322986364364624,0.9447157382965088
8.694973707199097,4.415139720541554,-4.958624702988639,-40.68258062126608,0.658203125,-0.4501953125,1.1953125,27.7099609375,-29.84619140625,136.65771484375,0.0,0.0,0.0,-0.021057823672890663,-0.05390829220414162,0.34546592831611633,0.9366449117660522
8.719731092453003,4.364175410275858,-5.115927374668618,-43.490577256990456,0.61474609375,-0.30615234375,1.0166015625,14.95361328125,-6.04248046875,141.9677734375,0.0,0.0,0.0,-0.01880812644958496,-0.055516283959150314,0.3682651221752167,0.9278712868690491
8.740124225616455,4.627321681542116,-5.295712467775339,-46.55604811876222,0.3017578125,-0.24072265625,0.65966796875,-5.7373046875,-22.52197265625,155.76171875,0.0,0.0,0.0,-0.018802233040332794,-0.058339137583971024,0.3927362561225891,0.9176062941551208
8.759784460067749,5.1952711209357165,-5.3794826035114305,-49.911381963625566,0.3310546875,-0.275390625,0.71728515625,-11.77978515625,-2.685546875,169.12841796875,0.0,0.0,0.0,-0.021265778690576553,-0.061603426933288574,0.4190910756587982,0.905602216720581
8.782596826553345,5.499376329107249,-5.1408460391949395,-53.241379221762756,0.6318359375,-0.59326171875,1.30029296875,21.728515625,-16.845703125,159.97314453125,0.0,0.0,0.0,-0.02277194708585739,-0.061521053314208984,0.4451923668384552,0.8930287957191467
8.800560712814331,5.494100861747061,-5.404805956746076,-56.64343156054899,0.53759765625,-0.40966796875,1.05078125,14.83154296875,-18.6767578125,170.41015625,0.0,0.0,0.0,-0.019800342619419098,-0.06416907161474228,0.47136053442955017,0.8793801665306091
8.822359561920166,5.701492298818504,-5.1888908704772785,-61.11875250475435,0.42822265625,-0.34375,0.88916015625,17.15087890625,-21.54541015625,180.84716796875,0.0,0.0,0.0,-0.019796283915638924,-0.06419114768505096,0.5053427219390869,0.8603001236915588
8.839791059494019,6.0123952527614914,-5.19006139414629,-64.0271563363725,0.32373046875,-0.28369140625,0.6337890625,-7.14111328125,-9.58251953125,193.359375,0.0,0.0,0.0,-0.02045394666492939,-0.06611110270023346,0.5268344283103943,0.8471460342407227
8.860190868377686,6.405750969704403,-5.116244978465023,-67.94261691959566,0.58447265625,-0.50390625,1.04833984375,3.41796875,-9.58251953125,197.32666015625,0.0,0.0,0.0,-0.021388258785009384,-0.06814566999673843,0.5552808046340942,0.8285902738571167
8.879773139953613,6.5593085632851,-4.95524888199136,-71.82570923634215,0.74951171875,-0.49951171875,1.16650390625,17.51708984375,-13.48876953125,191.58935546875,0.0,0.0,0.0,-0.020976493135094643,-0.06847955286502838,0.5830429792404175,0.8092783093452454
8.900612592697144,6.613753281819741,-4.903913607076367,-75.66982166349537,0.6552734375,-0.3955078125,1.04150390625,18.24951171875,-7.87353515625,195.80078125,0.0,0.0,0.0,-0.01931784488260746,-0.0690821036696434,0.6098573207855225,0.7892582416534424
8.91968321800232,6.692277405386439,-4.525785796887999,-79.58777526576559,0.6201171875,-0.2998046875,0.76025390625,6.16455078125,9.521484375,192.87109375,0.0,0.0,0.0,-0.019583944231271744,-0.0676143616437912,0.6366675496101379,0.7679187655448914
8.94064998626709,6.717530322295268,-4.581742548550151,-83.65365710507994,0.34619140625,-0.37841796875,0.84033203125,18.61572265625,-32.53173828125,203.67431640625,0.0,0.0,0.0,-0.017011526972055435,-0.06877495348453522,0.6634587645530701,0.7448509931564331
8.959766864776611,6.902969531374291,-4.593554506946043,-87.84436748166546,0.76953125,-0.396484375,1.07421875,16.4794921875,-18.4326171875,211.48681640625,0.0,0.0,0.0,-0.015579340048134327,-0.07054174691438675,0.6901284456253052,0.7200720906257629
8.976371765136719,7.043981774996967,-4.2946176175420945,-92.11984733604001,0.86669921875,-0.34521484375,1.001953125,20.1416015625,-16.11328125,208.43505859375,0.0,0.0,0.0,-0.015668747946619987,-0.07015449553728104,0.7166040539741516,0.6937661170959473
8.99989366531372,7.1828489123334345,-4.203303110980901,-96.32851427995348,0.74267578125,-0.2705078125,0.93408203125,4.150390625,-15.93017578125,210.9375,0.0,0.0,0.0,-0.014483802951872349,-0.07105245441198349,0.7415644526481628,0.6669511795043945
9.020125389099121,7.397322828687359,-4.04903731216064,-100.57533466057065,0.50390625,-0.22900390625,0.71875,12.26806640625,-28.80859375,216.9189453125,0.0,0.0,0.0,-0.014071984216570854,-0.07211803644895554,0.7657245397567749,0.6389577388763428
9.039729595184326,7.595149866486669,-3.782526745841327,-104.79055858608734,0.93408203125,-0.39501953125,1.060546875,7.32421875,-13.3056640625,201.904296875,0.0,0.0,0.0,-0.014304549433290958,-0.07253716886043549,0.7887353897094727,0.610270619392395
9.059735298156738,7.461557342736743,-3.714147587626214,-108.75630302198014,0.92236328125,-0.3681640625,1.09326171875,20.32470703125,-28.564453125,191.22314453125,0.0,0.0,0.0,-0.011591430753469467,-0.07169945538043976,0.8095018863677979,0.5826075077056885
9.080008029937744,7.107181088500271,-3.654122604539672,-112.47560740242972,0.95654296875,-0.21337890625,0.97802734375,30.21240234375,4.94384765625,187.01171875,0.0,0.0,0.0,-0.007973998785018921,-0.06918743252754211,0.8282327651977539,0.556039571762085
9.09487271308899,6.940436960953219,-3.321535720972599,-116.26520125962789,0.6572265625,-0.13330078125,0.69091796875,11.53564453125,-11.16943359375,188.1103515625,0.0,0.0,0.0,-0.007375233806669712,-0.0666576474905014,0.8464328050613403,0.5282555818557739
9.120129823684692,7.038409194407882,-3.277106621082135,-120.17079904968956,0.85791015625,-0.1875,0.912109375,2.0751953125,-13.48876953125,189.208984375,0.0,0.0,0.0,-0.00586186908185482,-0.06741655617952347,0.8639061450958252,0.49908608198165894
9.14018201828003,6.892354136743622,-3.1018567735843017,-123.816016368212,1.03564453125,-0.24169921875,1.125,28.13720703125,-6.53076171875,179.99267578125,0.0,0.0,0.0,-0.0044613489881157875,-0.06573173403739929,0.8795087933540344,0.47130024433135986
9.159760236740112,6.804916189423235,-2.8813287483048073,-127.23367910434631,0.9677734375,-0.27880859375,0.9365234375,9.8876953125,-14.5263671875,165.771484375,0.0,0.0,0.0,-0.0038814914878457785,-0.06430329382419586,0.8933175206184387,0.44478508830070496
9.180115938186646,6.615847161687173,-2.5955909860284976,-130.4259182771135,0.85791015625,-0.26025390625,0.86865234375,16.90673828125,-1.03759765625,144.53125,0.0,0.0,0.0,-0.0036571912933140993,-0.06185232847929001,0.9055793285369873,0.41962742805480957
9.199821949005127,6.193825140797717,-2.822362444539618,-133.3217409002805,0.64453125,-0.22265625,0.732421875,19.95849609375,-8.30078125,142.76123046875,0.0,0.0,0.0,0.0011823991080746055,-0.05933181941509247,0.9160299897193909,0.3966958522796631
9.215187311172485,6.245590717630421,-2.0513869127278577,-135.98783694090326,0.98046875,-0.13818359375,0.78369140625,6.2255859375,47.2412109375,127.8076171875,0.0,0.0,0.0,-0.0038372415583580732,-0.05719663202762604,0.9252535700798035,0.37499281764030457
9.241170644760132,6.078149910788028,-1.6183911257197188,-138.1765847208122,0.82177734375,-0.3544921875,1.0390625,10.009765625,-16.29638671875,101.37939453125,0.0,0.0,0.0,-0.005747539922595024,-0.05455360934138298,0.9324575066566467,0.35709068179130554
9.26020359992981,6.106146429309087,-2.0899495204515146,-140.1030395762143,1.02734375,-0.21533203125,1.0048828125,3.84521484375,-31.06689453125,83.49609375,0.0,0.0,0.0,-0.0010496266186237335,-0.05627023056149483,0.9381780624389648,0.34154725074768066
9.275305032730103,6.27891606436456,-1.9784097565408563,-141.73500399536212,0.81005859375,-0.146484375,0.87109375,-8.23974609375,1.28173828125,86.0595703125,0.0,0.0,0.0,-0.0016613107873126864,-0.05738348513841629,0.9428947567939758,0.32810646295547485
9.299981832504272,6.737737436954751,-1.8567324977980177,-143.3570509798351,0.56396484375,-0.16845703125,0.6259765625,-15.07568359375,20.93505859375,79.52880859375,0.0,0.0,0.0,-0.0031155040487647057,-0.06086215004324913,0.9472435712814331,0.3146677315235138
9.320433616638184,6.740751257926019,-1.7917938339338868,-144.4974193636604,0.94287109375,-0.35498046875,1.2587890625,9.521484375,4.57763671875,51.81884765625,0.0,0.0,0.0,-0.003056588117033243,-0.06074318289756775,0.9503451585769653,0.3051966726779938
9.336362361907959,6.723961372285658,-1.1563495323792778,-145.25782432395795,0.912109375,-0.1376953125,0.8427734375,-6.591796875,23.193359375,36.80419921875,0.0,0.0,0.0,-0.007893731817603111,-0.05897396802902222,0.952523410320282,0.29859498143196106
9.3602135181427,6.780523876349826,-1.4079063600061994,-145.99280732016467,0.56640625,-0.1513671875,1.11376953125,-0.67138671875,-34.48486328125,28.13720703125,0.0,0.0,0.0,-0.005563787184655666,-0.06013388931751251,0.9543282985687256,0.2925927937030792
9.375268936157227,6.782992989734786,-1.6577210625079448,-146.50477097959214,0.79541015625,-0.1513671875,1.20263671875,3.96728515625,-10.43701171875,23.01025390625,0.0,0.0,0.0,-0.0032170529011636972,-0.06080412119626999,0.9555596113204956,0.28844118118286133
9.399869203567505,6.806963111740123,-1.6305500363811052,-146.93568761432826,0.59765625,-0.009765625,0.75927734375,-11.65771484375,27.587890625,23.3154296875,0.0,0.0,0.0,-0.0032749029342085123,-0.06094874441623688,0.956632137298584,0.28483259677886963
9.420099020004272,7.010793885819875,-1.4783503697847722,-147.35792990881845,0.35986328125,-0.04345703125,0.82470703125,-10.8642578125,-10.498046875,17.822265625,0.0,0.0,0.0,-0.004823142662644386,-0.062292322516441345,0.957605242729187,0.28122690320014954
9.440508842468262,6.897124170105229,-1.5616358822549095,-147.61175339875444,0.541015625,-0.08837890625,1.203125,16.11328125,11.1083984375,10.25390625,0.0,0.0,0.0,-0.0037114969454705715,-0.06155405938625336,0.9582657217979431,0.27914902567863464
9.460137367248535,6.556725898005189,-1.479093152857011,-147.7405434457442,0.37060546875,0.01123046875,1.125,15.5029296875,5.06591796875,5.7373046875,0.0,0.0,0.0,-0.0035071969032287598,-0.05851118639111519,0.9587780833244324,0.2780444920063019
9.479714155197144,6.3546077938598176,-1.3041118171709238,-147.81765628147366,0.18359375,0.13427734375,0.9140625,2.5634765625,15.19775390625,4.7607421875,0.0,0.0,0.0,-0.004443631507456303,-0.05640043690800667,0.9591079950332642,0.2773287296295166
9.499937295913696,6.095710327144131,-0.9809070522025088,-147.84839213273872,0.0849609375,0.078125,1.05322265625,8.6669921875,19.04296875,5.43212890625,0.0,0.0,0.0,-0.006509150844067335,-0.05345596745610237,0.95937579870224,0.27694442868232727
9.519846677780151,5.836770598632954,-0.7129991252285469,-147.8348000562904,0.06640625,0.17236328125,0.80615234375,-7.01904296875,28.9306640625,-1.28173828125,0.0,0.0,0.0,-0.008133123628795147,-0.05064129829406738,0.9595108032226562,0.2769626975059509
9.535659790039062,5.749523042835681,-0.11087955675826805,-147.55880577230852,-0.0009765625,0.17041015625,0.9697265625,-0.1220703125,19.71435546875,-18.1884765625,0.0,0.0,0.0,-0.013081631623208523,-0.04842650145292282,0.9589710235595703,0.27903133630752563
9.560495853424072,5.3436356363130875,0.008737120123105457,-147.06341215180748,-0.1435546875,0.20166015625,1.1611328125,19.95849609375,1.46484375,-25.5126953125,0.0,0.0,0.0,-0.013287713751196861,-0.04468121752142906,0.9579353332519531,0.28317323327064514
9.574899673461914,4.878204775040439,0.0750756450981017,-146.4762890907532,-0.01513671875,0.26904296875,1.052734375,16.66259765625,0.67138671875,-31.6162109375,0.0,0.0,0.0,-0.012900099158287048,-0.040560532361269,0.9566521048545837,0.28810638189315796
9.594857215881348,4.523016155179559,0.10768422217578551,-145.86840225462205,-0.0263671875,0.33837890625,0.890625,0.30517578125,3.23486328125,-28.9306640625,0.0,0.0,0.0,-0.012478107586503029,-0.03744741901755333,0.9552342295646667,0.2932056188583374
9.619875192642212,4.259122405086007,0.19068691545549527,-145.2607476449227,0.0625,0.3583984375,1.04736328125,3.72314453125,15.7470703125,-31.55517578125,0.0,0.0,0.0,-0.012680409476161003,-0.034968301653862,0.9537567496299744,0.2982693314552307
9.63586688041687,3.90311757761931,0.09158015689720284,-144.7349187014801,-0.150390625,0.29736328125,0.94287109375,7.26318359375,-17.578125,-24.5361328125,0.0,0.0,0.0,-0.011076698079705238,-0.03221265971660614,0.9524739980697632,0.30270954966545105
9.660245180130005,3.824717251231319,0.23943761744008607,-144.30404304787902,0.0224609375,0.3603515625,0.78125,-8.60595703125,19.95849609375,-19.775390625,0.0,0.0,0.0,-0.012215682305395603,-0.031124601140618324,0.9513622522354126,0.3062547743320465
9.67509126663208,3.896435091290099,0.2940459670301165,-143.9457859655335,-0.15625,0.34423828125,0.9521484375,-11.29150390625,-6.2255859375,-15.44189453125,0.0,0.0,0.0,-0.012959339655935764,-0.03153363987803459,0.9503843784332275,0.3092040717601776
9.700352907180786,3.6325481713857175,0.3523276243722915,-143.6115574886881,-0.05078125,0.32568359375,1.25537109375,9.1552734375,5.67626953125,-15.380859375,0.0,0.0,0.0,-0.012815711088478565,-0.029150350019335747,0.9495522379875183,0.31198829412460327
9.719729661941528,3.331265325445282,0.634361716571162,-143.188837080956,-0.0498046875,0.38427734375,1.1015625,7.6904296875,14.34326171875,-24.4140625,0.0,0.0,0.0,-0.014427836053073406,-0.02583220787346363,0.9484806060791016,0.31545060873031616
9.739747047424316,3.207026105433454,0.9845422069448366,-142.53813861910723,-0.15625,0.39697265625,0.9140625,-3.2958984375,16.41845703125,-38.9404296875,0.0,0.0,0.0,-0.017119087278842926,-0.023741986602544785,0.9467084407806396,0.32075899839401245
9.763429164886475,2.93466612242026,1.3485723999645929,-141.22716577019332,-0.13427734375,0.369140625,1.06982421875,10.009765625,23.62060546875,-60.4248046875,0.0,0.0,0.0,-0.01959669217467308,-0.020248400047421455,0.9430267810821533,0.3315214216709137
9.779937505722046,2.7463210947362198,1.4565206583105883,-140.18330795934028,-0.2255859375,0.39453125,0.99853515625,7.2021484375,0.244140625,-75.1953125,0.0,0.0,0.0,-0.020106622949242592,-0.018203148618340492,0.9399963617324829,0.34010496735572815
9.801209449768066,2.418177889554474,1.7238406020465473,-137.9551226671637,-0.12158203125,0.408203125,0.98583984375,7.01904296875,26.123046875,-97.83935546875,0.0,0.0,0.0,-0.021607190370559692,-0.01429915614426136,0.933240532875061,0.3583168685436249
9.822439908981323,2.229660399593891,1.9317256270072307,-135.74115782883908,-0.27001953125,0.443359375,1.02734375,4.45556640625,8.1787109375,-118.0419921875,0.0,0.0,0.0,-0.02294011041522026,-0.011671715416014194,0.9261519312858582,0.37627148628234863
9.836124181747437,2.094280287272126,1.988604454207335,-133.87892041201346,-0.29296875,0.40380859375,1.0546875,7.62939453125,2.5634765625,-127.86865234375,0.0,0.0,0.0,-0.023120973259210587,-0.010016072541475296,0.9199235439300537,0.3912874758243561
