time,orientation.x,orientation.y,orientation.z,orientation.w,orientation_covariance,angular_velocity.x,angular_velocity.y,angular_velocity.z,angular_velocity_covariance,linear_acceleration.x,linear_acceleration.y,linear_acceleration.z,linear_acceleration_covariance
0.22821784019470215,0.02247200720012188,0.0057862685061991215,-0.435062438249588,0.9001012444496155,[0. 0. 0. 0. 0. 0. 0. 0. 0.],-0.06103515625,-0.79345703125,-0.244140625,[0. 0. 0. 0. 0. 0. 0. 0. 0.],-0.0302734375,0.03564453125,1.0048828125,[0. 0. 0. 0. 0. 0. 0. 0. 0.]
0.2394733428955078,0.02172834612429142,0.005983603186905384,-0.43510112166404724,0.900099515914917,[0. 0. 0. 0. 0. 0. 0. 0. 0.],-0.3662109375,-0.6103515625,0.0,[0. 0. 0. 0. 0. 0. 0. 0. 0.],-0.029296875,0.03466796875,1.00537109375,[0. 0. 0. 0. 0. 0. 0. 0. 0.]
0.26299142837524414,0.022054875269532204,0.0065588257275521755,-0.4351433515548706,0.9000672101974487,[0. 0. 0. 0. 0. 0. 0. 0. 0.],0.1220703125,-0.42724609375,-0.06103515625,[0. 0. 0. 0. 0. 0. 0. 0. 0.],-0.03125,0.0341796875,1.00390625,[0. 0. 0. 0. 0. 0. 0. 0. 0.]
0.27945423126220703,0.02185896784067154,0.006119165103882551,-0.43515798449516296,0.9000679850578308,[0. 0. 0. 0. 0. 0. 0. 0. 0.],0.1220703125,-0.732421875,-0.30517578125,[0. 0. 0. 0. 0. 0. 0. 0. 0.],-0.0302734375,0.0341796875,1.00390625,[0. 0. 0. 0. 0. 0. 0. 0. 0.]
0.29499387741088867,0.022945912554860115,0.005686299409717321,-0.4351564645767212,0.9000445604324341,[0. 0. 0. 0. 0. 0. 0. 0. 0.],-0.18310546875,-0.8544921875,-0.18310546875,[0. 0. 0. 0. 0. 0. 0. 0. 0.],-0.0302734375,0.0361328125,1.00341796875,[0. 0. 0. 0. 0. 0. 0. 0. 0.]
0.31954407691955566,0.02257014624774456,0.006272254977375269,-0.4351823627948761,0.9000375866889954,[0. 0. 0. 0. 0. 0. 0. 0. 0.],-0.18310546875,-0.42724609375,0.0,[0. 0. 0. 0. 0. 0. 0. 0. 0.],-0.03076171875,0.03564453125,1.0068359375,[0. 0. 0. 0. 0. 0. 0. 0. 0.]
0.3404262065887451,0.022623559460043907,0.006590422708541155,-0.43522900342941284,0.9000113606452942,[0. 0. 0. 0. 0. 0. 0. 0. 0.],0.0,-0.244140625,-0.244140625,[0. 0. 0. 0. 0. 0. 0. 0. 0.],-0.03173828125,0.03515625,1.0048828125,[0. 0. 0. 0. 0. 0. 0. 0. 0.]
0.3596608638763428,0.021658388897776604,0.006556561216711998,-0.4352826476097107,0.9000095129013062,[0. 0. 0. 0. 0. 0. 0. 0. 0.],0.244140625,-0.67138671875,-0.244140625,[0. 0. 0. 0. 0. 0. 0. 0. 0.],-0.03076171875,0.033203125,1.0029296875,[0. 0. 0. 0. 0. 0. 0. 0. 0.]
0.37970757484436035,0.021912965923547745,0.0063204034231603146,-0.43529924750328064,0.8999969959259033,[0. 0. 0. 0. 0. 0. 0. 0. 0.],-0.30517578125,-1.0986328125,-0.244140625,[0. 0. 0. 0. 0. 0. 0. 0. 0.],-0.03076171875,0.0341796875,1.005859375,[0. 0. 0. 0. 0. 0. 0. 0. 0.]
0.39590024948120117,0.021631762385368347,0.0063699521124362946,-0.43532904982566833,0.8999890685081482,[0. 0. 0. 0. 0. 0. 0. 0. 0.],-0.244140625,-0.732421875,-0.18310546875,[0. 0. 0. 0. 0. 0. 0. 0. 0.],-0.03076171875,0.03369140625,1.00634765625,[0. 0. 0. 0. 0. 0. 0. 0. 0.]
0.4198133945465088,0.021925058215856552,0.006143394857645035,-0.4353431761264801,0.8999766111373901,[0. 0. 0. 0. 0. 0. 0. 0. 0.],0.30517578125,-0.1220703125,-0.06103515625,[0. 0. 0. 0. 0. 0. 0. 0. 0.],-0.02978515625,0.0341796875,1.0048828125,[0. 0. 0. 0. 0. 0. 0. 0. 0.]
0.44529271125793457,0.02233271300792694,0.0070348880253732204,-0.43537673354148865,0.8999438881874084,[0. 0. 0. 0. 0. 0. 0. 0. 0.],0.06103515625,-0.3662109375,0.0,[0. 0. 0. 0. 0. 0. 0. 0. 0.],-0.0322265625,0.0341796875,1.00439453125,[0. 0. 0. 0. 0. 0. 0. 0. 0.]
0.4607400894165039,0.022043121978640556,0.006147094536572695,-0.43539753556251526,0.8999475240707397,[0. 0. 0. 0. 0. 0. 0. 0. 0.],-0.244140625,-0.9765625,-0.18310546875,[0. 0. 0. 0. 0. 0. 0. 0. 0.],-0.03125,0.03466796875,1.00537109375,[0. 0. 0. 0. 0. 0. 0. 0. 0.]
0.48808765411376953,0.021722188219428062,0.006080043967813253,-0.43542829155921936,0.8999408483505249,[0. 0. 0. 0. 0. 0. 0. 0. 0.],0.06103515625,-0.732421875,-0.244140625,[0. 0. 0. 0. 0. 0. 0. 0. 0.],-0.02978515625,0.033203125,1.0048828125,[0. 0. 0. 0. 0. 0. 0. 0. 0.]
0.5020570755004883,0.02255386672914028,0.00622692983597517,-0.4354325234889984,0.8999172449111938,[0. 0. 0. 0. 0. 0. 0. 0. 0.],0.0,-0.8544921875,-0.18310546875,[0. 0. 0. 0. 0. 0. 0. 0. 0.],-0.03125,0.03564453125,1.00634765625,[0. 0. 0. 0. 0. 0. 0. 0. 0.]
0.5215802192687988,0.02280607633292675,0.005302996374666691,-0.4354313910007477,0.8999174237251282,[0. 0. 0. 0. 0. 0. 0. 0. 0.],-0.30517578125,-0.6103515625,-0.1220703125,[0. 0. 0. 0. 0. 0. 0. 0. 0.],-0.02978515625,0.03662109375,1.00634765625,[0. 0. 0. 0. 0. 0. 0. 0. 0.]
0.5395221710205078,0.022080300375819206,0.0065582748502492905,-0.43549853563308716,0.899894654750824,[0. 0. 0. 0. 0. 0. 0. 0. 0.],-0.1220703125,-0.30517578125,-0.18310546875,[0. 0. 0. 0. 0. 0. 0. 0. 0.],-0.03125,0.0341796875,1.0029296875,[0. 0. 0. 0. 0. 0. 0. 0. 0.]
0.5596218109130859,0.022263186052441597,0.005382375326007605,-0.435493528842926,0.8999004364013672,[0. 0. 0. 0. 0. 0. 0. 0. 0.],0.06103515625,-0.42724609375,-0.06103515625,[0. 0. 0. 0. 0. 0. 0. 0. 0.],-0.029296875,0.03515625,1.00439453125,[0. 0. 0. 0. 0. 0. 0. 0. 0.]
0.5802581310272217,0.021894564852118492,0.006401977501809597,-0.43555203080177307,0.8998745083808899,[0. 0. 0. 0. 0. 0. 0. 0. 0.],-0.18310546875,-1.03759765625,-0.30517578125,[0. 0. 0. 0. 0. 0. 0. 0. 0.],-0.03076171875,0.033203125,1.0048828125,[0. 0. 0. 0. 0. 0. 0. 0. 0.]
0.5997476577758789,0.022114871069788933,0.006744279991835356,-0.4355730712413788,0.899856448173523,[0. 0. 0. 0. 0. 0. 0. 0. 0.],-0.42724609375,-1.03759765625,-0.30517578125,[0. 0. 0. 0. 0. 0. 0. 0. 0.],-0.03173828125,0.0341796875,1.00341796875,[0. 0. 0. 0. 0. 0. 0. 0. 0.]
0.6195342540740967,0.022545555606484413,0.007451293058693409,-0.4355853796005249,0.899834156036377,[0. 0. 0. 0. 0. 0. 0. 0. 0.],0.0,-0.30517578125,0.06103515625,[0. 0. 0. 0. 0. 0. 0. 0. 0.],-0.033203125,0.0341796875,1.00341796875,[0. 0. 0. 0. 0. 0. 0. 0. 0.]
0.6401584148406982,0.02156919613480568,0.0065984479151666164,-0.43561190366744995,0.8998519778251648,[0. 0. 0. 0. 0. 0. 0. 0. 0.],0.06103515625,-0.18310546875,-0.06103515625,[0. 0. 0. 0. 0. 0. 0. 0. 0.],-0.03076171875,0.033203125,1.0048828125,[0. 0. 0. 0. 0. 0. 0. 0. 0.]
0.6598315238952637,0.02143467776477337,0.00685989111661911,-0.43564027547836304,0.8998395204544067,[0. 0. 0. 0. 0. 0. 0. 0. 0.],-0.18310546875,-0.9765625,-0.1220703125,[0. 0. 0. 0. 0. 0. 0. 0. 0.],-0.03125,0.03271484375,1.00390625,[0. 0. 0. 0. 0. 0. 0. 0. 0.]
0.6814312934875488,0.022373877465724945,0.006144441198557615,-0.43564411997795105,0.8998199701309204,[0. 0. 0. 0. 0. 0. 0. 0. 0.],-0.30517578125,-1.15966796875,-0.42724609375,[0. 0. 0. 0. 0. 0. 0. 0. 0.],-0.03125,0.03515625,1.0029296875,[0. 0. 0. 0. 0. 0. 0. 0. 0.]
0.6998851299285889,0.02212418243288994,0.006705965846776962,-0.43567708134651184,0.8998061418533325,[0. 0. 0. 0. 0. 0. 0. 0. 0.],0.0,-0.732421875,-0.244140625,[0. 0. 0. 0. 0. 0. 0. 0. 0.],-0.03125,0.0341796875,1.005859375,[0. 0. 0. 0. 0. 0. 0. 0. 0.]
0.7204298973083496,0.022407643496990204,0.006197937298566103,-0.43568816781044006,0.8997974395751953,[0. 0. 0. 0. 0. 0. 0. 0. 0.],0.0,-0.30517578125,0.06103515625,[0. 0. 0. 0. 0. 0. 0. 0. 0.],-0.03076171875,0.03515625,1.00390625,[0. 0. 0. 0. 0. 0. 0. 0. 0.]
0.7407419681549072,0.021429121494293213,0.006249721627682447,-0.43575015664100647,0.89979088306427,[0. 0. 0. 0. 0. 0. 0. 0. 0.],-0.18310546875,-0.48828125,-0.18310546875,[0. 0. 0. 0. 0. 0. 0. 0. 0.],-0.02978515625,0.03271484375,1.0048828125,[0. 0. 0. 0. 0. 0. 0. 0. 0.]
0.7596151828765869,0.021636508405208588,0.005684672389179468,-0.4357772171497345,0.8997765779495239,[0. 0. 0. 0. 0. 0. 0. 0. 0.],0.18310546875,-0.67138671875,-0.18310546875,[0. 0. 0. 0. 0. 0. 0. 0. 0.],-0.029296875,0.0341796875,1.00390625,[0. 0. 0. 0. 0. 0. 0. 0. 0.]
0.7800123691558838,0.021898863837122917,0.006641623564064503,-0.4358100891113281,0.8997477293014526,[0. 0. 0. 0. 0. 0. 0. 0. 0.],0.1220703125,-0.8544921875,-0.244140625,[0. 0. 0. 0. 0. 0. 0. 0. 0.],-0.03125,0.03369140625,1.00537109375,[0. 0. 0. 0. 0. 0. 0. 0. 0.]
0.7948434352874756,0.022041959688067436,0.006023259833455086,-0.43581151962280273,0.8997478485107422,[0. 0. 0. 0. 0. 0. 0. 0. 0.],-0.3662109375,-0.732421875,-0.18310546875,[0. 0. 0. 0. 0. 0. 0. 0. 0.],-0.03076171875,0.0341796875,1.005859375,[0. 0. 0. 0. 0. 0. 0. 0. 0.]
0.8150103092193604,0.02242724969983101,0.0063540819101035595,-0.43583613634109497,0.8997241854667664,[0. 0. 0. 0. 0. 0. 0. 0. 0.],-0.1220703125,-0.3662109375,-0.06103515625,[0. 0. 0. 0. 0. 0. 0. 0. 0.],-0.03125,0.03515625,1.0048828125,[0. 0. 0. 0. 0. 0. 0. 0. 0.]
0.8394982814788818,0.022667404264211655,0.007143682334572077,-0.43587368726730347,0.8996940851211548,[0. 0. 0. 0. 0. 0. 0. 0. 0.],0.18310546875,-0.244140625,-0.06103515625,[0. 0. 0. 0. 0. 0. 0. 0. 0.],-0.033203125,0.03466796875,1.00341796875,[0. 0. 0. 0. 0. 0. 0. 0. 0.]
0.8598361015319824,0.022186392918229103,0.006801430601626635,-0.4358956515789032,0.8996981382369995,[0. 0. 0. 0. 0. 0. 0. 0. 0.],-0.06103515625,-0.91552734375,-0.1220703125,[0. 0. 0. 0. 0. 0. 0. 0. 0.],-0.03173828125,0.0341796875,1.00341796875,[0. 0. 0. 0. 0. 0. 0. 0. 0.]
0.882382869720459,0.021649952977895737,0.006227137055248022,-0.4359337389469147,0.8996968269348145,[0. 0. 0. 0. 0. 0. 0. 0. 0.],-0.244140625,-1.03759765625,-0.244140625,[0. 0. 0. 0. 0. 0. 0. 0. 0.],-0.0302734375,0.03369140625,1.00244140625,[0. 0. 0. 0. 0. 0. 0. 0. 0.]
0.9012253284454346,0.022140370681881905,0.006780471187084913,-0.43594861030578613,0.8996737003326416,[0. 0. 0. 0. 0. 0. 0. 0. 0.],-0.1220703125,-0.42724609375,-0.18310546875,[0. 0. 0. 0. 0. 0. 0. 0. 0.],-0.03125,0.03369140625,1.00146484375,[0. 0. 0. 0. 0. 0. 0. 0. 0.]
0.9204573631286621,0.022527912631630898,0.0063489628955721855,-0.43596720695495605,0.899658203125,[0. 0. 0. 0. 0. 0. 0. 0. 0.],0.18310546875,-0.30517578125,-0.06103515625,[0. 0. 0. 0. 0. 0. 0. 0. 0.],-0.03125,0.03515625,1.00439453125,[0. 0. 0. 0. 0. 0. 0. 0. 0.]
0.9445843696594238,0.022461876273155212,0.005734759382903576,-0.4359842836856842,0.8996556997299194,[0. 0. 0. 0. 0. 0. 0. 0. 0.],-0.3662109375,-0.6103515625,-0.1220703125,[0. 0. 0. 0. 0. 0. 0. 0. 0.],-0.0302734375,0.03564453125,1.00390625,[0. 0. 0. 0. 0. 0. 0. 0. 0.]
0.9597012996673584,0.021082665771245956,0.005174560472369194,-0.43603354692459106,0.8996685743331909,[0. 0. 0. 0. 0. 0. 0. 0. 0.],-0.1220703125,-0.67138671875,-0.3662109375,[0. 0. 0. 0. 0. 0. 0. 0. 0.],-0.0283203125,0.0341796875,1.005859375,[0. 0. 0. 0. 0. 0. 0. 0. 0.]
0.9804079532623291,0.021600591018795967,0.0059211072511971,-0.4360567331314087,0.8996403813362122,[0. 0. 0. 0. 0. 0. 0. 0. 0.],0.06103515625,-0.79345703125,-0.1220703125,[0. 0. 0. 0. 0. 0. 0. 0. 0.],-0.02978515625,0.0341796875,1.00537109375,[0. 0. 0. 0. 0. 0. 0. 0. 0.]
1.002439260482788,0.022230591624975204,0.005667613819241524,-0.4360637664794922,0.8996232748031616,[0. 0. 0. 0. 0. 0. 0. 0. 0.],-0.18310546875,-1.15966796875,-0.244140625,[0. 0. 0. 0. 0. 0. 0. 0. 0.],-0.0302734375,0.03515625,1.0029296875,[0. 0. 0. 0. 0. 0. 0. 0. 0.]
1.0195708274841309,0.023460425436496735,0.005916175432503223,-0.43606317043304443,0.8995907306671143,[0. 0. 0. 0. 0. 0. 0. 0. 0.],-0.3662109375,-0.6103515625,-0.06103515625,[0. 0. 0. 0. 0. 0. 0. 0. 0.],-0.03125,0.037109375,1.0029296875,[0. 0. 0. 0. 0. 0. 0. 0. 0.]
1.034691572189331,0.023182254284620285,0.006575417704880238,-0.4361092448234558,0.8995711207389832,[0. 0. 0. 0. 0. 0. 0. 0. 0.],0.1220703125,-0.244140625,-0.06103515625,[0. 0. 0. 0. 0. 0. 0. 0. 0.],-0.0322265625,0.0361328125,1.00341796875,[0. 0. 0. 0. 0. 0. 0. 0. 0.]
1.0604979991912842,0.021507717669010162,0.0062932344153523445,-0.43616822361946106,0.8995862007141113,[0. 0. 0. 0. 0. 0. 0. 0. 0.],0.18310546875,-0.6103515625,-0.06103515625,[0. 0. 0. 0. 0. 0. 0. 0. 0.],-0.02978515625,0.033203125,1.0048828125,[0. 0. 0. 0. 0. 0. 0. 0. 0.]
1.0795209407806396,0.021951239556074142,0.005912608467042446,-0.4361928701400757,0.8995660543441772,[0. 0. 0. 0. 0. 0. 0. 0. 0.],-0.1220703125,-0.8544921875,0.0,[0. 0. 0. 0. 0. 0. 0. 0. 0.],-0.0302734375,0.03515625,1.00390625,[0. 0. 0. 0. 0. 0. 0. 0. 0.]
1.099445104598999,0.02229415252804756,0.005792667623609304,-0.4361899495124817,0.8995598554611206,[0. 0. 0. 0. 0. 0. 0. 0. 0.],-0.18310546875,-0.8544921875,-0.18310546875,[0. 0. 0. 0. 0. 0. 0. 0. 0.],-0.0302734375,0.0361328125,1.00439453125,[0. 0. 0. 0. 0. 0. 0. 0. 0.]
1.1201622486114502,0.02239646390080452,0.0070883347652852535,-0.4362346827983856,0.8995262980461121,[0. 0. 0. 0. 0. 0. 0. 0. 0.],0.06103515625,-0.244140625,-0.06103515625,[0. 0. 0. 0. 0. 0. 0. 0. 0.],-0.0322265625,0.0341796875,1.0029296875,[0. 0. 0. 0. 0. 0. 0. 0. 0.]
1.1467649936676025,0.021804802119731903,0.006152896210551262,-0.43625137209892273,0.8995396494865417,[0. 0. 0. 0. 0. 0. 0. 0. 0.],0.06103515625,-0.30517578125,0.0,[0. 0. 0. 0. 0. 0. 0. 0. 0.],-0.03076171875,0.03369140625,1.00537109375,[0. 0. 0. 0. 0. 0. 0. 0. 0.]
1.1702477931976318,0.022446848452091217,0.006721841637045145,-0.4362903833389282,0.8995009064674377,[0. 0. 0. 0. 0. 0. 0. 0. 0.],-0.244140625,-1.03759765625,-0.30517578125,[0. 0. 0. 0. 0. 0. 0. 0. 0.],-0.03173828125,0.03466796875,1.0048828125,[0. 0. 0. 0. 0. 0. 0. 0. 0.]
1.175752878189087,0.022828450426459312,0.006725358311086893,-0.43631067872047424,0.8994813561439514,[0. 0. 0. 0. 0. 0. 0. 0. 0.],-0.18310546875,-0.8544921875,-0.244140625,[0. 0. 0. 0. 0. 0. 0. 0. 0.],-0.03271484375,0.03466796875,1.005859375,[0. 0. 0. 0. 0. 0. 0. 0. 0.]
1.1956524848937988,0.02208302915096283,0.006344262510538101,-0.4363401234149933,0.8994885087013245,[0. 0. 0. 0. 0. 0. 0. 0. 0.],-0.06103515625,-0.54931640625,-0.244140625,[0. 0. 0. 0. 0. 0. 0. 0. 0.],-0.02978515625,0.0341796875,1.00341796875,[0. 0. 0. 0. 0. 0. 0. 0. 0.]
1.2197856903076172,0.021675538271665573,0.00619484530761838,-0.43637630343437195,0.8994818925857544,[0. 0. 0. 0. 0. 0. 0. 0. 0.],-0.30517578125,-0.42724609375,-0.1220703125,[0. 0. 0. 0. 0. 0. 0. 0. 0.],-0.0302734375,0.0341796875,1.00341796875,[0. 0. 0. 0. 0. 0. 0. 0. 0.]
1.239792823791504,0.021558817476034164,0.006197845097631216,-0.4364125430583954,0.8994670510292053,[0. 0. 0. 0. 0. 0. 0. 0. 0.],-0.18310546875,-0.6103515625,-0.1220703125,[0. 0. 0. 0. 0. 0. 0. 0. 0.],-0.0302734375,0.03369140625,1.00439453125,[0. 0. 0. 0. 0. 0. 0. 0. 0.]
1.2620768547058105,0.0217153150588274,0.005877377465367317,-0.43643441796302795,0.8994548320770264,[0. 0. 0. 0. 0. 0. 0. 0. 0.],0.244140625,-0.732421875,-0.244140625,[0. 0. 0. 0. 0. 0. 0. 0. 0.],-0.0302734375,0.0341796875,1.005859375,[0. 0. 0. 0. 0. 0. 0. 0. 0.]
1.279792070388794,0.02194644697010517,0.006324047222733498,-0.43645983934402466,0.8994338512420654,[0. 0. 0. 0. 0. 0. 0. 0. 0.],-0.1220703125,-0.79345703125,-0.18310546875,[0. 0. 0. 0. 0. 0. 0. 0. 0.],-0.03076171875,0.0341796875,1.00341796875,[0. 0. 0. 0. 0. 0. 0. 0. 0.]
1.3013744354248047,0.021138887852430344,0.00628273282200098,-0.4365084171295166,0.899429976940155,[0. 0. 0. 0. 0. 0. 0. 0. 0.],-0.30517578125,-0.9765625,-0.30517578125,[0. 0. 0. 0. 0. 0. 0. 0. 0.],-0.0302734375,0.033203125,1.0029296875,[0. 0. 0. 0. 0. 0. 0. 0. 0.]
1.3197948932647705,0.021367564797401428,0.005689724814146757,-0.4365212917327881,0.8994221687316895,[0. 0. 0. 0. 0. 0. 0. 0. 0.],-0.06103515625,-0.18310546875,-0.06103515625,[0. 0. 0. 0. 0. 0. 0. 0. 0.],-0.029296875,0.03369140625,1.00244140625,[0. 0. 0. 0. 0. 0. 0. 0. 0.]
1.3356311321258545,0.02299625054001808,0.005798960570245981,-0.43653327226638794,0.8993755578994751,[0. 0. 0. 0. 0. 0. 0. 0. 0.],0.1220703125,-0.42724609375,-0.18310546875,[0. 0. 0. 0. 0. 0. 0. 0. 0.],-0.03076171875,0.03662109375,1.00537109375,[0. 0. 0. 0. 0. 0. 0. 0. 0.]
1.3597257137298584,0.02268279530107975,0.005189222749322653,-0.4365447461605072,0.8993816375732422,[0. 0. 0. 0. 0. 0. 0. 0. 0.],-0.1220703125,-1.0986328125,-0.244140625,[0. 0. 0. 0. 0. 0. 0. 0. 0.],-0.029296875,0.0361328125,1.00390625,[0. 0. 0. 0. 0. 0. 0. 0. 0.]
1.386963129043579,0.022063883021473885,0.005733232479542494,-0.4366035759449005,0.899365246295929,[0. 0. 0. 0. 0. 0. 0. 0. 0.],-0.18310546875,-1.0986328125,-0.244140625,[0. 0. 0. 0. 0. 0. 0. 0. 0.],-0.02978515625,0.03466796875,1.00439453125,[0. 0. 0. 0. 0. 0. 0. 0. 0.]
1.400482416152954,0.02143016643822193,0.005954424850642681,-0.4366335868835449,0.8993644714355469,[0. 0. 0. 0. 0. 0. 0. 0. 0.],0.06103515625,-0.79345703125,-0.18310546875,[0. 0. 0. 0. 0. 0. 0. 0. 0.],-0.02978515625,0.03369140625,1.00537109375,[0. 0. 0. 0. 0. 0. 0. 0. 0.]
1.4211339950561523,0.021941404789686203,0.0067144641652703285,-0.4366624355316162,0.8993328809738159,[0. 0. 0. 0. 0. 0. 0. 0. 0.],-0.244140625,-0.42724609375,0.0,[0. 0. 0. 0. 0. 0. 0. 0. 0.],-0.03125,0.03369140625,1.00439453125,[0. 0. 0. 0. 0. 0. 0. 0. 0.]
1.4396684169769287,0.022719616070389748,0.005988051183521748,-0.4366626441478729,0.8993184566497803,[0. 0. 0. 0. 0. 0. 0. 0. 0.],-0.18310546875,-0.48828125,-0.06103515625,[0. 0. 0. 0. 0. 0. 0. 0. 0.],-0.03076171875,0.0361328125,1.00341796875,[0. 0. 0. 0. 0. 0. 0. 0. 0.]
1.4571075439453125,0.02187325246632099,0.005543879698961973,-0.4366946816444397,0.899326741695404,[0. 0. 0. 0. 0. 0. 0. 0. 0.],0.06103515625,-0.6103515625,-0.1220703125,[0. 0. 0. 0. 0. 0. 0. 0. 0.],-0.02978515625,0.03466796875,1.00390625,[0. 0. 0. 0. 0. 0. 0. 0. 0.]
1.476597547531128,0.022303342819213867,0.0063905855640769005,-0.4367297291755676,0.8992935419082642,[0. 0. 0. 0. 0. 0. 0. 0. 0.],0.1220703125,-0.91552734375,-0.3662109375,[0. 0. 0. 0. 0. 0. 0. 0. 0.],-0.03076171875,0.03466796875,1.00390625,[0. 0. 0. 0. 0. 0. 0. 0. 0.]
1.4953744411468506,0.02202879637479782,0.00649019330739975,-0.4367551803588867,0.8992872834205627,[0. 0. 0. 0. 0. 0. 0. 0. 0.],-0.30517578125,-0.9765625,-0.1220703125,[0. 0. 0. 0. 0. 0. 0. 0. 0.],-0.03173828125,0.03466796875,1.0068359375,[0. 0. 0. 0. 0. 0. 0. 0. 0.]
1.5207037925720215,0.022898240014910698,0.006186738610267639,-0.43676096200942993,0.899264931678772,[0. 0. 0. 0. 0. 0. 0. 0. 0.],-0.30517578125,-0.48828125,-0.06103515625,[0. 0. 0. 0. 0. 0. 0. 0. 0.],-0.03125,0.03564453125,1.00439453125,[0. 0. 0. 0. 0. 0. 0. 0. 0.]
1.54117751121521,0.02210201509296894,0.006905930116772652,-0.4368252754211426,0.8992483615875244,[0. 0. 0. 0. 0. 0. 0. 0. 0.],0.18310546875,-0.18310546875,-0.06103515625,[0. 0. 0. 0. 0. 0. 0. 0. 0.],-0.03173828125,0.03369140625,1.001953125,[0. 0. 0. 0. 0. 0. 0. 0. 0.]
1.5648813247680664,0.021755674853920937,0.006512236315757036,-0.4368591606616974,0.8992432951927185,[0. 0. 0. 0. 0. 0. 0. 0. 0.],-0.06103515625,-0.42724609375,-0.06103515625,[0. 0. 0. 0. 0. 0. 0. 0. 0.],-0.03076171875,0.033203125,1.00439453125,[0. 0. 0. 0. 0. 0. 0. 0. 0.]
1.5798254013061523,0.02164623700082302,0.006879336666315794,-0.43689295649528503,0.899226725101471,[0. 0. 0. 0. 0. 0. 0. 0. 0.],-0.3662109375,-1.15966796875,-0.30517578125,[0. 0. 0. 0. 0. 0. 0. 0. 0.],-0.03125,0.033203125,1.005859375,[0. 0. 0. 0. 0. 0. 0. 0. 0.]
1.5995488166809082,0.022557063028216362,0.005737344268709421,-0.43688106536865234,0.8992180824279785,[0. 0. 0. 0. 0. 0. 0. 0. 0.],-0.18310546875,-0.6103515625,-0.1220703125,[0. 0. 0. 0. 0. 0. 0. 0. 0.],-0.0302734375,0.03564453125,1.00390625,[0. 0. 0. 0. 0. 0. 0. 0. 0.]
1.6209335327148438,0.021835047751665115,0.005571275018155575,-0.4369180202484131,0.8992190957069397,[0. 0. 0. 0. 0. 0. 0. 0. 0.],0.1220703125,-0.1220703125,-0.06103515625,[0. 0. 0. 0. 0. 0. 0. 0. 0.],-0.02978515625,0.03466796875,1.00390625,[0. 0. 0. 0. 0. 0. 0. 0. 0.]
1.6401817798614502,0.022095616906881332,0.007221193518489599,-0.43698105216026306,0.8991703391075134,[0. 0. 0. 0. 0. 0. 0. 0. 0.],-0.244140625,-0.67138671875,-0.244140625,[0. 0. 0. 0. 0. 0. 0. 0. 0.],-0.03173828125,0.03369140625,1.00537109375,[0. 0. 0. 0. 0. 0. 0. 0. 0.]
1.6561174392700195,0.022693397477269173,0.006459107622504234,-0.4369812309741974,0.899161159992218,[0. 0. 0. 0. 0. 0. 0. 0. 0.],-0.06103515625,-1.03759765625,-0.18310546875,[0. 0. 0. 0. 0. 0. 0. 0. 0.],-0.03125,0.0361328125,1.0029296875,[0. 0. 0. 0. 0. 0. 0. 0. 0.]
1.679884433746338,0.021909410133957863,0.005737184081226587,-0.4369850754737854,0.8991836309432983,[0. 0. 0. 0. 0. 0. 0. 0. 0.],0.0,-0.79345703125,-0.1220703125,[0. 0. 0. 0. 0. 0. 0. 0. 0.],-0.02978515625,0.03466796875,1.00439453125,[0. 0. 0. 0. 0. 0. 0. 0. 0.]
1.7009086608886719,0.022308556362986565,0.00675643514841795,-0.4370257258415222,0.8991469740867615,[0. 0. 0. 0. 0. 0. 0. 0. 0.],0.06103515625,-0.54931640625,-0.18310546875,[0. 0. 0. 0. 0. 0. 0. 0. 0.],-0.03173828125,0.03466796875,1.00732421875,[0. 0. 0. 0. 0. 0. 0. 0. 0.]
1.719653844833374,0.02142718993127346,0.006877455394715071,-0.43707290291786194,0.8991445899009705,[0. 0. 0. 0. 0. 0. 0. 0. 0.],-0.18310546875,-0.42724609375,-0.18310546875,[0. 0. 0. 0. 0. 0. 0. 0. 0.],-0.03125,0.03271484375,1.00537109375,[0. 0. 0. 0. 0. 0. 0. 0. 0.]
1.7399840354919434,0.02204218879342079,0.006550658494234085,-0.43708235025405884,0.8991274833679199,[0. 0. 0. 0. 0. 0. 0. 0. 0.],-0.06103515625,-0.6103515625,-0.06103515625,[0. 0. 0. 0. 0. 0. 0. 0. 0.],-0.03125,0.0341796875,1.00341796875,[0. 0. 0. 0. 0. 0. 0. 0. 0.]
1.759946584701538,0.0221879743039608,0.006375143304467201,-0.4371015131473541,0.8991158604621887,[0. 0. 0. 0. 0. 0. 0. 0. 0.],0.06103515625,-0.732421875,-0.244140625,[0. 0. 0. 0. 0. 0. 0. 0. 0.],-0.03125,0.03466796875,1.00341796875,[0. 0. 0. 0. 0. 0. 0. 0. 0.]
1.7802884578704834,0.02195720560848713,0.005711802747100592,-0.4371128976345062,0.899120569229126,[0. 0. 0. 0. 0. 0. 0. 0. 0.],-0.30517578125,-1.0986328125,-0.18310546875,[0. 0. 0. 0. 0. 0. 0. 0. 0.],-0.02978515625,0.0341796875,1.0048828125,[0. 0. 0. 0. 0. 0. 0. 0. 0.]
1.799659013748169,0.022793788462877274,0.0069357361644506454,-0.43715184926986694,0.8990721106529236,[0. 0. 0. 0. 0. 0. 0. 0. 0.],-0.30517578125,-0.6103515625,-0.1220703125,[0. 0. 0. 0. 0. 0. 0. 0. 0.],-0.033203125,0.03564453125,1.00439453125,[0. 0. 0. 0. 0. 0. 0. 0. 0.]
1.8163669109344482,0.022325439378619194,0.005951898638159037,-0.43718358874320984,0.8990755677223206,[0. 0. 0. 0. 0. 0. 0. 0. 0.],0.06103515625,-0.06103515625,-0.18310546875,[0. 0. 0. 0. 0. 0. 0. 0. 0.],-0.0302734375,0.03515625,1.00537109375,[0. 0. 0. 0. 0. 0. 0. 0. 0.]
1.8396592140197754,0.022266579791903496,0.005677294917404652,-0.43720540404319763,0.8990681171417236,[0. 0. 0. 0. 0. 0. 0. 0. 0.],0.18310546875,-0.6103515625,-0.1220703125,[0. 0. 0. 0. 0. 0. 0. 0. 0.],-0.02978515625,0.03515625,1.00341796875,[0. 0. 0. 0. 0. 0. 0. 0. 0.]
1.8601207733154297,0.022343283519148827,0.006763942074030638,-0.4372432231903076,0.8990403413772583,[0. 0. 0. 0. 0. 0. 0. 0. 0.],-0.1220703125,-0.79345703125,-0.1220703125,[0. 0. 0. 0. 0. 0. 0. 0. 0.],-0.0322265625,0.0341796875,1.00634765625,[0. 0. 0. 0. 0. 0. 0. 0. 0.]
1.8800036907196045,0.02251320518553257,0.006320747081190348,-0.437242329120636,0.8990396857261658,[0. 0. 0. 0. 0. 0. 0. 0. 0.],-0.18310546875,-0.8544921875,-0.18310546875,[0. 0. 0. 0. 0. 0. 0. 0. 0.],-0.03125,0.03515625,1.0048828125,[0. 0. 0. 0. 0. 0. 0. 0. 0.]
1.8968067169189453,0.02252892777323723,0.006474699359387159,-0.43726152181625366,0.8990288972854614,[0. 0. 0. 0. 0. 0. 0. 0. 0.],0.0,-0.67138671875,-0.18310546875,[0. 0. 0. 0. 0. 0. 0. 0. 0.],-0.03125,0.03466796875,1.005859375,[0. 0. 0. 0. 0. 0. 0. 0. 0.]
1.914778232574463,0.021872183308005333,0.006003635935485363,-0.4372881352901459,0.8990353941917419,[0. 0. 0. 0. 0. 0. 0. 0. 0.],-0.3662109375,-0.54931640625,-0.1220703125,[0. 0. 0. 0. 0. 0. 0. 0. 0.],-0.03076171875,0.0341796875,1.00390625,[0. 0. 0. 0. 0. 0. 0. 0. 0.]
1.940415859222412,0.02140597440302372,0.006610589567571878,-0.4373352527618408,0.8990194797515869,[0. 0. 0. 0. 0. 0. 0. 0. 0.],-0.18310546875,-0.48828125,-0.06103515625,[0. 0. 0. 0. 0. 0. 0. 0. 0.],-0.03076171875,0.03271484375,1.0029296875,[0. 0. 0. 0. 0. 0. 0. 0. 0.]
1.9603078365325928,0.021822070702910423,0.00603354349732399,-0.43734458088874817,0.8990090489387512,[0. 0. 0. 0. 0. 0. 0. 0. 0.],0.1220703125,-0.732421875,-0.1220703125,[0. 0. 0. 0. 0. 0. 0. 0. 0.],-0.0302734375,0.0341796875,1.005859375,[0. 0. 0. 0. 0. 0. 0. 0. 0.]
1.979856014251709,0.022301342338323593,0.006758715957403183,-0.4373623728752136,0.8989834189414978,[0. 0. 0. 0. 0. 0. 0. 0. 0.],0.0,-0.91552734375,-0.18310546875,[0. 0. 0. 0. 0. 0. 0. 0. 0.],-0.03125,0.0341796875,1.00439453125,[0. 0. 0. 0. 0. 0. 0. 0. 0.]
1.9999525547027588,0.022822843864560127,0.005388065706938505,-0.4373522996902466,0.8989845514297485,[0. 0. 0. 0. 0. 0. 0. 0. 0.],-0.42724609375,-0.732421875,-0.1220703125,[0. 0. 0. 0. 0. 0. 0. 0. 0.],-0.02978515625,0.0361328125,1.00341796875,[0. 0. 0. 0. 0. 0. 0. 0. 0.]
2.0204567909240723,0.021830620244145393,0.005584030412137508,-0.4373977780342102,0.8989858031272888,[0. 0. 0. 0. 0. 0. 0. 0. 0.],0.1220703125,-0.18310546875,0.0,[0. 0. 0. 0. 0. 0. 0. 0. 0.],-0.02978515625,0.03515625,1.0029296875,[0. 0. 0. 0. 0. 0. 0. 0. 0.]
2.0398244857788086,0.022350501269102097,0.006807767320424318,-0.4374385178089142,0.8989447355270386,[0. 0. 0. 0. 0. 0. 0. 0. 0.],0.18310546875,-0.30517578125,-0.1220703125,[0. 0. 0. 0. 0. 0. 0. 0. 0.],-0.03173828125,0.0341796875,1.005859375,[0. 0. 0. 0. 0. 0. 0. 0. 0.]
2.060288190841675,0.021630169823765755,0.006918742321431637,-0.4374695420265198,0.8989464640617371,[0. 0. 0. 0. 0. 0. 0. 0. 0.],-0.1220703125,-1.03759765625,-0.18310546875,[0. 0. 0. 0. 0. 0. 0. 0. 0.],-0.03173828125,0.033203125,1.0048828125,[0. 0. 0. 0. 0. 0. 0. 0. 0.]
2.0798733234405518,0.02192913554608822,0.006082430016249418,-0.4374726712703705,0.8989437818527222,[0. 0. 0. 0. 0. 0. 0. 0. 0.],-0.244140625,-1.0986328125,-0.244140625,[0. 0. 0. 0. 0. 0. 0. 0. 0.],-0.02978515625,0.03466796875,1.00439453125,[0. 0. 0. 0. 0. 0. 0. 0. 0.]
2.100085973739624,0.02270832657814026,0.006266511045396328,-0.43748340010643005,0.8989179134368896,[0. 0. 0. 0. 0. 0. 0. 0. 0.],0.06103515625,-0.30517578125,-0.06103515625,[0. 0. 0. 0. 0. 0. 0. 0. 0.],-0.03173828125,0.0361328125,1.00537109375,[0. 0. 0. 0. 0. 0. 0. 0. 0.]
2.1196255683898926,0.022630004212260246,0.006174684502184391,-0.43750518560409546,0.8989099860191345,[0. 0. 0. 0. 0. 0. 0. 0. 0.],0.06103515625,-0.1220703125,0.0,[0. 0. 0. 0. 0. 0. 0. 0. 0.],-0.03125,0.03564453125,1.00537109375,[0. 0. 0. 0. 0. 0. 0. 0. 0.]
2.134871006011963,0.0216574277728796,0.005779997445642948,-0.43755242228507996,0.8989135026931763,[0. 0. 0. 0. 0. 0. 0. 0. 0.],-0.18310546875,-0.79345703125,-0.1220703125,[0. 0. 0. 0. 0. 0. 0. 0. 0.],-0.029296875,0.03369140625,1.0048828125,[0. 0. 0. 0. 0. 0. 0. 0. 0.]
2.1598806381225586,0.021930396556854248,0.006453654263168573,-0.4375819265842438,0.8988879323005676,[0. 0. 0. 0. 0. 0. 0. 0. 0.],-0.1220703125,-0.9765625,-0.30517578125,[0. 0. 0. 0. 0. 0. 0. 0. 0.],-0.03076171875,0.0341796875,1.0048828125,[0. 0. 0. 0. 0. 0. 0. 0. 0.]
2.181015729904175,0.02270921692252159,0.0058174110017716885,-0.4375826418399811,0.8988725543022156,[0. 0. 0. 0. 0. 0. 0. 0. 0.],0.0,-0.79345703125,-0.244140625,[0. 0. 0. 0. 0. 0. 0. 0. 0.],-0.03076171875,0.0361328125,1.00537109375,[0. 0. 0. 0. 0. 0. 0. 0. 0.]
2.200761079788208,0.02242002822458744,0.006202181801199913,-0.4376089870929718,0.8988645076751709,[0. 0. 0. 0. 0. 0. 0. 0. 0.],-0.244140625,-0.54931640625,-0.1220703125,[0. 0. 0. 0. 0. 0. 0. 0. 0.],-0.03125,0.03515625,1.00634765625,[0. 0. 0. 0. 0. 0. 0. 0. 0.]
2.2150819301605225,0.022446230053901672,0.005509553011506796,-0.43761947751045227,0.8988631963729858,[0. 0. 0. 0. 0. 0. 0. 0. 0.],-0.1220703125,-0.3662109375,0.0,[0. 0. 0. 0. 0. 0. 0. 0. 0.],-0.02978515625,0.03564453125,1.00439453125,[0. 0. 0. 0. 0. 0. 0. 0. 0.]
2.2403712272644043,0.021852467209100723,0.005373622756451368,-0.4376550018787384,0.8988613486289978,[0. 0. 0. 0. 0. 0. 0. 0. 0.],0.18310546875,-0.54931640625,-0.1220703125,[0. 0. 0. 0. 0. 0. 0. 0. 0.],-0.02880859375,0.03466796875,1.00537109375,[0. 0. 0. 0. 0. 0. 0. 0. 0.]
2.2601351737976074,0.02205815352499485,0.005951404571533203,-0.43768438696861267,0.898838460445404,[0. 0. 0. 0. 0. 0. 0. 0. 0.],0.0,-0.9765625,-0.244140625,[0. 0. 0. 0. 0. 0. 0. 0. 0.],-0.0302734375,0.03466796875,1.005859375,[0. 0. 0. 0. 0. 0. 0. 0. 0.]
2.2825489044189453,0.02248505875468254,0.005909736268222332,-0.4376991093158722,0.8988209366798401,[0. 0. 0. 0. 0. 0. 0. 0. 0.],-0.30517578125,-1.03759765625,-0.1220703125,[0. 0. 0. 0. 0. 0. 0. 0. 0.],-0.0302734375,0.03564453125,1.0048828125,[0. 0. 0. 0. 0. 0. 0. 0. 0.]
2.2998709678649902,0.02305673062801361,0.005843267776072025,-0.4377230703830719,0.8987951278686523,[0. 0. 0. 0. 0. 0. 0. 0. 0.],-0.18310546875,-0.42724609375,-0.18310546875,[0. 0. 0. 0. 0. 0. 0. 0. 0.],-0.03125,0.037109375,1.005859375,[0. 0. 0. 0. 0. 0. 0. 0. 0.]
2.319652795791626,0.022988274693489075,0.005757289472967386,-0.437735378742218,0.8987915515899658,[0. 0. 0. 0. 0. 0. 0. 0. 0.],0.1220703125,-0.244140625,0.06103515625,[0. 0. 0. 0. 0. 0. 0. 0. 0.],-0.03125,0.0361328125,1.00439453125,[0. 0. 0. 0. 0. 0. 0. 0. 0.]
2.340374708175659,0.021650519222021103,0.006688063032925129,-0.4378019869327545,0.8987858891487122,[0. 0. 0. 0. 0. 0. 0. 0. 0.],-0.18310546875,-0.6103515625,-0.06103515625,[0. 0. 0. 0. 0. 0. 0. 0. 0.],-0.03125,0.033203125,1.0048828125,[0. 0. 0. 0. 0. 0. 0. 0. 0.]
2.359675168991089,0.022780345752835274,0.006389661226421595,-0.43781378865242004,0.8987542986869812,[0. 0. 0. 0. 0. 0. 0. 0. 0.],-0.30517578125,-0.9765625,-0.1220703125,[0. 0. 0. 0. 0. 0. 0. 0. 0.],-0.03173828125,0.03515625,1.00390625,[0. 0. 0. 0. 0. 0. 0. 0. 0.]
2.379805564880371,0.022161293774843216,0.005901658441871405,-0.43783873319625854,0.8987610340118408,[0. 0. 0. 0. 0. 0. 0. 0. 0.],0.1220703125,-0.8544921875,-0.1220703125,[0. 0. 0. 0. 0. 0. 0. 0. 0.],-0.02978515625,0.03466796875,1.005859375,[0. 0. 0. 0. 0. 0. 0. 0. 0.]
2.400099277496338,0.022024648264050484,0.005294412840157747,-0.43784746527671814,0.89876389503479,[0. 0. 0. 0. 0. 0. 0. 0. 0.],-0.244140625,-0.6103515625,-0.1220703125,[0. 0. 0. 0. 0. 0. 0. 0. 0.],-0.029296875,0.03515625,1.0048828125,[0. 0. 0. 0. 0. 0. 0. 0. 0.]
2.420135259628296,0.022897325456142426,0.006443498190492392,-0.4378792345523834,0.898719072341919,[0. 0. 0. 0. 0. 0. 0. 0. 0.],-0.30517578125,-0.3662109375,-0.1220703125,[0. 0. 0. 0. 0. 0. 0. 0. 0.],-0.03173828125,0.03564453125,1.00537109375,[0. 0. 0. 0. 0. 0. 0. 0. 0.]
2.4348461627960205,0.020977068692445755,0.006429120432585478,-0.4379410445690155,0.8987360000610352,[0. 0. 0. 0. 0. 0. 0. 0. 0.],-0.06103515625,-0.3662109375,-0.1220703125,[0. 0. 0. 0. 0. 0. 0. 0. 0.],-0.0302734375,0.03271484375,1.0048828125,[0. 0. 0. 0. 0. 0. 0. 0. 0.]
2.4598124027252197,0.022070303559303284,0.006495910231024027,-0.4379524290561676,0.8987037539482117,[0. 0. 0. 0. 0. 0. 0. 0. 0.],0.1220703125,-0.8544921875,-0.1220703125,[0. 0. 0. 0. 0. 0. 0. 0. 0.],-0.03125,0.0341796875,1.0048828125,[0. 0. 0. 0. 0. 0. 0. 0. 0.]
2.4858477115631104,0.021776340901851654,0.007112105842679739,-0.43798476457595825,0.8986904621124268,[0. 0. 0. 0. 0. 0. 0. 0. 0.],-0.244140625,-1.220703125,-0.1220703125,[0. 0. 0. 0. 0. 0. 0. 0. 0.],-0.03271484375,0.03271484375,1.00439453125,[0. 0. 0. 0. 0. 0. 0. 0. 0.]
2.4998438358306885,0.022000454366207123,0.006589933764189482,-0.437989741563797,0.8986865878105164,[0. 0. 0. 0. 0. 0. 0. 0. 0.],-0.3662109375,-0.6103515625,-0.06103515625,[0. 0. 0. 0. 0. 0. 0. 0. 0.],-0.03125,0.0341796875,1.00390625,[0. 0. 0. 0. 0. 0. 0. 0. 0.]
2.5210750102996826,0.021635157987475395,0.005651874002069235,-0.43800634145736694,0.8986937999725342,[0. 0. 0. 0. 0. 0. 0. 0. 0.],0.18310546875,-0.1220703125,-0.06103515625,[0. 0. 0. 0. 0. 0. 0. 0. 0.],-0.02978515625,0.0341796875,1.00341796875,[0. 0. 0. 0. 0. 0. 0. 0. 0.]
2.5471835136413574,0.02187829092144966,0.006616611033678055,-0.4380463659763336,0.898661732673645,[0. 0. 0. 0. 0. 0. 0. 0. 0.],0.18310546875,-0.3662109375,-0.1220703125,[0. 0. 0. 0. 0. 0. 0. 0. 0.],-0.03125,0.03369140625,1.00439453125,[0. 0. 0. 0. 0. 0. 0. 0. 0.]
2.5597259998321533,0.022713083773851395,0.006162785924971104,-0.438044935464859,0.8986450433731079,[0. 0. 0. 0. 0. 0. 0. 0. 0.],-0.42724609375,-1.15966796875,-0.244140625,[0. 0. 0. 0. 0. 0. 0. 0. 0.],-0.03125,0.03564453125,1.00341796875,[0. 0. 0. 0. 0. 0. 0. 0. 0.]
2.5802063941955566,0.022087307646870613,0.005519597791135311,-0.4380579888820648,0.8986583948135376,[0. 0. 0. 0. 0. 0. 0. 0. 0.],-0.18310546875,-0.91552734375,-0.30517578125,[0. 0. 0. 0. 0. 0. 0. 0. 0.],-0.029296875,0.03515625,1.00537109375,[0. 0. 0. 0. 0. 0. 0. 0. 0.]
2.5971364974975586,0.023124752566218376,0.005166026297956705,-0.43805384635925293,0.8986364006996155,[0. 0. 0. 0. 0. 0. 0. 0. 0.],0.18310546875,-0.3662109375,0.0,[0. 0. 0. 0. 0. 0. 0. 0. 0.],-0.02978515625,0.03662109375,1.00537109375,[0. 0. 0. 0. 0. 0. 0. 0. 0.]
2.62021803855896,0.022460898384451866,0.005542049650102854,-0.4380955994129181,0.8986306190490723,[0. 0. 0. 0. 0. 0. 0. 0. 0.],-0.18310546875,-0.30517578125,0.0,[0. 0. 0. 0. 0. 0. 0. 0. 0.],-0.02978515625,0.03564453125,1.00390625,[0. 0. 0. 0. 0. 0. 0. 0. 0.]
2.6399834156036377,0.022510988637804985,0.006263604387640953,-0.43813493847846985,0.898605465888977,[0. 0. 0. 0. 0. 0. 0. 0. 0.],-0.06103515625,-0.79345703125,0.0,[0. 0. 0. 0. 0. 0. 0. 0. 0.],-0.03125,0.03515625,1.00390625,[0. 0. 0. 0. 0. 0. 0. 0. 0.]
2.659893035888672,0.021610530093312263,0.006702130660414696,-0.4381832480430603,0.8986009359359741,[0. 0. 0. 0. 0. 0. 0. 0. 0.],0.18310546875,-0.732421875,-0.244140625,[0. 0. 0. 0. 0. 0. 0. 0. 0.],-0.03125,0.033203125,1.0048828125,[0. 0. 0. 0. 0. 0. 0. 0. 0.]
2.67970609664917,0.021624192595481873,0.00621652090921998,-0.4382011294364929,0.8985953330993652,[0. 0. 0. 0. 0. 0. 0. 0. 0.],0.0,-0.732421875,-0.18310546875,[0. 0. 0. 0. 0. 0. 0. 0. 0.],-0.0302734375,0.033203125,1.00439453125,[0. 0. 0. 0. 0. 0. 0. 0. 0.]
2.700711488723755,0.02224028669297695,0.006690924055874348,-0.4382210075855255,0.898567259311676,[0. 0. 0. 0. 0. 0. 0. 0. 0.],-0.244140625,-0.67138671875,-0.06103515625,[0. 0. 0. 0. 0. 0. 0. 0. 0.],-0.03173828125,0.0341796875,1.00390625,[0. 0. 0. 0. 0. 0. 0. 0. 0.]
2.7217330932617188,0.022735154256224632,0.006208417937159538,-0.4382443428039551,0.8985468745231628,[0. 0. 0. 0. 0. 0. 0. 0. 0.],-0.1220703125,-0.30517578125,-0.06103515625,[0. 0. 0. 0. 0. 0. 0. 0. 0.],-0.03125,0.03466796875,1.001953125,[0. 0. 0. 0. 0. 0. 0. 0. 0.]
2.7395870685577393,0.022269444540143013,0.005959995090961456,-0.4382716715335846,0.8985469341278076,[0. 0. 0. 0. 0. 0. 0. 0. 0.],0.18310546875,-0.6103515625,-0.244140625,[0. 0. 0. 0. 0. 0. 0. 0. 0.],-0.0302734375,0.03515625,1.00390625,[0. 0. 0. 0. 0. 0. 0. 0. 0.]
2.7595717906951904,0.021525796502828598,0.005968932528048754,-0.43831151723861694,0.8985455632209778,[0. 0. 0. 0. 0. 0. 0. 0. 0.],-0.244140625,-0.91552734375,-0.30517578125,[0. 0. 0. 0. 0. 0. 0. 0. 0.],-0.02978515625,0.03369140625,1.00341796875,[0. 0. 0. 0. 0. 0. 0. 0. 0.]
2.7797625064849854,0.022023942321538925,0.006579962093383074,-0.4383362829685211,0.8985171914100647,[0. 0. 0. 0. 0. 0. 0. 0. 0.],-0.30517578125,-1.0986328125,-0.244140625,[0. 0. 0. 0. 0. 0. 0. 0. 0.],-0.0322265625,0.0341796875,1.00341796875,[0. 0. 0. 0. 0. 0. 0. 0. 0.]
2.799579381942749,0.022671982645988464,0.006691113114356995,-0.4383491575717926,0.8984939455986023,[0. 0. 0. 0. 0. 0. 0. 0. 0.],-0.18310546875,-0.54931640625,-0.18310546875,[0. 0. 0. 0. 0. 0. 0. 0. 0.],-0.03173828125,0.03466796875,1.00341796875,[0. 0. 0. 0. 0. 0. 0. 0. 0.]
2.816455841064453,0.02189752086997032,0.006041917484253645,-0.43837493658065796,0.8985051512718201,[0. 0. 0. 0. 0. 0. 0. 0. 0.],0.06103515625,-0.18310546875,0.06103515625,[0. 0. 0. 0. 0. 0. 0. 0. 0.],-0.02978515625,0.0341796875,1.00390625,[0. 0. 0. 0. 0. 0. 0. 0. 0.]
2.8396823406219482,0.022103847935795784,0.007370439358055592,-0.4384276866912842,0.8984643816947937,[0. 0. 0. 0. 0. 0. 0. 0. 0.],-0.1220703125,-0.6103515625,-0.06103515625,[0. 0. 0. 0. 0. 0. 0. 0. 0.],-0.0322265625,0.033203125,1.0048828125,[0. 0. 0. 0. 0. 0. 0. 0. 0.]
2.8599634170532227,0.021616023033857346,0.006406758911907673,-0.4384485185146332,0.8984735012054443,[0. 0. 0. 0. 0. 0. 0. 0. 0.],0.1220703125,-0.8544921875,-0.244140625,[0. 0. 0. 0. 0. 0. 0. 0. 0.],-0.0302734375,0.03271484375,1.00341796875,[0. 0. 0. 0. 0. 0. 0. 0. 0.]
2.88033127784729,0.02141861617565155,0.006257845088839531,-0.438480019569397,0.8984639048576355,[0. 0. 0. 0. 0. 0. 0. 0. 0.],0.0,-0.79345703125,-0.3662109375,[0. 0. 0. 0. 0. 0. 0. 0. 0.],-0.0302734375,0.033203125,1.0048828125,[0. 0. 0. 0. 0. 0. 0. 0. 0.]
2.90114164352417,0.022541314363479614,0.006546278949826956,-0.4384893476963043,0.898429811000824,[0. 0. 0. 0. 0. 0. 0. 0. 0.],-0.244140625,-0.6103515625,-0.1220703125,[0. 0. 0. 0. 0. 0. 0. 0. 0.],-0.03125,0.03515625,1.0048828125,[0. 0. 0. 0. 0. 0. 0. 0. 0.]
2.9198086261749268,0.022557556629180908,0.0059752315282821655,-0.43850886821746826,0.8984238505363464,[0. 0. 0. 0. 0. 0. 0. 0. 0.],-0.18310546875,-0.48828125,-0.1220703125,[0. 0. 0. 0. 0. 0. 0. 0. 0.],-0.03076171875,0.03564453125,1.0048828125,[0. 0. 0. 0. 0. 0. 0. 0. 0.]
2.942779064178467,0.022766025736927986,0.006377535406500101,-0.43854525685310364,0.8983981609344482,[0. 0. 0. 0. 0. 0. 0. 0. 0.],0.1220703125,-0.18310546875,-0.18310546875,[0. 0. 0. 0. 0. 0. 0. 0. 0.],-0.03173828125,0.03515625,1.0048828125,[0. 0. 0. 0. 0. 0. 0. 0. 0.]
2.9600675106048584,0.022303931415081024,0.005971935112029314,-0.4385674297809601,0.8984017372131348,[0. 0. 0. 0. 0. 0. 0. 0. 0.],0.0,-0.91552734375,-0.1220703125,[0. 0. 0. 0. 0. 0. 0. 0. 0.],-0.03076171875,0.03515625,1.0048828125,[0. 0. 0. 0. 0. 0. 0. 0. 0.]
2.980147123336792,0.022268610075116158,0.005791334435343742,-0.43858852982521057,0.8983933329582214,[0. 0. 0. 0. 0. 0. 0. 0. 0.],-0.3662109375,-1.0986328125,-0.244140625,[0. 0. 0. 0. 0. 0. 0. 0. 0.],-0.02978515625,0.03515625,1.00439453125,[0. 0. 0. 0. 0. 0. 0. 0. 0.]
2.99969220161438,0.02248503640294075,0.006713686045259237,-0.43862006068229675,0.8983661532402039,[0. 0. 0. 0. 0. 0. 0. 0. 0.],-0.18310546875,-0.48828125,-0.18310546875,[0. 0. 0. 0. 0. 0. 0. 0. 0.],-0.03125,0.0341796875,1.00439453125,[0. 0. 0. 0. 0. 0. 0. 0. 0.]
3.0207319259643555,0.021257534623146057,0.005866164341568947,-0.4386471211910248,0.8983888626098633,[0. 0. 0. 0. 0. 0. 0. 0. 0.],0.1220703125,-0.1220703125,0.0,[0. 0. 0. 0. 0. 0. 0. 0. 0.],-0.02978515625,0.03369140625,1.005859375,[0. 0. 0. 0. 0. 0. 0. 0. 0.]
3.0354926586151123,0.021863266825675964,0.00705357501283288,-0.43868497014045715,0.8983472585678101,[0. 0. 0. 0. 0. 0. 0. 0. 0.],-0.06103515625,-0.67138671875,-0.1220703125,[0. 0. 0. 0. 0. 0. 0. 0. 0.],-0.03173828125,0.033203125,1.00439453125,[0. 0. 0. 0. 0. 0. 0. 0. 0.]
3.0608789920806885,0.021988222375512123,0.006892662029713392,-0.43871596455574036,0.8983302712440491,[0. 0. 0. 0. 0. 0. 0. 0. 0.],-0.30517578125,-1.15966796875,-0.30517578125,[0. 0. 0. 0. 0. 0. 0. 0. 0.],-0.03173828125,0.0341796875,1.001953125,[0. 0. 0. 0. 0. 0. 0. 0. 0.]
3.0800962448120117,0.02205728553235531,0.007014697417616844,-0.43873608112335205,0.8983178734779358,[0. 0. 0. 0. 0. 0. 0. 0. 0.],0.0,-0.67138671875,-0.1220703125,[0. 0. 0. 0. 0. 0. 0. 0. 0.],-0.0322265625,0.03369140625,1.0048828125,[0. 0. 0. 0. 0. 0. 0. 0. 0.]
3.099956750869751,0.023233609274029732,0.0066537559032440186,-0.43873360753059387,0.8982921838760376,[0. 0. 0. 0. 0. 0. 0. 0. 0.],-0.06103515625,-0.1220703125,-0.06103515625,[0. 0. 0. 0. 0. 0. 0. 0. 0.],-0.03271484375,0.0361328125,1.00390625,[0. 0. 0. 0. 0. 0. 0. 0. 0.]
3.1197619438171387,0.02250036410987377,0.00615237932652235,-0.43876680731773376,0.8982982635498047,[0. 0. 0. 0. 0. 0. 0. 0. 0.],-0.18310546875,-0.54931640625,0.06103515625,[0. 0. 0. 0. 0. 0. 0. 0. 0.],-0.03125,0.03515625,1.0048828125,[0. 0. 0. 0. 0. 0. 0. 0. 0.]
3.1363213062286377,0.021399060264229774,0.004808865953236818,-0.4387862980365753,0.8983238339424133,[0. 0. 0. 0. 0. 0. 0. 0. 0.],-0.06103515625,-0.8544921875,-0.18310546875,[0. 0. 0. 0. 0. 0. 0. 0. 0.],-0.0283203125,0.03466796875,1.00439453125,[0. 0. 0. 0. 0. 0. 0. 0. 0.]
3.1608593463897705,0.02215779572725296,0.0058396682143211365,-0.4388205409049988,0.8982825875282288,[0. 0. 0. 0. 0. 0. 0. 0. 0.],0.0,-0.8544921875,-0.30517578125,[0. 0. 0. 0. 0. 0. 0. 0. 0.],-0.0302734375,0.03466796875,1.0048828125,[0. 0. 0. 0. 0. 0. 0. 0. 0.]
3.1799867153167725,0.0222923643887043,0.00593037623912096,-0.4388422966003418,0.8982679843902588,[0. 0. 0. 0. 0. 0. 0. 0. 0.],-0.18310546875,-0.732421875,-0.06103515625,[0. 0. 0. 0. 0. 0. 0. 0. 0.],-0.0302734375,0.03515625,1.00341796875,[0. 0. 0. 0. 0. 0. 0. 0. 0.]
3.1999053955078125,0.022634020075201988,0.006462277844548225,-0.43886590003967285,0.8982442617416382,[0. 0. 0. 0. 0. 0. 0. 0. 0.],-0.18310546875,-0.54931640625,0.1220703125,[0. 0. 0. 0. 0. 0. 0. 0. 0.],-0.03173828125,0.03466796875,1.00439453125,[0. 0. 0. 0. 0. 0. 0. 0. 0.]
3.221859931945801,0.021944038569927216,0.006305038928985596,-0.4388938844203949,0.8982488512992859,[0. 0. 0. 0. 0. 0. 0. 0. 0.],0.18310546875,-0.30517578125,-0.06103515625,[0. 0. 0. 0. 0. 0. 0. 0. 0.],-0.03076171875,0.03466796875,1.00439453125,[0. 0. 0. 0. 0. 0. 0. 0. 0.]
3.2397594451904297,0.021681567654013634,0.005554783623665571,-0.43889495730400085,0.898259699344635,[0. 0. 0. 0. 0. 0. 0. 0. 0.],0.1220703125,-0.3662109375,-0.18310546875,[0. 0. 0. 0. 0. 0. 0. 0. 0.],-0.02978515625,0.03369140625,1.00244140625,[0. 0. 0. 0. 0. 0. 0. 0. 0.]
3.2597484588623047,0.022364914417266846,0.004683046136051416,-0.4388989806175232,0.8982458710670471,[0. 0. 0. 0. 0. 0. 0. 0. 0.],-0.18310546875,-0.9765625,-0.244140625,[0. 0. 0. 0. 0. 0. 0. 0. 0.],-0.02880859375,0.0361328125,1.00439453125,[0. 0. 0. 0. 0. 0. 0. 0. 0.]
3.2809386253356934,0.022698596119880676,0.006291316356509924,-0.43895456194877625,0.8982005715370178,[0. 0. 0. 0. 0. 0. 0. 0. 0.],-0.18310546875,-0.9765625,-0.3662109375,[0. 0. 0. 0. 0. 0. 0. 0. 0.],-0.03125,0.03564453125,1.00341796875,[0. 0. 0. 0. 0. 0. 0. 0. 0.]
3.296609401702881,0.021367473527789116,0.006542891729623079,-0.43899866938591003,0.8982098698616028,[0. 0. 0. 0. 0. 0. 0. 0. 0.],0.0,-0.30517578125,0.0,[0. 0. 0. 0. 0. 0. 0. 0. 0.],-0.03076171875,0.033203125,1.00390625,[0. 0. 0. 0. 0. 0. 0. 0. 0.]
3.3195652961730957,0.02221059426665306,0.006886116694658995,-0.43900635838508606,0.8981829881668091,[0. 0. 0. 0. 0. 0. 0. 0. 0.],-0.1220703125,-0.3662109375,-0.1220703125,[0. 0. 0. 0. 0. 0. 0. 0. 0.],-0.03173828125,0.03369140625,1.00439453125,[0. 0. 0. 0. 0. 0. 0. 0. 0.]
3.339989423751831,0.02187543734908104,0.0050866627134382725,-0.4390081465244293,0.8982023000717163,[0. 0. 0. 0. 0. 0. 0. 0. 0.],-0.3662109375,-0.6103515625,-0.06103515625,[0. 0. 0. 0. 0. 0. 0. 0. 0.],-0.02880859375,0.03466796875,1.00537109375,[0. 0. 0. 0. 0. 0. 0. 0. 0.]
3.358729124069214,0.022242607548832893,0.004552958067506552,-0.43901586532592773,0.8981923460960388,[0. 0. 0. 0. 0. 0. 0. 0. 0.],0.0,-0.732421875,-0.18310546875,[0. 0. 0. 0. 0. 0. 0. 0. 0.],-0.02783203125,0.0361328125,1.00439453125,[0. 0. 0. 0. 0. 0. 0. 0. 0.]
3.3797447681427,0.022993044927716255,0.005894072353839874,-0.4390448331832886,0.8981515765190125,[0. 0. 0. 0. 0. 0. 0. 0. 0.],0.0,-0.8544921875,-0.244140625,[0. 0. 0. 0. 0. 0. 0. 0. 0.],-0.03125,0.0361328125,1.00537109375,[0. 0. 0. 0. 0. 0. 0. 0. 0.]
3.399965524673462,0.022954467684030533,0.006637786980718374,-0.43908488750457764,0.8981277942657471,[0. 0. 0. 0. 0. 0. 0. 0. 0.],-0.244140625,-0.54931640625,-0.1220703125,[0. 0. 0. 0. 0. 0. 0. 0. 0.],-0.0322265625,0.03564453125,1.00390625,[0. 0. 0. 0. 0. 0. 0. 0. 0.]
3.4198639392852783,0.021912742406129837,0.005061675328761339,-0.43910107016563416,0.8981562852859497,[0. 0. 0. 0. 0. 0. 0. 0. 0.],0.0,-0.42724609375,0.06103515625,[0. 0. 0. 0. 0. 0. 0. 0. 0.],-0.0283203125,0.03515625,1.00537109375,[0. 0. 0. 0. 0. 0. 0. 0. 0.]
3.4396679401397705,0.021307485178112984,0.005676086526364088,-0.43914756178855896,0.8981443047523499,[0. 0. 0. 0. 0. 0. 0. 0. 0.],0.1220703125,-0.54931640625,-0.06103515625,[0. 0. 0. 0. 0. 0. 0. 0. 0.],-0.029296875,0.033203125,1.0048828125,[0. 0. 0. 0. 0. 0. 0. 0. 0.]
3.4596548080444336,0.02202277071774006,0.005650180857628584,-0.4391637444496155,0.8981192708015442,[0. 0. 0. 0. 0. 0. 0. 0. 0.],-0.06103515625,-1.0986328125,-0.30517578125,[0. 0. 0. 0. 0. 0. 0. 0. 0.],-0.0302734375,0.03515625,1.0048828125,[0. 0. 0. 0. 0. 0. 0. 0. 0.]
3.4798388481140137,0.022066527977585793,0.006187821738421917,-0.4391964375972748,0.8980987071990967,[0. 0. 0. 0. 0. 0. 0. 0. 0.],-0.42724609375,-0.91552734375,-0.1220703125,[0. 0. 0. 0. 0. 0. 0. 0. 0.],-0.03125,0.03466796875,1.0029296875,[0. 0. 0. 0. 0. 0. 0. 0. 0.]
3.499979019165039,0.022546974942088127,0.0055444673635065556,-0.43920642137527466,0.8980860710144043,[0. 0. 0. 0. 0. 0. 0. 0. 0.],0.06103515625,-0.1220703125,-0.18310546875,[0. 0. 0. 0. 0. 0. 0. 0. 0.],-0.0302734375,0.03564453125,1.00390625,[0. 0. 0. 0. 0. 0. 0. 0. 0.]
3.519747495651245,0.022188367322087288,0.0066655948758125305,-0.43926313519477844,0.8980597257614136,[0. 0. 0. 0. 0. 0. 0. 0. 0.],0.18310546875,-0.18310546875,0.0,[0. 0. 0. 0. 0. 0. 0. 0. 0.],-0.03173828125,0.0341796875,1.00341796875,[0. 0. 0. 0. 0. 0. 0. 0. 0.]
3.542997121810913,0.022487735375761986,0.0057948012836277485,-0.4392789304256439,0.8980505466461182,[0. 0. 0. 0. 0. 0. 0. 0. 0.],-0.18310546875,-0.54931640625,-0.06103515625,[0. 0. 0. 0. 0. 0. 0. 0. 0.],-0.0302734375,0.03564453125,1.00634765625,[0. 0. 0. 0. 0. 0. 0. 0. 0.]
3.5599753856658936,0.02283596433699131,0.00525705749168992,-0.43928343057632446,0.8980429172515869,[0. 0. 0. 0. 0. 0. 0. 0. 0.],-0.1220703125,-1.15966796875,-0.244140625,[0. 0. 0. 0. 0. 0. 0. 0. 0.],-0.02978515625,0.03662109375,1.00439453125,[0. 0. 0. 0. 0. 0. 0. 0. 0.]
3.5768957138061523,0.022820958867669106,0.005039066541939974,-0.4392942488193512,0.8980392217636108,[0. 0. 0. 0. 0. 0. 0. 0. 0.],0.1220703125,-0.54931640625,0.0,[0. 0. 0. 0. 0. 0. 0. 0. 0.],-0.029296875,0.03662109375,1.0048828125,[0. 0. 0. 0. 0. 0. 0. 0. 0.]
3.6001791954040527,0.02229495905339718,0.006721814628690481,-0.4393470585346222,0.898015558719635,[0. 0. 0. 0. 0. 0. 0. 0. 0.],-0.18310546875,-0.30517578125,-0.06103515625,[0. 0. 0. 0. 0. 0. 0. 0. 0.],-0.03271484375,0.03369140625,1.005859375,[0. 0. 0. 0. 0. 0. 0. 0. 0.]
3.619943380355835,0.021612582728266716,0.00727958744391799,-0.43939879536628723,0.898002564907074,[0. 0. 0. 0. 0. 0. 0. 0. 0.],-0.1220703125,-0.42724609375,0.0,[0. 0. 0. 0. 0. 0. 0. 0. 0.],-0.0322265625,0.03271484375,1.0029296875,[0. 0. 0. 0. 0. 0. 0. 0. 0.]
3.639702081680298,0.022361736744642258,0.006014540325850248,-0.43939289450645447,0.8979965448379517,[0. 0. 0. 0. 0. 0. 0. 0. 0.],0.1220703125,-0.79345703125,-0.1220703125,[0. 0. 0. 0. 0. 0. 0. 0. 0.],-0.03076171875,0.0341796875,1.00439453125,[0. 0. 0. 0. 0. 0. 0. 0. 0.]
3.659738063812256,0.022275356575846672,0.006109083537012339,-0.4394155740737915,0.8979869484901428,[0. 0. 0. 0. 0. 0. 0. 0. 0.],0.0,-0.91552734375,-0.18310546875,[0. 0. 0. 0. 0. 0. 0. 0. 0.],-0.03076171875,0.03466796875,1.00439453125,[0. 0. 0. 0. 0. 0. 0. 0. 0.]
3.6800906658172607,0.022159410640597343,0.006628761533647776,-0.43943366408348083,0.8979772925376892,[0. 0. 0. 0. 0. 0. 0. 0. 0.],-0.30517578125,-0.79345703125,-0.1220703125,[0. 0. 0. 0. 0. 0. 0. 0. 0.],-0.03173828125,0.0341796875,1.00244140625,[0. 0. 0. 0. 0. 0. 0. 0. 0.]
3.700697898864746,0.022442730143666267,0.006454245187342167,-0.43945828080177307,0.8979594111442566,[0. 0. 0. 0. 0. 0. 0. 0. 0.],-0.1220703125,-0.67138671875,-0.18310546875,[0. 0. 0. 0. 0. 0. 0. 0. 0.],-0.03173828125,0.03466796875,1.00390625,[0. 0. 0. 0. 0. 0. 0. 0. 0.]
3.715904712677002,0.02255239337682724,0.005189903080463409,-0.4394686818122864,0.8979597091674805,[0. 0. 0. 0. 0. 0. 0. 0. 0.],0.1220703125,-0.06103515625,-0.06103515625,[0. 0. 0. 0. 0. 0. 0. 0. 0.],-0.029296875,0.0361328125,1.00390625,[0. 0. 0. 0. 0. 0. 0. 0. 0.]
3.741567611694336,0.022197561338543892,0.006447941996157169,-0.4395286738872528,0.8979311585426331,[0. 0. 0. 0. 0. 0. 0. 0. 0.],-0.06103515625,-0.6103515625,-0.1220703125,[0. 0. 0. 0. 0. 0. 0. 0. 0.],-0.03076171875,0.03466796875,1.00390625,[0. 0. 0. 0. 0. 0. 0. 0. 0.]
3.755194664001465,0.022738538682460785,0.006534697953611612,-0.4395415484905243,0.8979105949401855,[0. 0. 0. 0. 0. 0. 0. 0. 0.],-0.244140625,-1.0986328125,-0.18310546875,[0. 0. 0. 0. 0. 0. 0. 0. 0.],-0.0322265625,0.03564453125,1.00537109375,[0. 0. 0. 0. 0. 0. 0. 0. 0.]
3.7806522846221924,0.023297667503356934,0.006901346612721682,-0.4395487308502197,0.897890031337738,[0. 0. 0. 0. 0. 0. 0. 0. 0.],-0.06103515625,-0.732421875,-0.1220703125,[0. 0. 0. 0. 0. 0. 0. 0. 0.],-0.03271484375,0.03515625,1.00439453125,[0. 0. 0. 0. 0. 0. 0. 0. 0.]
3.7957024574279785,0.02259100042283535,0.005488207563757896,-0.4395429193973541,0.8979207277297974,[0. 0. 0. 0. 0. 0. 0. 0. 0.],-0.06103515625,-0.3662109375,0.06103515625,[0. 0. 0. 0. 0. 0. 0. 0. 0.],-0.02978515625,0.0361328125,1.00439453125,[0. 0. 0. 0. 0. 0. 0. 0. 0.]
3.818540096282959,0.022305840626358986,0.005471117794513702,-0.439576119184494,0.8979116678237915,[0. 0. 0. 0. 0. 0. 0. 0. 0.],-0.30517578125,-0.54931640625,-0.06103515625,[0. 0. 0. 0. 0. 0. 0. 0. 0.],-0.02978515625,0.03515625,1.00439453125,[0. 0. 0. 0. 0. 0. 0. 0. 0.]
3.840636730194092,0.022212963551282883,0.0054893456399440765,-0.4396146535873413,0.8978950381278992,[0. 0. 0. 0. 0. 0. 0. 0. 0.],-0.06103515625,-0.67138671875,-0.18310546875,[0. 0. 0. 0. 0. 0. 0. 0. 0.],-0.029296875,0.03466796875,1.00390625,[0. 0. 0. 0. 0. 0. 0. 0. 0.]
3.8602137565612793,0.0227806456387043,0.006800245027989149,-0.43964630365371704,0.8978563547134399,[0. 0. 0. 0. 0. 0. 0. 0. 0.],0.0,-0.8544921875,-0.18310546875,[0. 0. 0. 0. 0. 0. 0. 0. 0.],-0.03271484375,0.03466796875,1.00390625,[0. 0. 0. 0. 0. 0. 0. 0. 0.]
3.8759243488311768,0.02308419533073902,0.0062836939468979836,-0.43965861201286316,0.8978464007377625,[0. 0. 0. 0. 0. 0. 0. 0. 0.],-0.244140625,-0.8544921875,-0.244140625,[0. 0. 0. 0. 0. 0. 0. 0. 0.],-0.03173828125,0.03564453125,1.00341796875,[0. 0. 0. 0. 0. 0. 0. 0. 0.]
3.9002187252044678,0.02273927442729473,0.0055280206725001335,-0.4396757483482361,0.8978517055511475,[0. 0. 0. 0. 0. 0. 0. 0. 0.],-0.42724609375,-0.67138671875,-0.06103515625,[0. 0. 0. 0. 0. 0. 0. 0. 0.],-0.0302734375,0.0361328125,1.0048828125,[0. 0. 0. 0. 0. 0. 0. 0. 0.]
3.9199843406677246,0.021934080868959427,0.0056600202806293964,-0.43971002101898193,0.8978540897369385,[0. 0. 0. 0. 0. 0. 0. 0. 0.],0.18310546875,-0.18310546875,0.0,[0. 0. 0. 0. 0. 0. 0. 0. 0.],-0.02978515625,0.03466796875,1.00634765625,[0. 0. 0. 0. 0. 0. 0. 0. 0.]
3.9402239322662354,0.022942418232560158,0.006725238170474768,-0.43971875309944153,0.8978172540664673,[0. 0. 0. 0. 0. 0. 0. 0. 0.],0.1220703125,-0.48828125,0.18310546875,[0. 0. 0. 0. 0. 0. 0. 0. 0.],-0.033203125,0.03564453125,1.0048828125,[0. 0. 0. 0. 0. 0. 0. 0. 0.]
3.9640085697174072,0.02390102483332157,0.007064389064908028,-0.43964025378227234,0.8978281617164612,[0. 0. 0. 0. 0. 0. 0. 0. 0.],-0.54931640625,0.06103515625,-0.1220703125,[0. 0. 0. 0. 0. 0. 0. 0. 0.],-0.02978515625,0.0380859375,1.00634765625,[0. 0. 0. 0. 0. 0. 0. 0. 0.]
3.9796295166015625,0.023565780371427536,0.005382698494940996,-0.4397696554660797,0.8977853655815125,[0. 0. 0. 0. 0. 0. 0. 0. 0.],-0.06103515625,0.6103515625,-1.64794921875,[0. 0. 0. 0. 0. 0. 0. 0. 0.],-0.02197265625,0.03955078125,0.99853515625,[0. 0. 0. 0. 0. 0. 0. 0. 0.]
4.001160383224487,0.02144789695739746,0.005912854336202145,-0.44024327397346497,0.897602915763855,[0. 0. 0. 0. 0. 0. 0. 0. 0.],-10.3759765625,3.5400390625,-3.41796875,[0. 0. 0. 0. 0. 0. 0. 0. 0.],-0.01953125,-0.07666015625,0.92041015625,[0. 0. 0. 0. 0. 0. 0. 0. 0.]
4.019846677780151,0.017914434894919395,0.008859666995704174,-0.4408969581127167,0.8973352313041687,[0. 0. 0. 0. 0. 0. 0. 0. 0.],-15.19775390625,4.21142578125,-6.77490234375,[0. 0. 0. 0. 0. 0. 0. 0. 0.],-0.0615234375,-0.353515625,0.99853515625,[0. 0. 0. 0. 0. 0. 0. 0. 0.]
4.039765357971191,0.015534590929746628,0.012439176440238953,-0.4415546953678131,0.8970136642456055,[0. 0. 0. 0. 0. 0. 0. 0. 0.],-10.7421875,8.11767578125,-7.4462890625,[0. 0. 0. 0. 0. 0. 0. 0. 0.],-0.076171875,-0.35302734375,1.08984375,[0. 0. 0. 0. 0. 0. 0. 0. 0.]
4.060892343521118,0.014009860344231129,0.014463633298873901,-0.44311124086380005,0.8962404727935791,[0. 0. 0. 0. 0. 0. 0. 0. 0.],-3.173828125,1.40380859375,-13.3056640625,[0. 0. 0. 0. 0. 0. 0. 0. 0.],-0.033203125,-0.31201171875,1.06103515625,[0. 0. 0. 0. 0. 0. 0. 0. 0.]
4.079843044281006,0.012433253228664398,0.016443738713860512,-0.4453546106815338,0.895116925239563,[0. 0. 0. 0. 0. 0. 0. 0. 0.],-6.9580078125,4.69970703125,-17.27294921875,[0. 0. 0. 0. 0. 0. 0. 0. 0.],-0.06005859375,-0.25439453125,0.93603515625,[0. 0. 0. 0. 0. 0. 0. 0. 0.]
4.09979510307312,0.010475078597664833,0.017820561304688454,-0.44855499267578125,0.8935161828994751,[0. 0. 0. 0. 0. 0. 0. 0. 0.],-2.5634765625,2.8076171875,-23.193359375,[0. 0. 0. 0. 0. 0. 0. 0. 0.],-0.04052734375,-0.27099609375,0.99609375,[0. 0. 0. 0. 0. 0. 0. 0. 0.]
4.1203320026397705,0.009054535068571568,0.01908128336071968,-0.45270514488220215,0.8914101123809814,[0. 0. 0. 0. 0. 0. 0. 0. 0.],-0.67138671875,4.39453125,-28.50341796875,[0. 0. 0. 0. 0. 0. 0. 0. 0.],-0.03369140625,-0.2802734375,1.01708984375,[0. 0. 0. 0. 0. 0. 0. 0. 0.]
4.139614105224609,0.0076003302820026875,0.020798174664378166,-0.45739278197288513,0.8889890909194946,[0. 0. 0. 0. 0. 0. 0. 0. 0.],-2.38037109375,5.4931640625,-31.18896484375,[0. 0. 0. 0. 0. 0. 0. 0. 0.],-0.07666015625,-0.24365234375,0.92822265625,[0. 0. 0. 0. 0. 0. 0. 0. 0.]
4.161696195602417,0.005322313401848078,0.02215566486120224,-0.462898850440979,0.8861182332038879,[0. 0. 0. 0. 0. 0. 0. 0. 0.],-4.57763671875,1.8310546875,-36.62109375,[0. 0. 0. 0. 0. 0. 0. 0. 0.],-0.0859375,-0.255859375,0.92138671875,[0. 0. 0. 0. 0. 0. 0. 0. 0.]
4.1811816692352295,0.004326855763792992,0.024524839594960213,-0.4687647819519043,0.8829719424247742,[0. 0. 0. 0. 0. 0. 0. 0. 0.],4.39453125,13.12255859375,-37.04833984375,[0. 0. 0. 0. 0. 0. 0. 0. 0.],-0.072265625,-0.35107421875,1.11962890625,[0. 0. 0. 0. 0. 0. 0. 0. 0.]
4.205995798110962,0.004190999548882246,0.026205744594335556,-0.476538747549057,0.8787528872489929,[0. 0. 0. 0. 0. 0. 0. 0. 0.],3.23486328125,5.18798828125,-39.9169921875,[0. 0. 0. 0. 0. 0. 0. 0. 0.],-0.1611328125,-0.26220703125,0.970703125,[0. 0. 0. 0. 0. 0. 0. 0. 0.]
4.219320297241211,0.003721813438460231,0.02683776244521141,-0.4815215766429901,0.8760154247283936,[0. 0. 0. 0. 0. 0. 0. 0. 0.],6.16455078125,-0.48828125,-43.3349609375,[0. 0. 0. 0. 0. 0. 0. 0. 0.],-0.1533203125,-0.2109375,0.9306640625,[0. 0. 0. 0. 0. 0. 0. 0. 0.]
4.239936828613281,0.002900263760238886,0.028434626758098602,-0.488238662481308,0.8722419142723083,[0. 0. 0. 0. 0. 0. 0. 0. 0.],-1.77001953125,-0.6103515625,-46.142578125,[0. 0. 0. 0. 0. 0. 0. 0. 0.],-0.1728515625,-0.1669921875,0.88720703125,[0. 0. 0. 0. 0. 0. 0. 0. 0.]
4.259676218032837,0.0012229009298607707,0.03037678636610508,-0.49546512961387634,0.8680956959724426,[0. 0. 0. 0. 0. 0. 0. 0. 0.],-2.38037109375,-2.197265625,-49.31640625,[0. 0. 0. 0. 0. 0. 0. 0. 0.],-0.1455078125,-0.19921875,0.90966796875,[0. 0. 0. 0. 0. 0. 0. 0. 0.]
4.280001401901245,-0.00037901036557741463,0.03243838995695114,-0.5029343962669373,0.8637155890464783,[0. 0. 0. 0. 0. 0. 0. 0. 0.],0.79345703125,-1.89208984375,-51.45263671875,[0. 0. 0. 0. 0. 0. 0. 0. 0.],-0.13525390625,-0.2412109375,1.01318359375,[0. 0. 0. 0. 0. 0. 0. 0. 0.]
4.299639701843262,-0.001541013247333467,0.0344233363866806,-0.510391354560852,0.8592516183853149,[0. 0. 0. 0. 0. 0. 0. 0. 0.],-2.5634765625,-1.15966796875,-51.08642578125,[0. 0. 0. 0. 0. 0. 0. 0. 0.],-0.16650390625,-0.1845703125,0.96826171875,[0. 0. 0. 0. 0. 0. 0. 0. 0.]
4.320149660110474,-0.002842629561200738,0.03599955886602402,-0.5178061723709106,0.8547354340553284,[0. 0. 0. 0. 0. 0. 0. 0. 0.],-1.40380859375,-5.126953125,-50.84228515625,[0. 0. 0. 0. 0. 0. 0. 0. 0.],-0.16845703125,-0.20458984375,1.064453125,[0. 0. 0. 0. 0. 0. 0. 0. 0.]
4.3365232944488525,-0.004951081704348326,0.03694598749279976,-0.5250505805015564,0.8502542972564697,[0. 0. 0. 0. 0. 0. 0. 0. 0.],-5.67626953125,-9.6435546875,-49.49951171875,[0. 0. 0. 0. 0. 0. 0. 0. 0.],-0.14794921875,-0.25341796875,1.03515625,[0. 0. 0. 0. 0. 0. 0. 0. 0.]
4.360005855560303,-0.00689656799659133,0.03755931928753853,-0.5319720506668091,0.8459003567695618,[0. 0. 0. 0. 0. 0. 0. 0. 0.],-1.64794921875,-3.84521484375,-47.36328125,[0. 0. 0. 0. 0. 0. 0. 0. 0.],-0.03955078125,-0.32275390625,1.10693359375,[0. 0. 0. 0. 0. 0. 0. 0. 0.]
4.374827146530151,-0.008521986193954945,0.038076769560575485,-0.5378377437591553,0.8421449661254883,[0. 0. 0. 0. 0. 0. 0. 0. 0.],-1.0986328125,0.67138671875,-36.0107421875,[0. 0. 0. 0. 0. 0. 0. 0. 0.],-0.08642578125,-0.27783203125,0.861328125,[0. 0. 0. 0. 0. 0. 0. 0. 0.]
4.401211738586426,-0.010564036667346954,0.03852837160229683,-0.5426664352416992,0.8389977812767029,[0. 0. 0. 0. 0. 0. 0. 0. 0.],1.220703125,-3.11279296875,-28.80859375,[0. 0. 0. 0. 0. 0. 0. 0. 0.],-0.029296875,-0.2998046875,1.04638671875,[0. 0. 0. 0. 0. 0. 0. 0. 0.]
4.414740562438965,-0.012311086989939213,0.03776809945702553,-0.5459645986557007,0.836866021156311,[0. 0. 0. 0. 0. 0. 0. 0. 0.],5.126953125,-8.544921875,-17.578125,[0. 0. 0. 0. 0. 0. 0. 0. 0.],-0.04541015625,-0.25634765625,1.1083984375,[0. 0. 0. 0. 0. 0. 0. 0. 0.]
4.435695171356201,-0.0133002158254385,0.03687654063105583,-0.5478448867797852,0.8356609344482422,[0. 0. 0. 0. 0. 0. 0. 0. 0.],6.34765625,-1.220703125,-9.6435546875,[0. 0. 0. 0. 0. 0. 0. 0. 0.],0.0498046875,-0.2080078125,0.919921875,[0. 0. 0. 0. 0. 0. 0. 0. 0.]
4.460392951965332,-0.014805716462433338,0.03765944018959999,-0.5485795140266418,0.8351185917854309,[0. 0. 0. 0. 0. 0. 0. 0. 0.],-5.92041015625,-2.5634765625,-2.9296875,[0. 0. 0. 0. 0. 0. 0. 0. 0.],-0.05712890625,-0.14892578125,0.79345703125,[0. 0. 0. 0. 0. 0. 0. 0. 0.]
4.4747984409332275,-0.01650298945605755,0.03863191977143288,-0.5484629273414612,0.8351190090179443,[0. 0. 0. 0. 0. 0. 0. 0. 0.],5.126953125,-7.99560546875,-0.6103515625,[0. 0. 0. 0. 0. 0. 0. 0. 0.],-0.064453125,-0.2060546875,1.16357421875,[0. 0. 0. 0. 0. 0. 0. 0. 0.]
4.49975061416626,-0.0172337144613266,0.037633296102285385,-0.5486679673194885,0.835015058517456,[0. 0. 0. 0. 0. 0. 0. 0. 0.],8.48388671875,2.3193359375,-0.54931640625,[0. 0. 0. 0. 0. 0. 0. 0. 0.],0.015625,-0.158203125,1.06103515625,[0. 0. 0. 0. 0. 0. 0. 0. 0.]
4.520450592041016,-0.018401287496089935,0.03845500573515892,-0.549017608165741,0.8347228765487671,[0. 0. 0. 0. 0. 0. 0. 0. 0.],-4.39453125,1.64794921875,-2.74658203125,[0. 0. 0. 0. 0. 0. 0. 0. 0.],-0.02978515625,-0.08544921875,0.7958984375,[0. 0. 0. 0. 0. 0. 0. 0. 0.]
4.539875268936157,-0.020059935748577118,0.04071183130145073,-0.5492639541625977,0.83441561460495,[0. 0. 0. 0. 0. 0. 0. 0. 0.],-7.568359375,0.54931640625,-3.60107421875,[0. 0. 0. 0. 0. 0. 0. 0. 0.],-0.0576171875,-0.1201171875,0.86669921875,[0. 0. 0. 0. 0. 0. 0. 0. 0.]
4.561384201049805,-0.021649261936545372,0.04196993634104729,-0.5497310161590576,0.8340058326721191,[0. 0. 0. 0. 0. 0. 0. 0. 0.],1.77001953125,-1.5869140625,-2.25830078125,[0. 0. 0. 0. 0. 0. 0. 0. 0.],-0.0703125,-0.14453125,1.0703125,[0. 0. 0. 0. 0. 0. 0. 0. 0.]
4.584156513214111,-0.02170683816075325,0.041638314723968506,-0.5502194762229919,0.8336987495422363,[0. 0. 0. 0. 0. 0. 0. 0. 0.],12.14599609375,-7.87353515625,-2.62451171875,[0. 0. 0. 0. 0. 0. 0. 0. 0.],-0.0830078125,-0.1220703125,1.18603515625,[0. 0. 0. 0. 0. 0. 0. 0. 0.]
4.599685907363892,-0.020155608654022217,0.03935824707150459,-0.5510137677192688,0.8333238363265991,[0. 0. 0. 0. 0. 0. 0. 0. 0.],10.31494140625,-0.1220703125,-6.40869140625,[0. 0. 0. 0. 0. 0. 0. 0. 0.],0.01904296875,-0.0546875,1.10498046875,[0. 0. 0. 0. 0. 0. 0. 0. 0.]
4.619936466217041,-0.0191971305757761,0.037343695759773254,-0.551863431930542,0.8328767418861389,[0. 0. 0. 0. 0. 0. 0. 0. 0.],5.0048828125,7.8125,-5.18798828125,[0. 0. 0. 0. 0. 0. 0. 0. 0.],-0.0048828125,-0.04345703125,0.94775390625,[0. 0. 0. 0. 0. 0. 0. 0. 0.]
4.641922473907471,-0.017511742189526558,0.035700686275959015,-0.5527756810188293,0.8323808908462524,[0. 0. 0. 0. 0. 0. 0. 0. 0.],6.34765625,-5.79833984375,-3.662109375,[0. 0. 0. 0. 0. 0. 0. 0. 0.],-0.0888671875,-0.0419921875,1.02392578125,[0. 0. 0. 0. 0. 0. 0. 0. 0.]
4.659960985183716,-0.016490953043103218,0.035481441766023636,-0.5531103610992432,0.8321887254714966,[0. 0. 0. 0. 0. 0. 0. 0. 0.],-1.3427734375,-1.8310546875,-4.08935546875,[0. 0. 0. 0. 0. 0. 0. 0. 0.],-0.044921875,0.009765625,0.89501953125,[0. 0. 0. 0. 0. 0. 0. 0. 0.]
4.679904222488403,-0.015417254529893398,0.035281531512737274,-0.5536355376243591,0.831868588924408,[0. 0. 0. 0. 0. 0. 0. 0. 0.],0.79345703125,3.173828125,-3.2958984375,[0. 0. 0. 0. 0. 0. 0. 0. 0.],-0.05322265625,-0.04443359375,0.92431640625,[0. 0. 0. 0. 0. 0. 0. 0. 0.]
4.699747085571289,-0.01374237984418869,0.03367670997977257,-0.5542678833007812,0.8315432667732239,[0. 0. 0. 0. 0. 0. 0. 0. 0.],8.056640625,-0.18310546875,-3.96728515625,[0. 0. 0. 0. 0. 0. 0. 0. 0.],-0.052734375,-0.0458984375,1.1416015625,[0. 0. 0. 0. 0. 0. 0. 0. 0.]
4.719731092453003,-0.012152488343417645,0.03165646269917488,-0.5548589825630188,0.831253170967102,[0. 0. 0. 0. 0. 0. 0. 0. 0.],8.11767578125,-18.85986328125,-5.31005859375,[0. 0. 0. 0. 0. 0. 0. 0. 0.],-0.119140625,-0.01318359375,0.982421875,[0. 0. 0. 0. 0. 0. 0. 0. 0.]
4.739745616912842,-0.011186718940734863,0.030987152829766273,-0.5554671883583069,0.8308855891227722,[0. 0. 0. 0. 0. 0. 0. 0. 0.],-8.85009765625,12.0849609375,-3.41796875,[0. 0. 0. 0. 0. 0. 0. 0. 0.],0.03564453125,0.0390625,0.7802734375,[0. 0. 0. 0. 0. 0. 0. 0. 0.]
4.762110233306885,-0.011004883795976639,0.03254205361008644,-0.5560036897659302,0.8304697275161743,[0. 0. 0. 0. 0. 0. 0. 0. 0.],-13.85498046875,5.79833984375,-5.859375,[0. 0. 0. 0. 0. 0. 0. 0. 0.],-0.0712890625,0.01416015625,0.8798828125,[0. 0. 0. 0. 0. 0. 0. 0. 0.]
4.77546501159668,-0.010278735309839249,0.03475189954042435,-0.5578595399856567,0.829143762588501,[0. 0. 0. 0. 0. 0. 0. 0. 0.],-3.23486328125,4.82177734375,-19.83642578125,[0. 0. 0. 0. 0. 0. 0. 0. 0.],-0.1142578125,0.0078125,1.09228515625,[0. 0. 0. 0. 0. 0. 0. 0. 0.]
4.799976348876953,-0.007757020182907581,0.035018131136894226,-0.5620972514152527,0.8262930512428284,[0. 0. 0. 0. 0. 0. 0. 0. 0.],8.60595703125,6.40869140625,-34.72900390625,[0. 0. 0. 0. 0. 0. 0. 0. 0.],-0.1171875,0.00390625,1.19091796875,[0. 0. 0. 0. 0. 0. 0. 0. 0.]
4.81981897354126,-0.004431235138326883,0.03609051927924156,-0.5687422156333923,0.8217117190361023,[0. 0. 0. 0. 0. 0. 0. 0. 0.],5.67626953125,9.21630859375,-51.08642578125,[0. 0. 0. 0. 0. 0. 0. 0. 0.],-0.1376953125,0.01708984375,1.03125,[0. 0. 0. 0. 0. 0. 0. 0. 0.]
4.83992600440979,-0.0014064977876842022,0.037861019372940063,-0.5772868990898132,0.8156619071960449,[0. 0. 0. 0. 0. 0. 0. 0. 0.],8.36181640625,18.24951171875,-63.96484375,[0. 0. 0. 0. 0. 0. 0. 0. 0.],-0.16796875,0.05322265625,1.013671875,[0. 0. 0. 0. 0. 0. 0. 0. 0.]
4.8601438999176025,0.0013493249425664544,0.037699922919273376,-0.5876842141151428,0.8082104921340942,[0. 0. 0. 0. 0. 0. 0. 0. 0.],10.3759765625,-1.953125,-78.18603515625,[0. 0. 0. 0. 0. 0. 0. 0. 0.],-0.24658203125,0.04296875,1.04150390625,[0. 0. 0. 0. 0. 0. 0. 0. 0.]
4.876185417175293,0.0035115538630634546,0.03933976590633392,-0.5998516082763672,0.7991358637809753,[0. 0. 0. 0. 0. 0. 0. 0. 0.],-3.96728515625,14.22119140625,-90.88134765625,[0. 0. 0. 0. 0. 0. 0. 0. 0.],-0.12451171875,0.07861328125,0.90478515625,[0. 0. 0. 0. 0. 0. 0. 0. 0.]
4.900161027908325,0.004874789156019688,0.04097342491149902,-0.6124030947685242,0.7894681692123413,[0. 0. 0. 0. 0. 0. 0. 0. 0.],5.43212890625,-11.5966796875,-92.34619140625,[0. 0. 0. 0. 0. 0. 0. 0. 0.],-0.330078125,-0.02001953125,0.96142578125,[0. 0. 0. 0. 0. 0. 0. 0. 0.]
4.920281171798706,0.006097556557506323,0.04178927093744278,-0.6249349117279053,0.7795337438583374,[0. 0. 0. 0. 0. 0. 0. 0. 0.],6.7138671875,8.30078125,-90.27099609375,[0. 0. 0. 0. 0. 0. 0. 0. 0.],-0.20166015625,-0.0244140625,1.10791015625,[0. 0. 0. 0. 0. 0. 0. 0. 0.]
4.940467357635498,0.007907413877546787,0.04366660118103027,-0.6367670893669128,0.7697781920433044,[0. 0. 0. 0. 0. 0. 0. 0. 0.],3.0517578125,0.67138671875,-85.3271484375,[0. 0. 0. 0. 0. 0. 0. 0. 0.],-0.2158203125,-0.0205078125,0.92919921875,[0. 0. 0. 0. 0. 0. 0. 0. 0.]
4.959632158279419,0.007519648410379887,0.04459894821047783,-0.647499680519104,0.7607225179672241,[0. 0. 0. 0. 0. 0. 0. 0. 0.],-5.31005859375,-1.5869140625,-76.416015625,[0. 0. 0. 0. 0. 0. 0. 0. 0.],-0.26025390625,-0.03125,0.77880859375,[0. 0. 0. 0. 0. 0. 0. 0. 0.]
4.976517677307129,0.007230058778077364,0.04671366512775421,-0.6558346748352051,0.7534232139587402,[0. 0. 0. 0. 0. 0. 0. 0. 0.],-5.126953125,-0.54931640625,-57.4951171875,[0. 0. 0. 0. 0. 0. 0. 0. 0.],-0.2744140625,-0.060546875,1.06884765625,[0. 0. 0. 0. 0. 0. 0. 0. 0.]
5.000307559967041,0.00587062444537878,0.04733497276902199,-0.6615584492683411,0.7483751177787781,[0. 0. 0. 0. 0. 0. 0. 0. 0.],-3.41796875,-9.765625,-36.9873046875,[0. 0. 0. 0. 0. 0. 0. 0. 0.],-0.27490234375,-0.15576171875,1.11865234375,[0. 0. 0. 0. 0. 0. 0. 0. 0.]
5.021303415298462,0.004525685682892799,0.04718416556715965,-0.6656090021133423,0.7447938919067383,[0. 0. 0. 0. 0. 0. 0. 0. 0.],6.7138671875,-8.9111328125,-25.390625,[0. 0. 0. 0. 0. 0. 0. 0. 0.],-0.10791015625,-0.08984375,1.0849609375,[0. 0. 0. 0. 0. 0. 0. 0. 0.]
5.039928436279297,0.005139169283211231,0.04690259322524071,-0.6678542494773865,0.7427951693534851,[0. 0. 0. 0. 0. 0. 0. 0. 0.],10.68115234375,1.52587890625,-13.916015625,[0. 0. 0. 0. 0. 0. 0. 0. 0.],-0.07421875,-0.0751953125,1.0732421875,[0. 0. 0. 0. 0. 0. 0. 0. 0.]
5.060664653778076,0.006259817164391279,0.04576151818037033,-0.6691588163375854,0.741682767868042,[0. 0. 0. 0. 0. 0. 0. 0. 0.],-4.2724609375,0.8544921875,-10.498046875,[0. 0. 0. 0. 0. 0. 0. 0. 0.],-0.1142578125,0.03271484375,0.861328125,[0. 0. 0. 0. 0. 0. 0. 0. 0.]
5.080204248428345,0.007544681895524263,0.04524019733071327,-0.670703113079071,0.7403064966201782,[0. 0. 0. 0. 0. 0. 0. 0. 0.],4.08935546875,19.47021484375,-11.90185546875,[0. 0. 0. 0. 0. 0. 0. 0. 0.],-0.0478515625,-0.025390625,1.09033203125,[0. 0. 0. 0. 0. 0. 0. 0. 0.]
5.099709749221802,0.010618627071380615,0.045892179012298584,-0.6729210615158081,0.7382130026817322,[0. 0. 0. 0. 0. 0. 0. 0. 0.],0.91552734375,4.33349609375,-21.484375,[0. 0. 0. 0. 0. 0. 0. 0. 0.],-0.24072265625,0.017578125,0.99072265625,[0. 0. 0. 0. 0. 0. 0. 0. 0.]
5.120508670806885,0.012448325753211975,0.046719007194042206,-0.6766337156295776,0.7347307801246643,[0. 0. 0. 0. 0. 0. 0. 0. 0.],0.3662109375,8.60595703125,-36.07177734375,[0. 0. 0. 0. 0. 0. 0. 0. 0.],-0.15771484375,0.04345703125,0.9140625,[0. 0. 0. 0. 0. 0. 0. 0. 0.]
5.139755010604858,0.01562884822487831,0.04818486049771309,-0.6823710799217224,0.7292488217353821,[0. 0. 0. 0. 0. 0. 0. 0. 0.],-2.86865234375,20.3857421875,-52.06298828125,[0. 0. 0. 0. 0. 0. 0. 0. 0.],-0.068359375,0.056640625,0.91650390625,[0. 0. 0. 0. 0. 0. 0. 0. 0.]
5.155831336975098,0.015156170353293419,0.048215385526418686,-0.689531683921814,0.7224898338317871,[0. 0. 0. 0. 0. 0. 0. 0. 0.],-0.54931640625,-22.03369140625,-58.41064453125,[0. 0. 0. 0. 0. 0. 0. 0. 0.],-0.36572265625,0.02685546875,0.9111328125,[0. 0. 0. 0. 0. 0. 0. 0. 0.]
5.1796488761901855,0.015265388414263725,0.04815954342484474,-0.6968609690666199,0.7154247760772705,[0. 0. 0. 0. 0. 0. 0. 0. 0.],-5.31005859375,3.662109375,-56.640625,[0. 0. 0. 0. 0. 0. 0. 0. 0.],-0.1259765625,-0.01123046875,1.12890625,[0. 0. 0. 0. 0. 0. 0. 0. 0.]
5.199688911437988,0.015799999237060547,0.048016659915447235,-0.7035555243492126,0.7088401317596436,[0. 0. 0. 0. 0. 0. 0. 0. 0.],-3.173828125,-3.11279296875,-52.3681640625,[0. 0. 0. 0. 0. 0. 0. 0. 0.],-0.150390625,0.00439453125,1.03466796875,[0. 0. 0. 0. 0. 0. 0. 0. 0.]
5.215985059738159,0.015627240762114525,0.04846825823187828,-0.7090159058570862,0.7033513784408569,[0. 0. 0. 0. 0. 0. 0. 0. 0.],0.9765625,-10.31494140625,-39.24560546875,[0. 0. 0. 0. 0. 0. 0. 0. 0.],-0.22119140625,-0.03759765625,1.0498046875,[0. 0. 0. 0. 0. 0. 0. 0. 0.]
5.239762783050537,0.01687508448958397,0.04811839759349823,-0.7126157879829407,0.6996989846229553,[0. 0. 0. 0. 0. 0. 0. 0. 0.],9.46044921875,-6.103515625,-26.18408203125,[0. 0. 0. 0. 0. 0. 0. 0. 0.],-0.11572265625,-0.0478515625,1.09130859375,[0. 0. 0. 0. 0. 0. 0. 0. 0.]
5.259653806686401,0.01765388622879982,0.04709169268608093,-0.7153390049934387,0.6969655752182007,[0. 0. 0. 0. 0. 0. 0. 0. 0.],-3.84521484375,9.46044921875,-22.3388671875,[0. 0. 0. 0. 0. 0. 0. 0. 0.],-0.05615234375,0.0693359375,0.88720703125,[0. 0. 0. 0. 0. 0. 0. 0. 0.]
5.280895948410034,0.020327670499682426,0.04713153466582298,-0.7186372876167297,0.6934882998466492,[0. 0. 0. 0. 0. 0. 0. 0. 0.],12.3291015625,13.85498046875,-31.3720703125,[0. 0. 0. 0. 0. 0. 0. 0. 0.],-0.09912109375,0.00732421875,1.11083984375,[0. 0. 0. 0. 0. 0. 0. 0. 0.]
5.299704074859619,0.023270132020115852,0.04733402281999588,-0.723384439945221,0.6884279847145081,[0. 0. 0. 0. 0. 0. 0. 0. 0.],4.94384765625,7.9345703125,-45.22705078125,[0. 0. 0. 0. 0. 0. 0. 0. 0.],-0.2490234375,0.07568359375,0.96826171875,[0. 0. 0. 0. 0. 0. 0. 0. 0.]
5.320183038711548,0.025201408192515373,0.04895158112049103,-0.7297267913818359,0.6815184354782104,[0. 0. 0. 0. 0. 0. 0. 0. 0.],-6.103515625,14.34326171875,-58.4716796875,[0. 0. 0. 0. 0. 0. 0. 0. 0.],-0.154296875,0.10791015625,0.8291015625,[0. 0. 0. 0. 0. 0. 0. 0. 0.]
5.3347814083099365,0.027972158044576645,0.05011983588337898,-0.7377021312713623,0.6726821660995483,[0. 0. 0. 0. 0. 0. 0. 0. 0.],2.99072265625,11.77978515625,-75.1953125,[0. 0. 0. 0. 0. 0. 0. 0. 0.],-0.15869140625,0.04150390625,1.04345703125,[0. 0. 0. 0. 0. 0. 0. 0. 0.]
5.359686851501465,0.029449153691530228,0.050371069461107254,-0.7473849654197693,0.6618242263793945,[0. 0. 0. 0. 0. 0. 0. 0. 0.],4.21142578125,-9.1552734375,-87.7685546875,[0. 0. 0. 0. 0. 0. 0. 0. 0.],-0.3369140625,0.06396484375,1.078125,[0. 0. 0. 0. 0. 0. 0. 0. 0.]
5.375273942947388,0.029087677597999573,0.04929036647081375,-0.7576834559440613,0.6501078009605408,[0. 0. 0. 0. 0. 0. 0. 0. 0.],5.06591796875,-6.9580078125,-90.4541015625,[0. 0. 0. 0. 0. 0. 0. 0. 0.],-0.3369140625,0.0244140625,0.9609375,[0. 0. 0. 0. 0. 0. 0. 0. 0.]
5.400281190872192,0.029528779909014702,0.051498621702194214,-0.7669547200202942,0.6389495134353638,[0. 0. 0. 0. 0. 0. 0. 0. 0.],-9.46044921875,-2.74658203125,-79.833984375,[0. 0. 0. 0. 0. 0. 0. 0. 0.],-0.30908203125,0.017578125,0.92919921875,[0. 0. 0. 0. 0. 0. 0. 0. 0.]
5.419776439666748,0.02951151877641678,0.05234665423631668,-0.7750580310821533,0.6290261149406433,[0. 0. 0. 0. 0. 0. 0. 0. 0.],4.638671875,-7.01904296875,-69.82421875,[0. 0. 0. 0. 0. 0. 0. 0. 0.],-0.318359375,-0.06201171875,1.13671875,[0. 0. 0. 0. 0. 0. 0. 0. 0.]
5.440972566604614,0.028896184638142586,0.05162759870290756,-0.7820456624031067,0.6204065084457397,[0. 0. 0. 0. 0. 0. 0. 0. 0.],3.23486328125,-6.53076171875,-58.41064453125,[0. 0. 0. 0. 0. 0. 0. 0. 0.],-0.20458984375,-0.01806640625,1.0185546875,[0. 0. 0. 0. 0. 0. 0. 0. 0.]
5.460427284240723,0.02915809489786625,0.05008714646100998,-0.7873414754867554,0.6137869358062744,[0. 0. 0. 0. 0. 0. 0. 0. 0.],11.29150390625,-14.95361328125,-39.6728515625,[0. 0. 0. 0. 0. 0. 0. 0. 0.],-0.1669921875,-0.0400390625,1.005859375,[0. 0. 0. 0. 0. 0. 0. 0. 0.]
5.479661464691162,0.029682012274861336,0.048086017370224,-0.7907224297523499,0.6095611453056335,[0. 0. 0. 0. 0. 0. 0. 0. 0.],3.60107421875,-7.32421875,-26.3671875,[0. 0. 0. 0. 0. 0. 0. 0. 0.],-0.10009765625,0.0068359375,1.02294921875,[0. 0. 0. 0. 0. 0. 0. 0. 0.]
5.4995973110198975,0.029498688876628876,0.045907337218523026,-0.7930778861045837,0.6066712141036987,[0. 0. 0. 0. 0. 0. 0. 0. 0.],1.40380859375,1.40380859375,-19.10400390625,[0. 0. 0. 0. 0. 0. 0. 0. 0.],-0.03515625,0.01904296875,0.9755859375,[0. 0. 0. 0. 0. 0. 0. 0. 0.]
5.522317409515381,0.029888875782489777,0.04470404237508774,-0.7946545481681824,0.6046753525733948,[0. 0. 0. 0. 0. 0. 0. 0. 0.],-2.74658203125,-2.0751953125,-12.6953125,[0. 0. 0. 0. 0. 0. 0. 0. 0.],-0.107421875,0.01904296875,0.86572265625,[0. 0. 0. 0. 0. 0. 0. 0. 0.]
5.540488958358765,0.03040495701134205,0.043581243604421616,-0.7956507205963135,0.6034204959869385,[0. 0. 0. 0. 0. 0. 0. 0. 0.],7.99560546875,-2.5634765625,-10.009765625,[0. 0. 0. 0. 0. 0. 0. 0. 0.],-0.103515625,-0.015625,1.1611328125,[0. 0. 0. 0. 0. 0. 0. 0. 0.]
5.559471607208252,0.03116287849843502,0.04102809727191925,-0.7966772317886353,0.602205216884613,[0. 0. 0. 0. 0. 0. 0. 0. 0.],2.44140625,-8.30078125,-9.521484375,[0. 0. 0. 0. 0. 0. 0. 0. 0.],-0.12646484375,0.03662109375,1.0146484375,[0. 0. 0. 0. 0. 0. 0. 0. 0.]
5.580718994140625,0.030485449358820915,0.039276979863643646,-0.7976585030555725,0.6010564565658569,[0. 0. 0. 0. 0. 0. 0. 0. 0.],-0.732421875,-18.61572265625,-9.33837890625,[0. 0. 0. 0. 0. 0. 0. 0. 0.],-0.16796875,0.03662109375,0.8271484375,[0. 0. 0. 0. 0. 0. 0. 0. 0.]
5.599529981613159,0.030471671372652054,0.03810345008969307,-0.7983868718147278,0.600165069103241,[0. 0. 0. 0. 0. 0. 0. 0. 0.],-3.60107421875,0.244140625,-5.0048828125,[0. 0. 0. 0. 0. 0. 0. 0. 0.],-0.0712890625,0.02099609375,0.9990234375,[0. 0. 0. 0. 0. 0. 0. 0. 0.]
5.62494683265686,0.031330108642578125,0.03691532835364342,-0.7986149191856384,0.5998915433883667,[0. 0. 0. 0. 0. 0. 0. 0. 0.],-4.94384765625,-11.53564453125,-0.9765625,[0. 0. 0. 0. 0. 0. 0. 0. 0.],-0.1689453125,0.0390625,0.9970703125,[0. 0. 0. 0. 0. 0. 0. 0. 0.]
5.63979434967041,0.03148464858531952,0.035722408443689346,-0.7987235188484192,0.5998111963272095,[0. 0. 0. 0. 0. 0. 0. 0. 0.],0.8544921875,-6.9580078125,-2.50244140625,[0. 0. 0. 0. 0. 0. 0. 0. 0.],-0.08056640625,0.02490234375,1.12109375,[0. 0. 0. 0. 0. 0. 0. 0. 0.]
5.660013198852539,0.030733687803149223,0.03258407860994339,-0.7989895343780518,0.5996744632720947,[0. 0. 0. 0. 0. 0. 0. 0. 0.],12.0849609375,-6.7138671875,-0.244140625,[0. 0. 0. 0. 0. 0. 0. 0. 0.],-0.0361328125,0.01025390625,1.0869140625,[0. 0. 0. 0. 0. 0. 0. 0. 0.]
5.679754734039307,0.029476238414645195,0.028908859938383102,-0.7987594604492188,0.6002323627471924,[0. 0. 0. 0. 0. 0. 0. 0. 0.],3.41796875,-15.13671875,8.7890625,[0. 0. 0. 0. 0. 0. 0. 0. 0.],-0.0126953125,0.05615234375,0.94921875,[0. 0. 0. 0. 0. 0. 0. 0. 0.]
5.699702024459839,0.02712765708565712,0.026088111102581024,-0.796986997127533,0.6028227210044861,[0. 0. 0. 0. 0. 0. 0. 0. 0.],-1.28173828125,-7.2021484375,22.705078125,[0. 0. 0. 0. 0. 0. 0. 0. 0.],0.14599609375,0.025390625,0.92529296875,[0. 0. 0. 0. 0. 0. 0. 0. 0.]
5.720270395278931,0.024261604994535446,0.025558294728398323,-0.7935044169425964,0.6075433492660522,[0. 0. 0. 0. 0. 0. 0. 0. 0.],-9.033203125,-8.7890625,39.48974609375,[0. 0. 0. 0. 0. 0. 0. 0. 0.],0.12451171875,-0.0654296875,0.90869140625,[0. 0. 0. 0. 0. 0. 0. 0. 0.]
5.740586757659912,0.020277950912714005,0.02393721044063568,-0.7887624502182007,0.6138972043991089,[0. 0. 0. 0. 0. 0. 0. 0. 0.],0.1220703125,-15.380859375,53.03955078125,[0. 0. 0. 0. 0. 0. 0. 0. 0.],0.14208984375,-0.15380859375,1.125,[0. 0. 0. 0. 0. 0. 0. 0. 0.]
5.7626729011535645,0.01644364558160305,0.022630935534834862,-0.782269299030304,0.6223118901252747,[0. 0. 0. 0. 0. 0. 0. 0. 0.],-6.7138671875,-17.27294921875,65.85693359375,[0. 0. 0. 0. 0. 0. 0. 0. 0.],0.16357421875,-0.12109375,0.9423828125,[0. 0. 0. 0. 0. 0. 0. 0. 0.]
5.780584812164307,0.011453993618488312,0.020353667438030243,-0.7742400765419006,0.6324610710144043,[0. 0. 0. 0. 0. 0. 0. 0. 0.],-3.84521484375,-20.6298828125,79.65087890625,[0. 0. 0. 0. 0. 0. 0. 0. 0.],0.1640625,-0.171875,0.9326171875,[0. 0. 0. 0. 0. 0. 0. 0. 0.]
5.799909353256226,0.008229014463722706,0.020315801724791527,-0.7644363045692444,0.6443265676498413,[0. 0. 0. 0. 0. 0. 0. 0. 0.],-10.80322265625,0.30517578125,91.49169921875,[0. 0. 0. 0. 0. 0. 0. 0. 0.],0.291015625,-0.13330078125,0.970703125,[0. 0. 0. 0. 0. 0. 0. 0. 0.]
5.820585250854492,0.006100195925682783,0.020773734897375107,-0.7534039616584778,0.6572014689445496,[0. 0. 0. 0. 0. 0. 0. 0. 0.],-0.732421875,-14.22119140625,99.54833984375,[0. 0. 0. 0. 0. 0. 0. 0. 0.],0.17578125,-0.25048828125,1.07568359375,[0. 0. 0. 0. 0. 0. 0. 0. 0.]
5.839950799942017,0.00203983043320477,0.01768527738749981,-0.7413490414619446,0.6708834767341614,[0. 0. 0. 0. 0. 0. 0. 0. 0.],3.35693359375,-17.9443359375,108.0322265625,[0. 0. 0. 0. 0. 0. 0. 0. 0.],0.24365234375,-0.2529296875,1.10791015625,[0. 0. 0. 0. 0. 0. 0. 0. 0.]
5.859778881072998,0.002127991756424308,0.01824956387281418,-0.7277942895889282,0.6855494379997253,[0. 0. 0. 0. 0. 0. 0. 0. 0.],-3.173828125,16.29638671875,118.408203125,[0. 0. 0. 0. 0. 0. 0. 0. 0.],0.35595703125,-0.1396484375,0.9072265625,[0. 0. 0. 0. 0. 0. 0. 0. 0.]
5.880229473114014,-0.000504070136230439,0.017518943175673485,-0.7126994132995605,0.7012506723403931,[0. 0. 0. 0. 0. 0. 0. 0. 0.],-5.9814453125,-15.68603515625,125.6103515625,[0. 0. 0. 0. 0. 0. 0. 0. 0.],0.14501953125,-0.2451171875,0.96142578125,[0. 0. 0. 0. 0. 0. 0. 0. 0.]
5.899705648422241,-0.003379367059096694,0.016871722415089607,-0.6963269710540771,0.7175184488296509,[0. 0. 0. 0. 0. 0. 0. 0. 0.],-6.103515625,-14.0380859375,131.65283203125,[0. 0. 0. 0. 0. 0. 0. 0. 0.],0.27392578125,-0.2578125,0.99755859375,[0. 0. 0. 0. 0. 0. 0. 0. 0.]
5.9196624755859375,-0.006678000558167696,0.015407606028020382,-0.6786428093910217,0.7342764735221863,[0. 0. 0. 0. 0. 0. 0. 0. 0.],-2.44140625,-19.83642578125,139.34326171875,[0. 0. 0. 0. 0. 0. 0. 0. 0.],0.22412109375,-0.2548828125,0.9404296875,[0. 0. 0. 0. 0. 0. 0. 0. 0.]
5.939607381820679,-0.009350876323878765,0.013409702107310295,-0.659589946269989,0.7514477968215942,[0. 0. 0. 0. 0. 0. 0. 0. 0.],0.9765625,-7.26318359375,148.62060546875,[0. 0. 0. 0. 0. 0. 0. 0. 0.],0.34375,-0.291015625,1.04736328125,[0. 0. 0. 0. 0. 0. 0. 0. 0.]
5.959627389907837,-0.010003873147070408,0.012886536307632923,-0.6393383145332336,0.7687524557113647,[0. 0. 0. 0. 0. 0. 0. 0. 0.],3.0517578125,8.1787109375,155.1513671875,[0. 0. 0. 0. 0. 0. 0. 0. 0.],0.41845703125,-0.2890625,1.150390625,[0. 0. 0. 0. 0. 0. 0. 0. 0.]
5.980060338973999,-0.010636748746037483,0.01223030872642994,-0.6178040504455566,0.7861650586128235,[0. 0. 0. 0. 0. 0. 0. 0. 0.],2.38037109375,-22.39990234375,159.1796875,[0. 0. 0. 0. 0. 0. 0. 0. 0.],0.228515625,-0.2548828125,0.88671875,[0. 0. 0. 0. 0. 0. 0. 0. 0.]
5.999911308288574,-0.011411433108150959,0.010246720165014267,-0.5951505303382874,0.8034679293632507,[0. 0. 0. 0. 0. 0. 0. 0. 0.],14.16015625,-1.28173828125,166.19873046875,[0. 0. 0. 0. 0. 0. 0. 0. 0.],0.35400390625,-0.28955078125,0.9833984375,[0. 0. 0. 0. 0. 0. 0. 0. 0.]
6.019682168960571,-0.01524191815406084,0.005996454041451216,-0.5705188512802124,0.8211212158203125,[0. 0. 0. 0. 0. 0. 0. 0. 0.],-8.11767578125,-17.15087890625,178.64990234375,[0. 0. 0. 0. 0. 0. 0. 0. 0.],0.26708984375,-0.19287109375,0.79150390625,[0. 0. 0. 0. 0. 0. 0. 0. 0.]
6.035095453262329,-0.017883848398923874,0.004529478494077921,-0.5445732474327087,0.8385103344917297,[0. 0. 0. 0. 0. 0. 0. 0. 0.],2.50244140625,-0.67138671875,182.4951171875,[0. 0. 0. 0. 0. 0. 0. 0. 0.],0.47705078125,-0.3310546875,1.13671875,[0. 0. 0. 0. 0. 0. 0. 0. 0.]
6.059492349624634,-0.017576688900589943,0.0046859788708388805,-0.517267644405365,0.8556303977966309,[0. 0. 0. 0. 0. 0. 0. 0. 0.],10.8642578125,-14.22119140625,184.38720703125,[0. 0. 0. 0. 0. 0. 0. 0. 0.],0.37646484375,-0.31103515625,1.04638671875,[0. 0. 0. 0. 0. 0. 0. 0. 0.]
6.079716444015503,-0.01871148869395256,0.001707521383650601,-0.4888463318347931,0.8721675872802734,[0. 0. 0. 0. 0. 0. 0. 0. 0.],6.2255859375,1.5869140625,193.05419921875,[0. 0. 0. 0. 0. 0. 0. 0. 0.],0.41748046875,-0.2939453125,1.021484375,[0. 0. 0. 0. 0. 0. 0. 0. 0.]
6.099816560745239,-0.020009353756904602,-0.0010500987991690636,-0.4592432677745819,0.8880845308303833,[0. 0. 0. 0. 0. 0. 0. 0. 0.],6.04248046875,-29.96826171875,193.29833984375,[0. 0. 0. 0. 0. 0. 0. 0. 0.],0.29296875,-0.2744140625,0.8515625,[0. 0. 0. 0. 0. 0. 0. 0. 0.]
6.119877099990845,-0.023139508441090584,-0.0062733544036746025,-0.4282798767089844,0.9033280611038208,[0. 0. 0. 0. 0. 0. 0. 0. 0.],7.62939453125,-15.93017578125,200.1953125,[0. 0. 0. 0. 0. 0. 0. 0. 0.],0.3466796875,-0.28466796875,0.859375,[0. 0. 0. 0. 0. 0. 0. 0. 0.]
6.139659643173218,-0.0234508216381073,-0.0060268850065767765,-0.39530661702156067,0.9182300567626953,[0. 0. 0. 0. 0. 0. 0. 0. 0.],11.29150390625,-0.1220703125,208.31298828125,[0. 0. 0. 0. 0. 0. 0. 0. 0.],0.47998046875,-0.34375,1.0205078125,[0. 0. 0. 0. 0. 0. 0. 0. 0.]
6.1597678661346436,-0.02470635622739792,-0.010611575096845627,-0.3618375062942505,0.9318533539772034,[0. 0. 0. 0. 0. 0. 0. 0. 0.],10.498046875,-22.705078125,209.53369140625,[0. 0. 0. 0. 0. 0. 0. 0. 0.],0.45849609375,-0.3740234375,1.12841796875,[0. 0. 0. 0. 0. 0. 0. 0. 0.]
6.179937839508057,-0.02510017156600952,-0.01186083909124136,-0.3273080885410309,0.9445098638534546,[0. 0. 0. 0. 0. 0. 0. 0. 0.],8.85009765625,-13.3056640625,212.40234375,[0. 0. 0. 0. 0. 0. 0. 0. 0.],0.501953125,-0.2939453125,0.96142578125,[0. 0. 0. 0. 0. 0. 0. 0. 0.]
6.200114011764526,-0.027272723615169525,-0.015558258630335331,-0.2909661829471588,0.9562179446220398,[0. 0. 0. 0. 0. 0. 0. 0. 0.],-1.03759765625,-12.02392578125,225.52490234375,[0. 0. 0. 0. 0. 0. 0. 0. 0.],0.29150390625,-0.2548828125,0.68310546875,[0. 0. 0. 0. 0. 0. 0. 0. 0.]
6.219636917114258,-0.02861451730132103,-0.013694580644369125,-0.25363218784332275,0.966780424118042,[0. 0. 0. 0. 0. 0. 0. 0. 0.],7.8125,15.625,221.19140625,[0. 0. 0. 0. 0. 0. 0. 0. 0.],0.58935546875,-0.46533203125,1.13525390625,[0. 0. 0. 0. 0. 0. 0. 0. 0.]
6.241234540939331,-0.027859974652528763,-0.016436466947197914,-0.21668823063373566,0.9757047891616821,[0. 0. 0. 0. 0. 0. 0. 0. 0.],19.287109375,-30.33447265625,214.53857421875,[0. 0. 0. 0. 0. 0. 0. 0. 0.],0.44921875,-0.41650390625,1.05419921875,[0. 0. 0. 0. 0. 0. 0. 0. 0.]
6.2599663734436035,-0.027270637452602386,-0.020620349794626236,-0.179222971200943,0.983214259147644,[0. 0. 0. 0. 0. 0. 0. 0. 0.],11.8408203125,-12.20703125,220.03173828125,[0. 0. 0. 0. 0. 0. 0. 0. 0.],0.568359375,-0.27099609375,0.89892578125,[0. 0. 0. 0. 0. 0. 0. 0. 0.]
6.284509658813477,-0.0296400785446167,-0.022630225867033005,-0.131711944937706,0.9905863404273987,[0. 0. 0. 0. 0. 0. 0. 0. 0.],1.220703125,-21.6064453125,217.71240234375,[0. 0. 0. 0. 0. 0. 0. 0. 0.],0.50048828125,-0.302734375,0.81201171875,[0. 0. 0. 0. 0. 0. 0. 0. 0.]
6.300072193145752,-0.030944116413593292,-0.024219859391450882,-0.10396313667297363,0.9938045740127563,[0. 0. 0. 0. 0. 0. 0. 0. 0.],6.9580078125,-12.02392578125,212.158203125,[0. 0. 0. 0. 0. 0. 0. 0. 0.],0.673828125,-0.43017578125,1.107421875,[0. 0. 0. 0. 0. 0. 0. 0. 0.]
6.317749500274658,-0.03082529827952385,-0.025785941630601883,-0.058911196887493134,0.9974539279937744,[0. 0. 0. 0. 0. 0. 0. 0. 0.],12.5732421875,-19.71435546875,202.69775390625,[0. 0. 0. 0. 0. 0. 0. 0. 0.],0.66064453125,-0.36376953125,1.08251953125,[0. 0. 0. 0. 0. 0. 0. 0. 0.]
6.3408308029174805,-0.029772724956274033,-0.028191804885864258,-0.032399363815784454,0.998633623123169,[0. 0. 0. 0. 0. 0. 0. 0. 0.],12.75634765625,-5.43212890625,203.0029296875,[0. 0. 0. 0. 0. 0. 0. 0. 0.],0.6455078125,-0.3486328125,1.02197265625,[0. 0. 0. 0. 0. 0. 0. 0. 0.]
6.360105752944946,-0.031454890966415405,-0.02765943668782711,0.003676838241517544,0.9991157054901123,[0. 0. 0. 0. 0. 0. 0. 0. 0.],-9.70458984375,-4.2724609375,207.763671875,[0. 0. 0. 0. 0. 0. 0. 0. 0.],0.47802734375,-0.18408203125,0.65234375,[0. 0. 0. 0. 0. 0. 0. 0. 0.]
6.379742622375488,-0.033153630793094635,-0.0308549664914608,0.03908877819776535,0.9982088804244995,[0. 0. 0. 0. 0. 0. 0. 0. 0.],3.47900390625,-22.52197265625,201.171875,[0. 0. 0. 0. 0. 0. 0. 0. 0.],0.529296875,-0.376953125,0.95068359375,[0. 0. 0. 0. 0. 0. 0. 0. 0.]
6.4004738330841064,-0.03287483751773834,-0.032706085592508316,0.07334843277931213,0.9962276816368103,[0. 0. 0. 0. 0. 0. 0. 0. 0.],15.44189453125,-3.41796875,193.9697265625,[0. 0. 0. 0. 0. 0. 0. 0. 0.],0.791015625,-0.3916015625,1.169921875,[0. 0. 0. 0. 0. 0. 0. 0. 0.]
6.419742107391357,-0.03193221241235733,-0.03062593564391136,0.1063389778137207,0.9933450818061829,[0. 0. 0. 0. 0. 0. 0. 0. 0.],15.31982421875,3.23486328125,188.29345703125,[0. 0. 0. 0. 0. 0. 0. 0. 0.],0.71826171875,-0.314453125,1.05810546875,[0. 0. 0. 0. 0. 0. 0. 0. 0.]
6.439828395843506,-0.03142143413424492,-0.03161559998989105,0.13863195478916168,0.9893404841423035,[0. 0. 0. 0. 0. 0. 0. 0. 0.],1.15966796875,3.90625,187.01171875,[0. 0. 0. 0. 0. 0. 0. 0. 0.],0.55908203125,-0.291015625,0.884765625,[0. 0. 0. 0. 0. 0. 0. 0. 0.]
6.460777282714844,-0.03314922749996185,-0.030886966735124588,0.17034634947776794,0.9843420386314392,[0. 0. 0. 0. 0. 0. 0. 0. 0.],-6.7138671875,-3.5400390625,180.7861328125,[0. 0. 0. 0. 0. 0. 0. 0. 0.],0.52197265625,-0.2353515625,0.7470703125,[0. 0. 0. 0. 0. 0. 0. 0. 0.]
6.475446939468384,-0.03292381018400192,-0.033872734755277634,0.19879715144634247,0.9789016246795654,[0. 0. 0. 0. 0. 0. 0. 0. 0.],14.892578125,-12.26806640625,158.99658203125,[0. 0. 0. 0. 0. 0. 0. 0. 0.],0.65283203125,-0.34228515625,1.041015625,[0. 0. 0. 0. 0. 0. 0. 0. 0.]
6.5002968311309814,-0.031246313825249672,-0.03393195942044258,0.22372478246688843,0.9735602736473083,[0. 0. 0. 0. 0. 0. 0. 0. 0.],14.22119140625,2.8076171875,139.892578125,[0. 0. 0. 0. 0. 0. 0. 0. 0.],0.810546875,-0.2939453125,1.14697265625,[0. 0. 0. 0. 0. 0. 0. 0. 0.]
6.519622087478638,-0.029988305643200874,-0.03322257846593857,0.2459011971950531,0.968261182308197,[0. 0. 0. 0. 0. 0. 0. 0. 0.],10.1318359375,1.03759765625,123.84033203125,[0. 0. 0. 0. 0. 0. 0. 0. 0.],0.68994140625,-0.21875,1.05126953125,[0. 0. 0. 0. 0. 0. 0. 0. 0.]
6.540074110031128,-0.027740711346268654,-0.03519678860902786,0.2647058665752411,0.963287353515625,[0. 0. 0. 0. 0. 0. 0. 0. 0.],15.19775390625,-16.7236328125,103.21044921875,[0. 0. 0. 0. 0. 0. 0. 0. 0.],0.62353515625,-0.2158203125,1.0263671875,[0. 0. 0. 0. 0. 0. 0. 0. 0.]
6.560096263885498,-0.026023251935839653,-0.03472968563437462,0.2811408042907715,0.9586848020553589,[0. 0. 0. 0. 0. 0. 0. 0. 0.],9.27734375,16.05224609375,93.81103515625,[0. 0. 0. 0. 0. 0. 0. 0. 0.],0.6435546875,-0.18017578125,0.95166015625,[0. 0. 0. 0. 0. 0. 0. 0. 0.]
6.5802881717681885,-0.026215476915240288,-0.03345099464058876,0.2964213192462921,0.9541112184524536,[0. 0. 0. 0. 0. 0. 0. 0. 0.],-2.38037109375,-2.13623046875,88.56201171875,[0. 0. 0. 0. 0. 0. 0. 0. 0.],0.423828125,-0.109375,0.6962890625,[0. 0. 0. 0. 0. 0. 0. 0. 0.]
6.600182294845581,-0.0253203883767128,-0.038744907826185226,0.3101334571838379,0.9495657086372375,[0. 0. 0. 0. 0. 0. 0. 0. 0.],-2.44140625,-21.8505859375,77.45361328125,[0. 0. 0. 0. 0. 0. 0. 0. 0.],0.50341796875,-0.17431640625,0.904296875,[0. 0. 0. 0. 0. 0. 0. 0. 0.]
6.619937896728516,-0.025125253945589066,-0.04052174836397171,0.3213704526424408,0.9457525014877319,[0. 0. 0. 0. 0. 0. 0. 0. 0.],4.08935546875,6.65283203125,60.9130859375,[0. 0. 0. 0. 0. 0. 0. 0. 0.],0.7529296875,-0.13232421875,1.05224609375,[0. 0. 0. 0. 0. 0. 0. 0. 0.]
6.64043116569519,-0.02407262846827507,-0.0402187779545784,0.3297877013683319,0.9428908228874207,[0. 0. 0. 0. 0. 0. 0. 0. 0.],9.27734375,-7.8125,44.5556640625,[0. 0. 0. 0. 0. 0. 0. 0. 0.],0.62158203125,-0.150390625,1.02783203125,[0. 0. 0. 0. 0. 0. 0. 0. 0.]
6.659781217575073,-0.021825043484568596,-0.04346567392349243,0.3363971412181854,0.9404634237289429,[0. 0. 0. 0. 0. 0. 0. 0. 0.],2.99072265625,-1.220703125,37.17041015625,[0. 0. 0. 0. 0. 0. 0. 0. 0.],0.5556640625,-0.09814453125,0.91796875,[0. 0. 0. 0. 0. 0. 0. 0. 0.]
6.680400371551514,-0.022231921553611755,-0.04284941405057907,0.3411161005496979,0.9387809038162231,[0. 0. 0. 0. 0. 0. 0. 0. 0.],1.953125,10.25390625,23.62060546875,[0. 0. 0. 0. 0. 0. 0. 0. 0.],0.68701171875,-0.0498046875,1.02685546875,[0. 0. 0. 0. 0. 0. 0. 0. 0.]
6.699795961380005,-0.021195610985159874,-0.044747788459062576,0.34315258264541626,0.9379737973213196,[0. 0. 0. 0. 0. 0. 0. 0. 0.],1.03759765625,-11.71875,6.89697265625,[0. 0. 0. 0. 0. 0. 0. 0. 0.],0.54638671875,-0.048828125,0.96142578125,[0. 0. 0. 0. 0. 0. 0. 0. 0.]
6.720396995544434,-0.020398084074258804,-0.045775871723890305,0.3425107002258301,0.9381763935089111,[0. 0. 0. 0. 0. 0. 0. 0. 0.],2.685546875,13.97705078125,-10.07080078125,[0. 0. 0. 0. 0. 0. 0. 0. 0.],0.63427734375,-0.0126953125,0.921875,[0. 0. 0. 0. 0. 0. 0. 0. 0.]
6.740068197250366,-0.020569894462823868,-0.04399840906262398,0.3391490578651428,0.9394780993461609,[0. 0. 0. 0. 0. 0. 0. 0. 0.],-1.953125,11.1083984375,-25.93994140625,[0. 0. 0. 0. 0. 0. 0. 0. 0.],0.556640625,0.03515625,0.8974609375,[0. 0. 0. 0. 0. 0. 0. 0. 0.]
6.75978946685791,-0.01977548748254776,-0.0472029447555542,0.3327886164188385,0.9416117668151855,[0. 0. 0. 0. 0. 0. 0. 0. 0.],-4.638671875,-18.98193359375,-46.875,[0. 0. 0. 0. 0. 0. 0. 0. 0.],0.48779296875,0.076171875,0.93505859375,[0. 0. 0. 0. 0. 0. 0. 0. 0.]
6.779643297195435,-0.018805690109729767,-0.048476386815309525,0.3225494921207428,0.9451233148574829,[0. 0. 0. 0. 0. 0. 0. 0. 0.],0.244140625,13.61083984375,-70.25146484375,[0. 0. 0. 0. 0. 0. 0. 0. 0.],0.7080078125,0.07177734375,1.14208984375,[0. 0. 0. 0. 0. 0. 0. 0. 0.]
6.800752878189087,-0.018540093675255775,-0.04872934892773628,0.30858364701271057,0.9497672915458679,[0. 0. 0. 0. 0. 0. 0. 0. 0.],-7.26318359375,2.62451171875,-90.88134765625,[0. 0. 0. 0. 0. 0. 0. 0. 0.],0.46533203125,0.11474609375,0.97314453125,[0. 0. 0. 0. 0. 0. 0. 0. 0.]
6.819646120071411,-0.01787297986447811,-0.047722671180963516,0.291635662317276,0.9551710486412048,[0. 0. 0. 0. 0. 0. 0. 0. 0.],-0.3662109375,27.099609375,-104.8583984375,[0. 0. 0. 0. 0. 0. 0. 0. 0.],0.30517578125,0.142578125,1.12109375,[0. 0. 0. 0. 0. 0. 0. 0. 0.]
6.839745759963989,-0.015726283192634583,-0.04363332316279411,0.2736639082431793,0.9607064127922058,[0. 0. 0. 0. 0. 0. 0. 0. 0.],11.71875,16.90673828125,-108.642578125,[0. 0. 0. 0. 0. 0. 0. 0. 0.],-0.0498046875,0.2392578125,1.10595703125,[0. 0. 0. 0. 0. 0. 0. 0. 0.]
6.860252141952515,-0.0127793550491333,-0.038340236991643906,0.255473256111145,0.9659711718559265,[0. 0. 0. 0. 0. 0. 0. 0. 0.],11.71875,27.099609375,-106.0791015625,[0. 0. 0. 0. 0. 0. 0. 0. 0.],-0.14794921875,0.2861328125,1.01025390625,[0. 0. 0. 0. 0. 0. 0. 0. 0.]
6.87973952293396,-0.010725793428719044,-0.033865105360746384,0.238124817609787,0.9705848097801208,[0. 0. 0. 0. 0. 0. 0. 0. 0.],8.1787109375,12.02392578125,-101.1962890625,[0. 0. 0. 0. 0. 0. 0. 0. 0.],-0.2236328125,0.32373046875,0.97021484375,[0. 0. 0. 0. 0. 0. 0. 0. 0.]
6.8999412059783936,-0.00921155046671629,-0.03082752227783203,0.22057107090950012,0.9748401045799255,[0. 0. 0. 0. 0. 0. 0. 0. 0.],1.52587890625,12.451171875,-103.8818359375,[0. 0. 0. 0. 0. 0. 0. 0. 0.],-0.17333984375,0.357421875,0.9697265625,[0. 0. 0. 0. 0. 0. 0. 0. 0.]
6.919792413711548,-0.007177331950515509,-0.02851283550262451,0.20249032974243164,0.9788427948951721,[0. 0. 0. 0. 0. 0. 0. 0. 0.],5.9814453125,5.92041015625,-106.99462890625,[0. 0. 0. 0. 0. 0. 0. 0. 0.],-0.16455078125,0.3203125,1.01171875,[0. 0. 0. 0. 0. 0. 0. 0. 0.]
6.940555810928345,-0.005306625738739967,-0.026685474440455437,0.18436770141124725,0.9824807047843933,[0. 0. 0. 0. 0. 0. 0. 0. 0.],2.9296875,1.8310546875,-105.5908203125,[0. 0. 0. 0. 0. 0. 0. 0. 0.],-0.18115234375,0.31103515625,0.92529296875,[0. 0. 0. 0. 0. 0. 0. 0. 0.]
6.959912300109863,-0.003393659135326743,-0.024313440546393394,0.1665152758359909,0.9857333302497864,[0. 0. 0. 0. 0. 0. 0. 0. 0.],4.2724609375,8.72802734375,-102.11181640625,[0. 0. 0. 0. 0. 0. 0. 0. 0.],-0.16064453125,0.30615234375,0.99267578125,[0. 0. 0. 0. 0. 0. 0. 0. 0.]
6.980502605438232,-0.0012586202938109636,-0.021755244582891464,0.14928553998470306,0.9885540008544922,[0. 0. 0. 0. 0. 0. 0. 0. 0.],4.33349609375,7.080078125,-97.96142578125,[0. 0. 0. 0. 0. 0. 0. 0. 0.],-0.21630859375,0.32958984375,1.0048828125,[0. 0. 0. 0. 0. 0. 0. 0. 0.]
7.0000739097595215,0.000449623039457947,-0.020205341279506683,0.13247114419937134,0.990980863571167,[0. 0. 0. 0. 0. 0. 0. 0. 0.],2.0751953125,4.638671875,-96.3134765625,[0. 0. 0. 0. 0. 0. 0. 0. 0.],-0.2001953125,0.34716796875,1.037109375,[0. 0. 0. 0. 0. 0. 0. 0. 0.]
7.020943880081177,0.002045383444055915,-0.018066948279738426,0.11610383540391922,0.993070662021637,[0. 0. 0. 0. 0. 0. 0. 0. 0.],5.43212890625,4.8828125,-93.07861328125,[0. 0. 0. 0. 0. 0. 0. 0. 0.],-0.181640625,0.31103515625,1.03515625,[0. 0. 0. 0. 0. 0. 0. 0. 0.]
7.039793252944946,0.004059829283505678,-0.016227781772613525,0.10084912925958633,0.9947611689567566,[0. 0. 0. 0. 0. 0. 0. 0. 0.],4.94384765625,-0.79345703125,-85.63232421875,[0. 0. 0. 0. 0. 0. 0. 0. 0.],-0.2451171875,0.31982421875,1.005859375,[0. 0. 0. 0. 0. 0. 0. 0. 0.]
7.060197114944458,0.005304302088916302,-0.015042384155094624,0.08660946041345596,0.9961147308349609,[0. 0. 0. 0. 0. 0. 0. 0. 0.],-1.5869140625,1.40380859375,-79.833984375,[0. 0. 0. 0. 0. 0. 0. 0. 0.],-0.2216796875,0.3544921875,1.00341796875,[0. 0. 0. 0. 0. 0. 0. 0. 0.]
7.079819679260254,0.006591556593775749,-0.014057217165827751,0.07323141396045685,0.9971941113471985,[0. 0. 0. 0. 0. 0. 0. 0. 0.],0.9765625,-1.3427734375,-75.0732421875,[0. 0. 0. 0. 0. 0. 0. 0. 0.],-0.20068359375,0.310546875,1.0419921875,[0. 0. 0. 0. 0. 0. 0. 0. 0.]
7.099767684936523,0.00841014925390482,-0.012969836592674255,0.06101199984550476,0.9980173707008362,[0. 0. 0. 0. 0. 0. 0. 0. 0.],5.126953125,0.54931640625,-67.2607421875,[0. 0. 0. 0. 0. 0. 0. 0. 0.],-0.19091796875,0.28515625,0.98291015625,[0. 0. 0. 0. 0. 0. 0. 0. 0.]
7.119979381561279,0.010428853332996368,-0.01179252378642559,0.05028839036822319,0.9986107349395752,[0. 0. 0. 0. 0. 0. 0. 0. 0.],3.5400390625,-0.18310546875,-58.837890625,[0. 0. 0. 0. 0. 0. 0. 0. 0.],-0.20263671875,0.31640625,0.97265625,[0. 0. 0. 0. 0. 0. 0. 0. 0.]
7.140325307846069,0.011687268503010273,-0.010962976142764091,0.04077481850981712,0.999039888381958,[0. 0. 0. 0. 0. 0. 0. 0. 0.],-3.0517578125,-0.30517578125,-51.45263671875,[0. 0. 0. 0. 0. 0. 0. 0. 0.],-0.17529296875,0.36083984375,1.02685546875,[0. 0. 0. 0. 0. 0. 0. 0. 0.]
7.159851312637329,0.012790082022547722,-0.010018697939813137,0.032314643263816833,0.9993456602096558,[0. 0. 0. 0. 0. 0. 0. 0. 0.],0.48828125,-1.89208984375,-46.5087890625,[0. 0. 0. 0. 0. 0. 0. 0. 0.],-0.15673828125,0.32861328125,1.068359375,[0. 0. 0. 0. 0. 0. 0. 0. 0.]
7.179789066314697,0.01475150603801012,-0.00972240511327982,0.024833057075738907,0.9995355010032654,[0. 0. 0. 0. 0. 0. 0. 0. 0.],5.4931640625,-3.662109375,-41.015625,[0. 0. 0. 0. 0. 0. 0. 0. 0.],-0.1318359375,0.29736328125,1.01953125,[0. 0. 0. 0. 0. 0. 0. 0. 0.]
7.200574159622192,0.01676129177212715,-0.00944898184388876,0.018126657232642174,0.9996505975723267,[0. 0. 0. 0. 0. 0. 0. 0. 0.],1.52587890625,-1.64794921875,-36.31591796875,[0. 0. 0. 0. 0. 0. 0. 0. 0.],-0.07275390625,0.30419921875,0.9140625,[0. 0. 0. 0. 0. 0. 0. 0. 0.]
7.220486640930176,0.018553491681814194,-0.009073520079255104,0.012158279307186604,0.9997128248214722,[0. 0. 0. 0. 0. 0. 0. 0. 0.],1.708984375,-1.46484375,-32.40966796875,[0. 0. 0. 0. 0. 0. 0. 0. 0.],-0.03857421875,0.2998046875,1.00048828125,[0. 0. 0. 0. 0. 0. 0. 0. 0.]
7.234870433807373,0.020439844578504562,-0.00884766411036253,0.0068338001146912575,0.9997285604476929,[0. 0. 0. 0. 0. 0. 0. 0. 0.],1.708984375,-1.0986328125,-29.47998046875,[0. 0. 0. 0. 0. 0. 0. 0. 0.],-0.0048828125,0.30517578125,1.0732421875,[0. 0. 0. 0. 0. 0. 0. 0. 0.]
7.259973764419556,0.022023843601346016,-0.00844490434974432,0.0020460986997932196,0.9997196793556213,[0. 0. 0. 0. 0. 0. 0. 0. 0.],-1.89208984375,0.91552734375,-25.390625,[0. 0. 0. 0. 0. 0. 0. 0. 0.],-0.01318359375,0.3037109375,1.001953125,[0. 0. 0. 0. 0. 0. 0. 0. 0.]
7.285866975784302,0.02403930388391018,-0.007577667944133282,-0.003900600830093026,0.9996747374534607,[0. 0. 0. 0. 0. 0. 0. 0. 0.],-0.30517578125,-0.54931640625,-19.8974609375,[0. 0. 0. 0. 0. 0. 0. 0. 0.],-0.076171875,0.2822265625,0.98828125,[0. 0. 0. 0. 0. 0. 0. 0. 0.]
7.304596185684204,0.025106975808739662,-0.007186106871813536,-0.00622633658349514,0.9996395707130432,[0. 0. 0. 0. 0. 0. 0. 0. 0.],-0.6103515625,-0.6103515625,-16.4794921875,[0. 0. 0. 0. 0. 0. 0. 0. 0.],-0.07470703125,0.2666015625,0.98681640625,[0. 0. 0. 0. 0. 0. 0. 0. 0.]
7.31977105140686,0.02616090700030327,-0.006840776186436415,-0.00825031939893961,0.999600350856781,[0. 0. 0. 0. 0. 0. 0. 0. 0.],-1.220703125,-0.67138671875,-14.5263671875,[0. 0. 0. 0. 0. 0. 0. 0. 0.],-0.04296875,0.25732421875,0.9912109375,[0. 0. 0. 0. 0. 0. 0. 0. 0.]
7.342337369918823,0.0280082356184721,-0.006671666633337736,-0.01110435463488102,0.9995237588882446,[0. 0. 0. 0. 0. 0. 0. 0. 0.],-0.244140625,-1.40380859375,-11.77978515625,[0. 0. 0. 0. 0. 0. 0. 0. 0.],-0.01318359375,0.23046875,1.03173828125,[0. 0. 0. 0. 0. 0. 0. 0. 0.]
7.360154390335083,0.029126465320587158,-0.006465862039476633,-0.012520737014710903,0.999476432800293,[0. 0. 0. 0. 0. 0. 0. 0. 0.],-0.48828125,0.79345703125,-10.19287109375,[0. 0. 0. 0. 0. 0. 0. 0. 0.],-0.01611328125,0.21923828125,1.0107421875,[0. 0. 0. 0. 0. 0. 0. 0. 0.]
7.3804051876068115,0.03057248145341873,-0.006193916313350201,-0.014027896337211132,0.9994149804115295,[0. 0. 0. 0. 0. 0. 0. 0. 0.],-1.220703125,-1.5869140625,-7.568359375,[0. 0. 0. 0. 0. 0. 0. 0. 0.],-0.03125,0.2041015625,1.00146484375,[0. 0. 0. 0. 0. 0. 0. 0. 0.]
7.399813413619995,0.03207765147089958,-0.005793339107185602,-0.015127226710319519,0.9993541240692139,[0. 0. 0. 0. 0. 0. 0. 0. 0.],-1.03759765625,-0.3662109375,-5.79833984375,[0. 0. 0. 0. 0. 0. 0. 0. 0.],-0.01953125,0.181640625,0.99658203125,[0. 0. 0. 0. 0. 0. 0. 0. 0.]
7.419818878173828,0.03358890861272812,-0.005413563456386328,-0.01597357913851738,0.9992934465408325,[0. 0. 0. 0. 0. 0. 0. 0. 0.],0.79345703125,-1.708984375,-4.21142578125,[0. 0. 0. 0. 0. 0. 0. 0. 0.],-0.0322265625,0.1845703125,1.01904296875,[0. 0. 0. 0. 0. 0. 0. 0. 0.]
7.439640522003174,0.034488897770643234,-0.005116824992001057,-0.016674978658556938,0.9992528557777405,[0. 0. 0. 0. 0. 0. 0. 0. 0.],-5.79833984375,1.3427734375,-5.2490234375,[0. 0. 0. 0. 0. 0. 0. 0. 0.],0.01806640625,0.09326171875,0.95654296875,[0. 0. 0. 0. 0. 0. 0. 0. 0.]
7.460162878036499,0.03081653267145157,-0.004022171255201101,-0.0172481220215559,0.9993682503700256,[0. 0. 0. 0. 0. 0. 0. 0. 0.],-15.19775390625,9.8876953125,-1.708984375,[0. 0. 0. 0. 0. 0. 0. 0. 0.],-0.06591796875,-0.1181640625,0.93505859375,[0. 0. 0. 0. 0. 0. 0. 0. 0.]
7.479794502258301,0.02831716276705265,-0.0028524361550807953,-0.01817478984594345,0.9994297027587891,[0. 0. 0. 0. 0. 0. 0. 0. 0.],1.77001953125,-3.0517578125,-6.89697265625,[0. 0. 0. 0. 0. 0. 0. 0. 0.],-0.06591796875,-0.01123046875,1.14990234375,[0. 0. 0. 0. 0. 0. 0. 0. 0.]
7.499767303466797,0.027744846418499947,-0.0016351401573047042,-0.01887221820652485,0.9994356036186218,[0. 0. 0. 0. 0. 0. 0. 0. 0.],-7.99560546875,-4.33349609375,-3.173828125,[0. 0. 0. 0. 0. 0. 0. 0. 0.],-0.0771484375,-0.04296875,0.94384765625,[0. 0. 0. 0. 0. 0. 0. 0. 0.]
7.51975154876709,0.02359664812684059,-0.0014395311009138823,-0.01924324966967106,0.999535322189331,[0. 0. 0. 0. 0. 0. 0. 0. 0.],-13.97705078125,-2.3193359375,-2.38037109375,[0. 0. 0. 0. 0. 0. 0. 0. 0.],-0.0380859375,-0.26611328125,0.92529296875,[0. 0. 0. 0. 0. 0. 0. 0. 0.]
7.539781093597412,0.021500250324606895,-0.001849980908446014,-0.01997908018529415,0.9995675086975098,[0. 0. 0. 0. 0. 0. 0. 0. 0.],3.7841796875,-10.19287109375,-6.2255859375,[0. 0. 0. 0. 0. 0. 0. 0. 0.],-0.0009765625,-0.0361328125,1.18212890625,[0. 0. 0. 0. 0. 0. 0. 0. 0.]
7.5596747398376465,0.01848764158785343,-0.0013457961613312364,-0.019947756081819534,0.9996292591094971,[0. 0. 0. 0. 0. 0. 0. 0. 0.],-8.6669921875,-0.3662109375,0.0,[0. 0. 0. 0. 0. 0. 0. 0. 0.],-0.05224609375,-0.2353515625,0.84765625,[0. 0. 0. 0. 0. 0. 0. 0. 0.]
7.579786062240601,0.014419713988900185,-0.0017006916459649801,-0.02030319720506668,0.9996885061264038,[0. 0. 0. 0. 0. 0. 0. 0. 0.],-18.73779296875,6.65283203125,1.52587890625,[0. 0. 0. 0. 0. 0. 0. 0. 0.],-0.037109375,-0.32177734375,0.96044921875,[0. 0. 0. 0. 0. 0. 0. 0. 0.]
7.599703073501587,0.011323539540171623,-0.0019219027599319816,-0.02066071145236492,0.9997206330299377,[0. 0. 0. 0. 0. 0. 0. 0. 0.],-2.99072265625,-0.42724609375,-0.67138671875,[0. 0. 0. 0. 0. 0. 0. 0. 0.],-0.01953125,-0.34423828125,1.08349609375,[0. 0. 0. 0. 0. 0. 0. 0. 0.]
7.621047496795654,0.00920221395790577,-0.0016700184205546975,-0.020731110125780106,0.9997414350509644,[0. 0. 0. 0. 0. 0. 0. 0. 0.],-0.8544921875,-2.685546875,-1.8310546875,[0. 0. 0. 0. 0. 0. 0. 0. 0.],-0.0283203125,-0.318359375,1.0185546875,[0. 0. 0. 0. 0. 0. 0. 0. 0.]
7.639707326889038,0.006838101428002119,-0.001980810659006238,-0.020844750106334686,0.9997573494911194,[0. 0. 0. 0. 0. 0. 0. 0. 0.],-5.37109375,-9.09423828125,-2.197265625,[0. 0. 0. 0. 0. 0. 0. 0. 0.],-0.05517578125,-0.26904296875,0.94970703125,[0. 0. 0. 0. 0. 0. 0. 0. 0.]
7.659923553466797,0.004198544193059206,-0.002383039565756917,-0.021023351699113846,0.9997673630714417,[0. 0. 0. 0. 0. 0. 0. 0. 0.],-5.859375,-0.18310546875,-0.6103515625,[0. 0. 0. 0. 0. 0. 0. 0. 0.],-0.03369140625,-0.29541015625,0.96826171875,[0. 0. 0. 0. 0. 0. 0. 0. 0.]
7.679681301116943,0.0022527510300278664,-0.002787743927910924,-0.021244054660201073,0.9997678995132446,[0. 0. 0. 0. 0. 0. 0. 0. 0.],-1.89208984375,-4.8828125,-1.0986328125,[0. 0. 0. 0. 0. 0. 0. 0. 0.],-0.05322265625,-0.3427734375,1.06884765625,[0. 0. 0. 0. 0. 0. 0. 0. 0.]
7.7005698680877686,0.0009605390951037407,-0.003799271536991,-0.021640945225954056,0.9997581839561462,[0. 0. 0. 0. 0. 0. 0. 0. 0.],1.708984375,-6.65283203125,-2.50244140625,[0. 0. 0. 0. 0. 0. 0. 0. 0.],-0.04248046875,-0.2919921875,0.99169921875,[0. 0. 0. 0. 0. 0. 0. 0. 0.]
7.719970464706421,-0.0006329294410534203,-0.003955094609409571,-0.02221480756998062,0.99974524974823,[0. 0. 0. 0. 0. 0. 0. 0. 0.],2.0751953125,0.6103515625,-4.21142578125,[0. 0. 0. 0. 0. 0. 0. 0. 0.],0.02587890625,-0.275390625,1.00146484375,[0. 0. 0. 0. 0. 0. 0. 0. 0.]
7.736984014511108,-0.0016756276600062847,-0.003324204357340932,-0.022861359640955925,0.9997317790985107,[0. 0. 0. 0. 0. 0. 0. 0. 0.],3.41796875,2.13623046875,-3.84521484375,[0. 0. 0. 0. 0. 0. 0. 0. 0.],-0.0185546875,-0.2734375,1.01123046875,[0. 0. 0. 0. 0. 0. 0. 0. 0.]
7.7552266120910645,-0.003189693670719862,-0.002732854103669524,-0.02355555072426796,0.9997137784957886,[0. 0. 0. 0. 0. 0. 0. 0. 0.],-1.5869140625,0.18310546875,-3.96728515625,[0. 0. 0. 0. 0. 0. 0. 0. 0.],-0.04443359375,-0.20849609375,0.86376953125,[0. 0. 0. 0. 0. 0. 0. 0. 0.]
7.783812761306763,-0.006285861600190401,-0.00258002826012671,-0.024717560037970543,0.9996713995933533,[0. 0. 0. 0. 0. 0. 0. 0. 0.],-3.41796875,0.91552734375,-6.89697265625,[0. 0. 0. 0. 0. 0. 0. 0. 0.],0.037109375,-0.21044921875,1.05908203125,[0. 0. 0. 0. 0. 0. 0. 0. 0.]
7.800411224365234,-0.007515129633247852,-0.0019283833680674434,-0.02545703388750553,0.9996458292007446,[0. 0. 0. 0. 0. 0. 0. 0. 0.],0.6103515625,7.080078125,-6.04248046875,[0. 0. 0. 0. 0. 0. 0. 0. 0.],0.01611328125,-0.205078125,1.08349609375,[0. 0. 0. 0. 0. 0. 0. 0. 0.]
7.81500506401062,-0.008938131853938103,-0.0008723862702026963,-0.026567790657281876,0.999606728553772,[0. 0. 0. 0. 0. 0. 0. 0. 0.],-0.54931640625,6.28662109375,-4.45556640625,[0. 0. 0. 0. 0. 0. 0. 0. 0.],-0.0595703125,-0.15673828125,1.02978515625,[0. 0. 0. 0. 0. 0. 0. 0. 0.]
7.8349058628082275,-0.010005054995417595,0.00019914151926059276,-0.027404997497797012,0.9995743036270142,[0. 0. 0. 0. 0. 0. 0. 0. 0.],0.67138671875,5.18798828125,-3.23486328125,[0. 0. 0. 0. 0. 0. 0. 0. 0.],-0.0791015625,-0.14501953125,1.0244140625,[0. 0. 0. 0. 0. 0. 0. 0. 0.]
7.859724521636963,-0.010751824826002121,0.0008957560057751834,-0.027642494067549706,0.9995597004890442,[0. 0. 0. 0. 0. 0. 0. 0. 0.],-1.220703125,-4.08935546875,0.48828125,[0. 0. 0. 0. 0. 0. 0. 0. 0.],-0.17529296875,-0.12353515625,0.89306640625,[0. 0. 0. 0. 0. 0. 0. 0. 0.]
7.880725383758545,-0.012100188992917538,0.001347032724879682,-0.028121238574385643,0.9995303750038147,[0. 0. 0. 0. 0. 0. 0. 0. 0.],3.23486328125,-0.67138671875,-5.06591796875,[0. 0. 0. 0. 0. 0. 0. 0. 0.],-0.01220703125,-0.13330078125,1.0234375,[0. 0. 0. 0. 0. 0. 0. 0. 0.]
7.899769067764282,-0.01314193569123745,0.0018949094228446484,-0.02903142012655735,0.9994903802871704,[0. 0. 0. 0. 0. 0. 0. 0. 0.],3.7841796875,3.72314453125,-5.9814453125,[0. 0. 0. 0. 0. 0. 0. 0. 0.],-0.00244140625,-0.095703125,1.0810546875,[0. 0. 0. 0. 0. 0. 0. 0. 0.]
7.9198057651519775,-0.01431159395724535,0.0026737123262137175,-0.02958291955292225,0.9994563460350037,[0. 0. 0. 0. 0. 0. 0. 0. 0.],-0.67138671875,-8.85009765625,-2.685546875,[0. 0. 0. 0. 0. 0. 0. 0. 0.],-0.11376953125,-0.08740234375,0.951171875,[0. 0. 0. 0. 0. 0. 0. 0. 0.]
7.940457344055176,-0.015034864656627178,0.0021153471898287535,-0.029884077608585358,0.9994381070137024,[0. 0. 0. 0. 0. 0. 0. 0. 0.],4.08935546875,-10.43701171875,-1.77001953125,[0. 0. 0. 0. 0. 0. 0. 0. 0.],-0.0634765625,-0.10546875,0.96875,[0. 0. 0. 0. 0. 0. 0. 0. 0.]
7.9556028842926025,-0.01642400026321411,0.0014483359409496188,-0.030193330720067024,0.9994081258773804,[0. 0. 0. 0. 0. 0. 0. 0. 0.],-1.8310546875,0.9765625,-1.40380859375,[0. 0. 0. 0. 0. 0. 0. 0. 0.],0.01318359375,-0.0439453125,0.9462890625,[0. 0. 0. 0. 0. 0. 0. 0. 0.]
7.976167678833008,-0.017708253115415573,0.0012795033399015665,-0.030487466603517532,0.9993774890899658,[0. 0. 0. 0. 0. 0. 0. 0. 0.],-4.7607421875,-3.2958984375,-0.67138671875,[0. 0. 0. 0. 0. 0. 0. 0. 0.],-0.044921875,-0.04443359375,0.9833984375,[0. 0. 0. 0. 0. 0. 0. 0. 0.]
7.997509241104126,-0.01877749152481556,0.0034284365829080343,-0.030465103685855865,0.9993535876274109,[0. 0. 0. 0. 0. 0. 0. 0. 0.],5.859375,1.28173828125,0.54931640625,[0. 0. 0. 0. 0. 0. 0. 0. 0.],-0.044921875,-0.07470703125,1.1123046875,[0. 0. 0. 0. 0. 0. 0. 0. 0.]
8.021315813064575,-0.0181717686355114,0.003678542096167803,-0.030256425961852074,0.9993702173233032,[0. 0. 0. 0. 0. 0. 0. 0. 0.],5.79833984375,-11.41357421875,1.3427734375,[0. 0. 0. 0. 0. 0. 0. 0. 0.],-0.10205078125,-0.04296875,1.03662109375,[0. 0. 0. 0. 0. 0. 0. 0. 0.]
8.035022497177124,-0.01677006296813488,0.003553277114406228,-0.03037821501493454,0.9993915557861328,[0. 0. 0. 0. 0. 0. 0. 0. 0.],2.86865234375,-3.35693359375,-2.44140625,[0. 0. 0. 0. 0. 0. 0. 0. 0.],-0.0009765625,0.00244140625,1.0166015625,[0. 0. 0. 0. 0. 0. 0. 0. 0.]
8.054858446121216,-0.015511928126215935,0.0017491262406110764,-0.03124125301837921,0.9993900060653687,[0. 0. 0. 0. 0. 0. 0. 0. 0.],-0.54931640625,0.244140625,-4.69970703125,[0. 0. 0. 0. 0. 0. 0. 0. 0.],0.017578125,-0.01611328125,0.98388671875,[0. 0. 0. 0. 0. 0. 0. 0. 0.]
8.079759120941162,-0.014476357959210873,0.0011828293791040778,-0.03212888911366463,0.9993783235549927,[0. 0. 0. 0. 0. 0. 0. 0. 0.],4.33349609375,11.16943359375,-4.82177734375,[0. 0. 0. 0. 0. 0. 0. 0. 0.],0.04296875,-0.0205078125,0.95458984375,[0. 0. 0. 0. 0. 0. 0. 0. 0.]
8.10023546218872,-0.01293271780014038,0.0013746418990194798,-0.032850880175828934,0.9993756413459778,[0. 0. 0. 0. 0. 0. 0. 0. 0.],-2.74658203125,1.708984375,-3.90625,[0. 0. 0. 0. 0. 0. 0. 0. 0.],-0.02685546875,0.01220703125,0.9462890625,[0. 0. 0. 0. 0. 0. 0. 0. 0.]
8.120877265930176,-0.011294486001133919,0.0020125280134379864,-0.03340889513492584,0.9993759989738464,[0. 0. 0. 0. 0. 0. 0. 0. 0.],1.953125,-2.44140625,-4.2724609375,[0. 0. 0. 0. 0. 0. 0. 0. 0.],-0.0087890625,0.00341796875,1.0986328125,[0. 0. 0. 0. 0. 0. 0. 0. 0.]
8.135991334915161,-0.00931955873966217,0.002483865711838007,-0.0341840535402298,0.9993690252304077,[0. 0. 0. 0. 0. 0. 0. 0. 0.],1.15966796875,2.25830078125,-3.96728515625,[0. 0. 0. 0. 0. 0. 0. 0. 0.],-0.03173828125,0.01123046875,1.06298828125,[0. 0. 0. 0. 0. 0. 0. 0. 0.]
8.160093784332275,-0.008599293418228626,0.003822735045105219,-0.03473338857293129,0.9993523955345154,[0. 0. 0. 0. 0. 0. 0. 0. 0.],-0.67138671875,-0.67138671875,-3.0517578125,[0. 0. 0. 0. 0. 0. 0. 0. 0.],-0.099609375,0.01806640625,0.9375,[0. 0. 0. 0. 0. 0. 0. 0. 0.]
8.182238817214966,-0.007166481111198664,0.0050689843483269215,-0.03556588664650917,0.9993288516998291,[0. 0. 0. 0. 0. 0. 0. 0. 0.],3.41796875,-1.77001953125,-5.06591796875,[0. 0. 0. 0. 0. 0. 0. 0. 0.],-0.02392578125,0.0029296875,1.02685546875,[0. 0. 0. 0. 0. 0. 0. 0. 0.]
8.200387239456177,-0.005566658917814493,0.005115783307701349,-0.0358605720102787,0.9993282556533813,[0. 0. 0. 0. 0. 0. 0. 0. 0.],-1.0986328125,-11.8408203125,2.685546875,[0. 0. 0. 0. 0. 0. 0. 0. 0.],-0.05712890625,0.01953125,0.96533203125,[0. 0. 0. 0. 0. 0. 0. 0. 0.]
8.215128898620605,-0.004849030636250973,0.0034739996772259474,-0.03350638970732689,0.9994207620620728,[0. 0. 0. 0. 0. 0. 0. 0. 0.],3.72314453125,-21.17919921875,18.37158203125,[0. 0. 0. 0. 0. 0. 0. 0. 0.],-0.02734375,-0.0048828125,0.99853515625,[0. 0. 0. 0. 0. 0. 0. 0. 0.]
8.235930442810059,-0.004034627694636583,-0.0010267064208164811,-0.02888810820877552,0.9995740652084351,[0. 0. 0. 0. 0. 0. 0. 0. 0.],6.2255859375,-10.6201171875,31.494140625,[0. 0. 0. 0. 0. 0. 0. 0. 0.],0.09619140625,0.005859375,1.02099609375,[0. 0. 0. 0. 0. 0. 0. 0. 0.]
8.260590076446533,-0.002764880657196045,-0.004375797230750322,-0.02187732607126236,0.9997472763061523,[0. 0. 0. 0. 0. 0. 0. 0. 0.],-0.48828125,-15.7470703125,46.08154296875,[0. 0. 0. 0. 0. 0. 0. 0. 0.],0.05126953125,0.06201171875,0.9384765625,[0. 0. 0. 0. 0. 0. 0. 0. 0.]
8.27979040145874,-0.001851627486757934,-0.0071073733270168304,-0.012492985464632511,0.9998950362205505,[0. 0. 0. 0. 0. 0. 0. 0. 0.],0.1220703125,-3.173828125,58.16650390625,[0. 0. 0. 0. 0. 0. 0. 0. 0.],0.12548828125,0.05908203125,1.02783203125,[0. 0. 0. 0. 0. 0. 0. 0. 0.]
8.299835443496704,-0.0006322739063762128,-0.009526926092803478,-0.0012033426901325583,0.9999537467956543,[0. 0. 0. 0. 0. 0. 0. 0. 0.],6.9580078125,-3.662109375,68.90869140625,[0. 0. 0. 0. 0. 0. 0. 0. 0.],0.10986328125,0.017578125,1.0849609375,[0. 0. 0. 0. 0. 0. 0. 0. 0.]
8.315479278564453,0.001632748288102448,-0.012476366013288498,0.011420407332479954,0.9998555779457092,[0. 0. 0. 0. 0. 0. 0. 0. 0.],4.150390625,-20.5078125,73.8525390625,[0. 0. 0. 0. 0. 0. 0. 0. 0.],0.0380859375,0.09765625,0.96875,[0. 0. 0. 0. 0. 0. 0. 0. 0.]
8.33985948562622,0.0011916924268007278,-0.017024600878357887,0.023950282484292984,0.9995675086975098,[0. 0. 0. 0. 0. 0. 0. 0. 0.],-19.34814453125,-16.17431640625,70.1904296875,[0. 0. 0. 0. 0. 0. 0. 0. 0.],0.16796875,0.1005859375,0.9638671875,[0. 0. 0. 0. 0. 0. 0. 0. 0.]
8.35506820678711,-0.0014401857042685151,-0.020212624222040176,0.03594493493437767,0.9991483688354492,[0. 0. 0. 0. 0. 0. 0. 0. 0.],-9.033203125,-5.18798828125,67.138671875,[0. 0. 0. 0. 0. 0. 0. 0. 0.],0.37353515625,-0.14208984375,1.0654296875,[0. 0. 0. 0. 0. 0. 0. 0. 0.]
8.380258798599243,-0.002360206563025713,-0.02096802555024624,0.04789131134748459,0.998629629611969,[0. 0. 0. 0. 0. 0. 0. 0. 0.],5.126953125,7.62939453125,69.2138671875,[0. 0. 0. 0. 0. 0. 0. 0. 0.],0.3076171875,-0.15771484375,0.970703125,[0. 0. 0. 0. 0. 0. 0. 0. 0.]
8.399826288223267,-0.0039704036898911,-0.021469613537192345,0.060126904398202896,0.9979519248008728,[0. 0. 0. 0. 0. 0. 0. 0. 0.],-10.6201171875,10.07080078125,70.556640625,[0. 0. 0. 0. 0. 0. 0. 0. 0.],0.1787109375,-0.05029296875,0.82275390625,[0. 0. 0. 0. 0. 0. 0. 0. 0.]
8.423460006713867,-0.010030964389443398,-0.021660741418600082,0.07644522935152054,0.9967880845069885,[0. 0. 0. 0. 0. 0. 0. 0. 0.],-7.4462890625,-11.3525390625,76.11083984375,[0. 0. 0. 0. 0. 0. 0. 0. 0.],0.09033203125,-0.3046875,1.14990234375,[0. 0. 0. 0. 0. 0. 0. 0. 0.]
8.439878463745117,-0.012003419920802116,-0.022939544171094894,0.08673673868179321,0.9958947896957397,[0. 0. 0. 0. 0. 0. 0. 0. 0.],-4.82177734375,-4.69970703125,79.77294921875,[0. 0. 0. 0. 0. 0. 0. 0. 0.],0.10302734375,-0.345703125,1.14404296875,[0. 0. 0. 0. 0. 0. 0. 0. 0.]
8.459805488586426,-0.013545552268624306,-0.02518182434141636,0.10074913501739502,0.9945008754730225,[0. 0. 0. 0. 0. 0. 0. 0. 0.],0.6103515625,-16.66259765625,82.82470703125,[0. 0. 0. 0. 0. 0. 0. 0. 0.],0.076171875,-0.25390625,0.88818359375,[0. 0. 0. 0. 0. 0. 0. 0. 0.]
8.479986429214478,-0.015337787568569183,-0.02872430719435215,0.11567754298448563,0.9927529096603394,[0. 0. 0. 0. 0. 0. 0. 0. 0.],-1.46484375,-17.9443359375,88.80615234375,[0. 0. 0. 0. 0. 0. 0. 0. 0.],0.068359375,-0.24658203125,0.84912109375,[0. 0. 0. 0. 0. 0. 0. 0. 0.]
8.500279903411865,-0.018412547186017036,-0.030162828043103218,0.13240809738636017,0.9905651807785034,[0. 0. 0. 0. 0. 0. 0. 0. 0.],-5.126953125,-5.615234375,98.876953125,[0. 0. 0. 0. 0. 0. 0. 0. 0.],0.16796875,-0.26123046875,0.94580078125,[0. 0. 0. 0. 0. 0. 0. 0. 0.]
8.519751071929932,-0.020820776000618935,-0.03171881288290024,0.15001662075519562,0.9879551529884338,[0. 0. 0. 0. 0. 0. 0. 0. 0.],-4.33349609375,-4.45556640625,103.57666015625,[0. 0. 0. 0. 0. 0. 0. 0. 0.],0.20263671875,-0.31982421875,1.12890625,[0. 0. 0. 0. 0. 0. 0. 0. 0.]
8.539709329605103,-0.02181309275329113,-0.03416219353675842,0.16835834085941315,0.9848922491073608,[0. 0. 0. 0. 0. 0. 0. 0. 0.],5.126953125,-9.033203125,108.33740234375,[0. 0. 0. 0. 0. 0. 0. 0. 0.],0.2099609375,-0.3291015625,1.0830078125,[0. 0. 0. 0. 0. 0. 0. 0. 0.]
8.559818983078003,-0.022879771888256073,-0.03405231237411499,0.18813736736774445,0.981285572052002,[0. 0. 0. 0. 0. 0. 0. 0. 0.],2.01416015625,3.72314453125,118.34716796875,[0. 0. 0. 0. 0. 0. 0. 0. 0.],0.2197265625,-0.23681640625,0.87841796875,[0. 0. 0. 0. 0. 0. 0. 0. 0.]
8.579878807067871,-0.024373091757297516,-0.0363813191652298,0.20894794166088104,0.9769458174705505,[0. 0. 0. 0. 0. 0. 0. 0. 0.],7.50732421875,-26.55029296875,121.337890625,[0. 0. 0. 0. 0. 0. 0. 0. 0.],0.10400390625,-0.40478515625,1.02099609375,[0. 0. 0. 0. 0. 0. 0. 0. 0.]
8.599791049957275,-0.022444117814302444,-0.04007818549871445,0.23049907386302948,0.971987783908844,[0. 0. 0. 0. 0. 0. 0. 0. 0.],16.54052734375,-10.80322265625,123.9013671875,[0. 0. 0. 0. 0. 0. 0. 0. 0.],0.470703125,-0.4853515625,1.419921875,[0. 0. 0. 0. 0. 0. 0. 0. 0.]
8.61993932723999,-0.01901763118803501,-0.0442662313580513,0.25085797905921936,0.9668242335319519,[0. 0. 0. 0. 0. 0. 0. 0. 0.],15.13671875,-32.958984375,125.42724609375,[0. 0. 0. 0. 0. 0. 0. 0. 0.],0.3837890625,-0.2958984375,0.8544921875,[0. 0. 0. 0. 0. 0. 0. 0. 0.]
8.640143394470215,-0.019469594582915306,-0.04746977239847183,0.27384066581726074,0.9604055285453796,[0. 0. 0. 0. 0. 0. 0. 0. 0.],-10.1318359375,0.18310546875,144.287109375,[0. 0. 0. 0. 0. 0. 0. 0. 0.],0.2470703125,-0.181640625,0.5068359375,[0. 0. 0. 0. 0. 0. 0. 0. 0.]
8.660658836364746,-0.02168726548552513,-0.05071896314620972,0.29800093173980713,0.9529705047607422,[0. 0. 0. 0. 0. 0. 0. 0. 0.],0.1220703125,-15.56396484375,148.37646484375,[0. 0. 0. 0. 0. 0. 0. 0. 0.],0.31689453125,-0.3828125,0.8955078125,[0. 0. 0. 0. 0. 0. 0. 0. 0.]
8.679832220077515,-0.02429639920592308,-0.05100640282034874,0.322986364364624,0.9447157382965088,[0. 0. 0. 0. 0. 0. 0. 0. 0.],8.056640625,12.87841796875,147.76611328125,[0. 0. 0. 0. 0. 0. 0. 0. 0.],0.65576171875,-0.39794921875,1.02783203125,[0. 0. 0. 0. 0. 0. 0. 0. 0.]
8.694974660873413,-0.021057823672890663,-0.05390829220414162,0.34546592831611633,0.9366449117660522,[0. 0. 0. 0. 0. 0. 0. 0. 0.],27.7099609375,-29.84619140625,136.65771484375,[0. 0. 0. 0. 0. 0. 0. 0. 0.],0.658203125,-0.4501953125,1.1953125,[0. 0. 0. 0. 0. 0. 0. 0. 0.]
8.71973180770874,-0.01880812644958496,-0.055516283959150314,0.3682651221752167,0.9278712868690491,[0. 0. 0. 0. 0. 0. 0. 0. 0.],14.95361328125,-6.04248046875,141.9677734375,[0. 0. 0. 0. 0. 0. 0. 0. 0.],0.61474609375,-0.30615234375,1.0166015625,[0. 0. 0. 0. 0. 0. 0. 0. 0.]
8.740126609802246,-0.018802233040332794,-0.058339137583971024,0.3927362561225891,0.9176062941551208,[0. 0. 0. 0. 0. 0. 0. 0. 0.],-5.7373046875,-22.52197265625,155.76171875,[0. 0. 0. 0. 0. 0. 0. 0. 0.],0.3017578125,-0.24072265625,0.65966796875,[0. 0. 0. 0. 0. 0. 0. 0. 0.]
8.759785175323486,-0.021265778690576553,-0.061603426933288574,0.4190910756587982,0.905602216720581,[0. 0. 0. 0. 0. 0. 0. 0. 0.],-11.77978515625,-2.685546875,169.12841796875,[0. 0. 0. 0. 0. 0. 0. 0. 0.],0.3310546875,-0.275390625,0.71728515625,[0. 0. 0. 0. 0. 0. 0. 0. 0.]
8.782597541809082,-0.02277194708585739,-0.061521053314208984,0.4451923668384552,0.8930287957191467,[0. 0. 0. 0. 0. 0. 0. 0. 0.],21.728515625,-16.845703125,159.97314453125,[0. 0. 0. 0. 0. 0. 0. 0. 0.],0.6318359375,-0.59326171875,1.30029296875,[0. 0. 0. 0. 0. 0. 0. 0. 0.]
8.800562620162964,-0.019800342619419098,-0.06416907161474228,0.47136053442955017,0.8793801665306091,[0. 0. 0. 0. 0. 0. 0. 0. 0.],14.83154296875,-18.6767578125,170.41015625,[0. 0. 0. 0. 0. 0. 0. 0. 0.],0.53759765625,-0.40966796875,1.05078125,[0. 0. 0. 0. 0. 0. 0. 0. 0.]
8.822360277175903,-0.019796283915638924,-0.06419114768505096,0.5053427219390869,0.8603001236915588,[0. 0. 0. 0. 0. 0. 0. 0. 0.],17.15087890625,-21.54541015625,180.84716796875,[0. 0. 0. 0. 0. 0. 0. 0. 0.],0.42822265625,-0.34375,0.88916015625,[0. 0. 0. 0. 0. 0. 0. 0. 0.]
8.839791774749756,-0.02045394666492939,-0.06611110270023346,0.5268344283103943,0.8471460342407227,[0. 0. 0. 0. 0. 0. 0. 0. 0.],-7.14111328125,-9.58251953125,193.359375,[0. 0. 0. 0. 0. 0. 0. 0. 0.],0.32373046875,-0.28369140625,0.6337890625,[0. 0. 0. 0. 0. 0. 0. 0. 0.]
8.860191822052002,-0.021388258785009384,-0.06814566999673843,0.5552808046340942,0.8285902738571167,[0. 0. 0. 0. 0. 0. 0. 0. 0.],3.41796875,-9.58251953125,197.32666015625,[0. 0. 0. 0. 0. 0. 0. 0. 0.],0.58447265625,-0.50390625,1.04833984375,[0. 0. 0. 0. 0. 0. 0. 0. 0.]
8.87977385520935,-0.020976493135094643,-0.06847955286502838,0.5830429792404175,0.8092783093452454,[0. 0. 0. 0. 0. 0. 0. 0. 0.],17.51708984375,-13.48876953125,191.58935546875,[0. 0. 0. 0. 0. 0. 0. 0. 0.],0.74951171875,-0.49951171875,1.16650390625,[0. 0. 0. 0. 0. 0. 0. 0. 0.]
8.900615215301514,-0.01931784488260746,-0.0690821036696434,0.6098573207855225,0.7892582416534424,[0. 0. 0. 0. 0. 0. 0. 0. 0.],18.24951171875,-7.87353515625,195.80078125,[0. 0. 0. 0. 0. 0. 0. 0. 0.],0.6552734375,-0.3955078125,1.04150390625,[0. 0. 0. 0. 0. 0. 0. 0. 0.]
8.919683933258057,-0.019583944231271744,-0.0676143616437912,0.6366675496101379,0.7679187655448914,[0. 0. 0. 0. 0. 0. 0. 0. 0.],6.16455078125,9.521484375,192.87109375,[0. 0. 0. 0. 0. 0. 0. 0. 0.],0.6201171875,-0.2998046875,0.76025390625,[0. 0. 0. 0. 0. 0. 0. 0. 0.]
8.940653324127197,-0.017011526972055435,-0.06877495348453522,0.6634587645530701,0.7448509931564331,[0. 0. 0. 0. 0. 0. 0. 0. 0.],18.61572265625,-32.53173828125,203.67431640625,[0. 0. 0. 0. 0. 0. 0. 0. 0.],0.34619140625,-0.37841796875,0.84033203125,[0. 0. 0. 0. 0. 0. 0. 0. 0.]
8.959767580032349,-0.015579340048134327,-0.07054174691438675,0.6901284456253052,0.7200720906257629,[0. 0. 0. 0. 0. 0. 0. 0. 0.],16.4794921875,-18.4326171875,211.48681640625,[0. 0. 0. 0. 0. 0. 0. 0. 0.],0.76953125,-0.396484375,1.07421875,[0. 0. 0. 0. 0. 0. 0. 0. 0.]
8.976372480392456,-0.015668747946619987,-0.07015449553728104,0.7166040539741516,0.6937661170959473,[0. 0. 0. 0. 0. 0. 0. 0. 0.],20.1416015625,-16.11328125,208.43505859375,[0. 0. 0. 0. 0. 0. 0. 0. 0.],0.86669921875,-0.34521484375,1.001953125,[0. 0. 0. 0. 0. 0. 0. 0. 0.]
8.999894380569458,-0.014483802951872349,-0.07105245441198349,0.7415644526481628,0.6669511795043945,[0. 0. 0. 0. 0. 0. 0. 0. 0.],4.150390625,-15.93017578125,210.9375,[0. 0. 0. 0. 0. 0. 0. 0. 0.],0.74267578125,-0.2705078125,0.93408203125,[0. 0. 0. 0. 0. 0. 0. 0. 0.]
9.020126104354858,-0.014071984216570854,-0.07211803644895554,0.7657245397567749,0.6389577388763428,[0. 0. 0. 0. 0. 0. 0. 0. 0.],12.26806640625,-28.80859375,216.9189453125,[0. 0. 0. 0. 0. 0. 0. 0. 0.],0.50390625,-0.22900390625,0.71875,[0. 0. 0. 0. 0. 0. 0. 0. 0.]
9.039730310440063,-0.014304549433290958,-0.07253716886043549,0.7887353897094727,0.610270619392395,[0. 0. 0. 0. 0. 0. 0. 0. 0.],7.32421875,-13.3056640625,201.904296875,[0. 0. 0. 0. 0. 0. 0. 0. 0.],0.93408203125,-0.39501953125,1.060546875,[0. 0. 0. 0. 0. 0. 0. 0. 0.]
9.059736013412476,-0.011591430753469467,-0.07169945538043976,0.8095018863677979,0.5826075077056885,[0. 0. 0. 0. 0. 0. 0. 0. 0.],20.32470703125,-28.564453125,191.22314453125,[0. 0. 0. 0. 0. 0. 0. 0. 0.],0.92236328125,-0.3681640625,1.09326171875,[0. 0. 0. 0. 0. 0. 0. 0. 0.]
9.080010414123535,-0.007973998785018921,-0.06918743252754211,0.8282327651977539,0.556039571762085,[0. 0. 0. 0. 0. 0. 0. 0. 0.],30.21240234375,4.94384765625,187.01171875,[0. 0. 0. 0. 0. 0. 0. 0. 0.],0.95654296875,-0.21337890625,0.97802734375,[0. 0. 0. 0. 0. 0. 0. 0. 0.]
9.094873666763306,-0.007375233806669712,-0.0666576474905014,0.8464328050613403,0.5282555818557739,[0. 0. 0. 0. 0. 0. 0. 0. 0.],11.53564453125,-11.16943359375,188.1103515625,[0. 0. 0. 0. 0. 0. 0. 0. 0.],0.6572265625,-0.13330078125,0.69091796875,[0. 0. 0. 0. 0. 0. 0. 0. 0.]
9.120132207870483,-0.00586186908185482,-0.06741655617952347,0.8639061450958252,0.49908608198165894,[0. 0. 0. 0. 0. 0. 0. 0. 0.],2.0751953125,-13.48876953125,189.208984375,[0. 0. 0. 0. 0. 0. 0. 0. 0.],0.85791015625,-0.1875,0.912109375,[0. 0. 0. 0. 0. 0. 0. 0. 0.]
