time,imu.ypr.x,imu.ypr.y,imu.ypr.z,imu.linear_acceleration.x,imu.linear_acceleration.y,imu.linear_acceleration.z,imu.angular_velocity.x,imu.angular_velocity.y,imu.angular_velocity.z,imu.compass.x,imu.compass.y,imu.compass.z,imu.orientation.x,imu.orientation.y,imu.orientation.z,imu.orientation.w
0.4044806957244873,-1.484133512299363,2.5897302568338034,173.7699162594209,-0.04541015625,0.02587890625,1.0029296875,0.0,-0.8544921875,-0.18310546875,0.0,0.0,0.0,0.023266050964593887,-0.01170082576572895,-0.9981997013092041,0.05403034761548042
0.41690683364868164,-1.4550439500676904,2.5342945205392757,173.77245708979214,-0.0439453125,0.025390625,1.001953125,-0.6103515625,-0.54931640625,-0.06103515625,0.0,0.0,0.0,0.022769195958971977,-0.011474350467324257,-0.9982142448425293,0.05402082949876785
0.4311542510986328,-1.3639022259481577,2.538683984298067,173.78036644885103,-0.044921875,0.02392578125,1.00244140625,0.06103515625,-0.48828125,-0.1220703125,0.0,0.0,0.0,0.022763719782233238,-0.010679887607693672,-0.99822598695755,0.053969476372003555
0.45662832260131836,-1.379476337916256,2.517261095966322,173.78334441132915,-0.04443359375,0.0244140625,1.0048828125,0.30517578125,-0.6103515625,-0.18310546875,0.0,0.0,0.0,0.022584158927202225,-0.010826332494616508,-0.9982299208641052,0.05394287779927254
0.47719526290893555,-1.3895959035018646,2.412297737009328,173.7851749020267,-0.04248046875,0.0244140625,1.005859375,0.0,-1.0986328125,-0.18310546875,0.0,0.0,0.0,0.02167440950870514,-0.01096472330391407,-0.9982488751411438,0.0539371520280838
0.502586841583252,-1.3712627152741983,2.5347839462819897,173.7901199589858,-0.04443359375,0.0244140625,1.00390625,-0.1220703125,-1.03759765625,-0.30517578125,0.0,0.0,0.0,0.02273229882121086,-0.01074779499322176,-0.9982306361198425,0.05388351157307625
0.5410304069519043,-1.427647207533123,2.5530630266048244,173.79088494017284,-0.044921875,0.02490234375,1.00439453125,0.0,-0.30517578125,-0.18310546875,0.0,0.0,0.0,0.022917961701750755,-0.011230443604290485,-0.9982221126556396,0.05386347696185112
0.5464777946472168,-1.4607285884478451,2.6201004795348535,173.79210071384512,-0.0458984375,0.025390625,1.00439453125,-0.3662109375,-0.18310546875,0.0,0.0,0.0,0.0,0.023517336696386337,-0.011487025767564774,-0.9982066750526428,0.05383815988898277
0.5621728897094727,-1.4680615435737943,2.5976120816925867,173.79596660091534,-0.0458984375,0.025390625,1.00537109375,-0.48828125,-0.6103515625,-0.06103515625,0.0,0.0,0.0,0.023324500769376755,-0.011562369763851166,-0.9982120990753174,0.05380571261048317
0.576364278793335,-1.3345110681759464,2.5700223863139664,173.8056791299151,-0.044921875,0.0224609375,1.0068359375,0.18310546875,-0.9765625,-0.244140625,0.0,0.0,0.0,0.023020563647150993,-0.01041404064744711,-0.9982346296310425,0.05375126004219055
0.596019983291626,-1.425095278104477,2.444284793552967,173.80507807326813,-0.04296875,0.02490234375,1.00390625,0.244140625,-0.67138671875,-0.18310546875,0.0,0.0,0.0,0.021967804059386253,-0.01126258634030819,-0.9982490539550781,0.05375318229198456
0.6150102615356445,-1.4035294894086907,2.6229337273799396,173.80772818666608,-0.0458984375,0.02490234375,1.0048828125,-0.6103515625,-0.6103515625,-0.18310546875,0.0,0.0,0.0,0.023513639345765114,-0.010990627110004425,-0.9982190728187561,0.0537133514881134
0.6360526084899902,-1.322048534261612,2.5342992162943303,173.81406660221586,-0.04443359375,0.0234375,1.00537109375,-0.30517578125,-0.6103515625,-0.18310546875,0.0,0.0,0.0,0.02270277589559555,-0.010324053466320038,-0.9982464909553528,0.05368475615978241
0.6569626331329346,-1.4161928735733058,2.5435080188428,173.81204486622156,-0.04443359375,0.0244140625,1.0048828125,0.30517578125,-0.48828125,0.1220703125,0.0,0.0,0.0,0.022827288135886192,-0.011139415204524994,-0.9982349872589111,0.05368257686495781
0.6800916194915771,-1.4699030266070532,2.5622065154693563,173.81296011157033,-0.04541015625,0.02587890625,1.0048828125,0.0,-0.67138671875,-0.1220703125,0.0,0.0,0.0,0.023015234619379044,-0.01159863080829382,-0.998226523399353,0.05366156995296478
0.6977970600128174,-1.4144541635427146,2.4947426026030244,173.81666207410046,-0.0439453125,0.02490234375,1.0048828125,-0.30517578125,-1.03759765625,-0.244140625,0.0,0.0,0.0,0.022401226684451103,-0.011148250661790371,-0.9982463717460632,0.05364840850234032
0.7112033367156982,-1.4108721562098658,2.5207536705097255,173.81917558371504,-0.04443359375,0.02587890625,1.00390625,-0.18310546875,-0.42724609375,-0.18310546875,0.0,0.0,0.0,0.022625889629125595,-0.011105242185294628,-0.9982430934906006,0.05362417548894882
0.7403748035430908,-1.4077331506777162,2.4824845474769672,173.82183935749134,-0.04345703125,0.02392578125,1.00390625,0.06103515625,-0.30517578125,0.0,0.0,0.0,0.0,0.022290797904133797,-0.011096503585577011,-0.9982516765594482,0.0536060631275177
0.7522578239440918,-1.3144624352495493,2.6053152544158915,173.82809581077106,-0.04541015625,0.02294921875,1.00439453125,-0.1220703125,-0.8544921875,-0.06103515625,0.0,0.0,0.0,0.02331659384071827,-0.010227235965430737,-0.9982402324676514,0.05355620011687279
0.7784717082977295,-1.4193352942000406,2.4706085560576074,173.82681173520712,-0.04345703125,0.02490234375,1.00634765625,-0.1220703125,-1.0986328125,-0.244140625,0.0,0.0,0.0,0.02219228632748127,-0.011204144917428493,-0.9982550740242004,0.053561966866254807
0.796238899230957,-1.3800630938546425,2.586659446471648,173.83153822611277,-0.04541015625,0.02490234375,1.00439453125,0.06103515625,-0.48828125,-0.18310546875,0.0,0.0,0.0,0.023184414952993393,-0.010808204300701618,-0.9982393980026245,0.053514957427978516
0.8161475658416748,-1.4789905932977552,2.507689226174784,173.82937988633503,-0.0439453125,0.02587890625,1.00244140625,-0.1220703125,-0.42724609375,0.0,0.0,0.0,0.0,0.022542916238307953,-0.011706826277077198,-0.998243510723114,0.05352339893579483
0.8362431526184082,-1.3666440132913888,2.5657323871849638,173.83794494355422,-0.044921875,0.02392578125,1.00537109375,-0.18310546875,-0.732421875,-0.1220703125,0.0,0.0,0.0,0.022995252162218094,-0.0107024647295475,-0.9982476234436035,0.05346425995230675
0.8560190200805664,-1.3352367757752603,2.4991642963169616,173.84314954770178,-0.0439453125,0.0234375,1.0048828125,0.06103515625,-0.79345703125,-0.1220703125,0.0,0.0,0.0,0.022400235757231712,-0.01046124380081892,-0.9982653856277466,0.0534326396882534
0.8762898445129395,-1.4168015074613776,2.5526431834142804,173.8435320382953,-0.044921875,0.02490234375,1.00390625,0.30517578125,-0.67138671875,-0.18310546875,0.0,0.0,0.0,0.022904086858034134,-0.011146686971187592,-0.9982479214668274,0.05340709909796715
0.8992033004760742,-1.4737286795942008,2.5249269160926033,173.8423026042447,-0.04345703125,0.02587890625,1.00341796875,-0.30517578125,-0.67138671875,-0.18310546875,0.0,0.0,0.0,0.022689303383231163,-0.011655408889055252,-0.9982469081878662,0.05340978130698204
0.9161779880523682,-1.4927205541899502,2.5954787147940155,173.84466584969752,-0.0458984375,0.02685546875,1.00146484375,-0.48828125,-0.54931640625,-0.06103515625,0.0,0.0,0.0,0.023312486708164215,-0.011788097210228443,-0.9982327818870544,0.05337667465209961
0.9359226226806641,-1.3806822931915865,2.4602288029533037,173.85328554843008,-0.04248046875,0.0234375,1.005859375,0.18310546875,-0.6103515625,0.0,0.0,0.0,0.0,0.022081283852458,-0.010877423919737339,-0.9982730150222778,0.05333998426795006
0.9559409618377686,-1.391762887737757,2.495144303103586,173.85556683161286,-0.0439453125,0.02490234375,1.005859375,0.06103515625,-0.48828125,-0.18310546875,0.0,0.0,0.0,0.02239038236439228,-0.0109579898416996,-0.9982666373252869,0.05331391468644142
0.9770946502685547,-1.3931746024618339,2.4940098513711293,173.85816230349747,-0.04345703125,0.0244140625,1.00390625,-0.06103515625,-0.8544921875,-0.1220703125,0.0,0.0,0.0,0.022380908951163292,-0.01097132544964552,-0.9982679486274719,0.0532912015914917
0.9927878379821777,-1.448141296859452,2.446586140416438,173.85948736019645,-0.04296875,0.025390625,1.0029296875,0.0,-0.91552734375,-0.48828125,0.0,0.0,0.0,0.02199321612715721,-0.011472700163722038,-0.9982718229293823,0.05327458679676056
1.0160717964172363,-1.3921382279769903,2.63257005708177,173.86432313412882,-0.04638671875,0.0244140625,1.00439453125,-0.06103515625,-0.30517578125,-0.18310546875,0.0,0.0,0.0,0.02358686365187168,-0.010898482985794544,-0.9982446432113647,0.05322154238820076
1.035994529724121,-1.5000685570764145,2.556930834665756,173.86105830370556,-0.044921875,0.0263671875,1.0048828125,-0.1220703125,-0.48828125,0.0,0.0,0.0,0.0,0.022978423163294792,-0.011873546987771988,-0.9982469081878662,0.05323724076151848
1.0561680793762207,-1.3636667978652037,2.531797659510813,173.87063422892192,-0.04443359375,0.02392578125,1.00341796875,-0.18310546875,-0.79345703125,-0.06103515625,0.0,0.0,0.0,0.022695202380418777,-0.01069899182766676,-0.9982694983482361,0.05318400263786316
1.0773487091064453,-1.3507074744104566,2.50249913617922,173.8738717385885,-0.0439453125,0.0234375,1.0078125,0.18310546875,-0.79345703125,-0.18310546875,0.0,0.0,0.0,0.022433659061789513,-0.010600462555885315,-0.9982776641845703,0.0531616285443306
1.0920841693878174,-1.4754238471688332,2.5276107535495953,173.86891302125107,-0.04443359375,0.02587890625,1.0048828125,0.1220703125,-0.67138671875,0.0,0.0,0.0,0.0,0.022710761055350304,-0.011674188077449799,-0.9982585310935974,0.05317724868655205
1.1219415664672852,-1.5668607635265577,2.511613810183191,173.86787483249722,-0.04443359375,0.02685546875,1.00390625,-0.48828125,-0.79345703125,-0.244140625,0.0,0.0,0.0,0.022613950073719025,-0.01247803121805191,-0.9982513785362244,0.05317026749253273
1.1369905471801758,-1.4602684044525156,2.4745911966739595,173.87466404053222,-0.04345703125,0.025390625,1.0048828125,-0.3662109375,-0.54931640625,0.0,0.0,0.0,0.0,0.02224128320813179,-0.011568139307200909,-0.9982725381851196,0.0531366690993309
1.1559255123138428,-1.3324655332412334,2.5117965177434884,173.88429460726195,-0.0439453125,0.0234375,1.00390625,0.1220703125,-0.244140625,0.0,0.0,0.0,0.0,0.02250524051487446,-0.010439237579703331,-0.9982823729515076,0.05307334288954735
1.176001787185669,-1.2765304460853546,2.5803914672476918,173.88936260762608,-0.04541015625,0.0224609375,1.0068359375,-0.06103515625,-0.8544921875,-0.18310546875,0.0,0.0,0.0,0.023076452314853668,-0.00992090255022049,-0.9982767701148987,0.0530327744781971
1.2006912231445312,-1.419989498256481,2.530109535568762,173.88828343773721,-0.04443359375,0.02490234375,1.0048828125,-0.18310546875,-1.0986328125,-0.30517578125,0.0,0.0,0.0,0.02270490862429142,-0.011193938553333282,-0.9982726573944092,0.05301922559738159
1.2177536487579346,-1.4887442101542392,2.443269229800751,173.88880253211414,-0.04296875,0.02587890625,1.001953125,-0.244140625,-0.30517578125,-0.244140625,0.0,0.0,0.0,0.021980170160531998,-0.011833595111966133,-0.9982818961143494,0.053011830896139145
1.232668161392212,-1.3731782631712697,2.475551692025993,173.89710804214488,-0.04443359375,0.0244140625,1.00390625,0.06103515625,-0.30517578125,0.0,0.0,0.0,0.0,0.022207139059901237,-0.010813345201313496,-0.9982913136482239,0.05295783653855324
1.257420301437378,-1.4874527707925778,2.6375571623929366,173.89526389106896,-0.0458984375,0.02587890625,1.00537109375,0.0,-0.91552734375,-0.1220703125,0.0,0.0,0.0,0.02367139793932438,-0.01173284649848938,-0.9982485771179199,0.052931781858205795
1.2785108089447021,-1.3731180721292089,2.48863321183386,173.9049627596904,-0.04296875,0.02294921875,1.005859375,0.0,-1.15966796875,-0.30517578125,0.0,0.0,0.0,0.022320332005620003,-0.010808248072862625,-0.9982924461364746,0.052887964993715286
1.2944912910461426,-1.3910293894539212,2.531052101674224,173.90690253341467,-0.04443359375,0.0244140625,1.00341796875,0.06103515625,-0.42724609375,-0.18310546875,0.0,0.0,0.0,0.022697944194078445,-0.010944894514977932,-0.998283863067627,0.052862703800201416
1.3161718845367432,-1.4715041723588922,2.529341993060782,173.9061648729843,-0.04443359375,0.02587890625,1.00341796875,-0.3662109375,-0.244140625,-0.1220703125,0.0,0.0,0.0,0.02272023633122444,-0.011646614409983158,-0.9982759356498718,0.05285333842039108
1.3359270095825195,-1.4259404072925603,2.4301121510251904,173.91265355269584,-0.04345703125,0.02490234375,1.0078125,-0.18310546875,-0.732421875,-0.18310546875,0.0,0.0,0.0,0.02183414250612259,-0.011297163553535938,-0.99830162525177,0.05281757935881615
1.3561875820159912,-1.359624393093614,2.4745649431343373,173.9194291003525,-0.04345703125,0.0234375,1.00439453125,0.06103515625,-1.03759765625,-0.18310546875,0.0,0.0,0.0,0.022190198302268982,-0.010700050741434097,-0.9983029961585999,0.052766185253858566
1.3768110275268555,-1.3337963529123282,2.536059270666078,173.92481128941844,-0.04443359375,0.0234375,1.00341796875,0.244140625,-0.732421875,-0.3662109375,0.0,0.0,0.0,0.02271352708339691,-0.010447519831359386,-0.9982964396476746,0.05271735042333603
1.395301342010498,-1.493060889709687,2.524279542225333,173.91992087397273,-0.04443359375,0.0263671875,1.00439453125,-0.48828125,-0.67138671875,-0.1220703125,0.0,0.0,0.0,0.02268465794622898,-0.011839491315186024,-0.9982810020446777,0.052729878574609756
1.4161567687988281,-1.4237432208139318,2.5675426007584288,173.92531672341704,-0.04541015625,0.02490234375,1.00341796875,-0.244140625,-0.732421875,-0.18310546875,0.0,0.0,0.0,0.023029111325740814,-0.011216582730412483,-0.9982823133468628,0.052691444754600525
1.4363534450531006,-1.4733995498535708,2.5011439839592073,173.92669642162937,-0.0439453125,0.02587890625,1.00341796875,0.06103515625,-0.244140625,-0.06103515625,0.0,0.0,0.0,0.022473378106951714,-0.011680296622216702,-0.9982904195785522,0.052677594125270844
1.4648973941802979,-1.3896368846368847,2.522568152951422,173.93684608273603,-0.0439453125,0.02490234375,1.00390625,-0.42724609375,-0.67138671875,-0.30517578125,0.0,0.0,0.0,0.022620534524321556,-0.010942632332444191,-0.9982993006706238,0.05260302126407623
1.485426902770996,-1.4143465880632868,2.473958550402087,173.93784329035483,-0.04345703125,0.02490234375,1.00390625,-0.244140625,-0.48828125,-0.18310546875,0.0,0.0,0.0,0.022208314388990402,-0.011180631816387177,-0.9983063340187073,0.05259520560503006
1.5022313594818115,-1.4260168200338998,2.5159721112038937,173.94125838493986,-0.0439453125,0.02490234375,1.00390625,0.30517578125,-0.79345703125,-0.244140625,0.0,0.0,0.0,0.022579336538910866,-0.01126349437981844,-0.9982991218566895,0.05255817621946335
1.518162488937378,-1.3807821847081978,2.5204670160079967,173.946326385304,-0.0439453125,0.02392578125,1.00439453125,0.06103515625,-0.67138671875,-0.244140625,0.0,0.0,0.0,0.022597268223762512,-0.010868332348763943,-0.9983049035072327,0.05252251774072647
1.5362069606781006,-1.3754836654595606,2.6001845016887426,173.94821151751492,-0.0458984375,0.0244140625,1.00537109375,-0.30517578125,-0.6103515625,-0.06103515625,0.0,0.0,0.0,0.023289121687412262,-0.010785648599267006,-0.9982912540435791,0.05249793827533722
1.560922384262085,-1.5299428440106981,2.5276722252521253,173.94634004568232,-0.0439453125,0.0263671875,1.00341796875,-0.244140625,-0.48828125,-0.1220703125,0.0,0.0,0.0,0.02272838167846203,-0.012164454907178879,-0.9982885718345642,0.052491988986730576
1.5761702060699463,-1.441601817615988,2.5034805489855865,173.95245989517866,-0.0439453125,0.025390625,1.0048828125,0.18310546875,-0.79345703125,-0.18310546875,0.0,0.0,0.0,0.022476550191640854,-0.01140725426375866,-0.9983049035072327,0.052459001541137695
1.5961995124816895,-1.4831758984333863,2.542847838370836,173.95429038587622,-0.044921875,0.0263671875,1.0048828125,-0.1220703125,-0.6103515625,-0.1220703125,0.0,0.0,0.0,0.02283834107220173,-0.011751591227948666,-0.9982942938804626,0.05243007093667984
1.6163201332092285,-1.422123398763581,2.548975585273395,173.95866170694504,-0.04443359375,0.02490234375,1.00341796875,-0.54931640625,-0.54931640625,-0.1220703125,0.0,0.0,0.0,0.02286335825920105,-0.0112177524715662,-0.9983012676239014,0.05240345746278763
1.6362013816833496,-1.4226088758031807,2.5399943134016514,173.96262321666364,-0.044921875,0.02490234375,1.0029296875,0.0,-0.42724609375,-0.1220703125,0.0,0.0,0.0,0.02278495393693447,-0.01122692134231329,-0.9983046650886536,0.05236990377306938
1.656540870666504,-1.4059539931206335,2.560260551886137,173.9658880470869,-0.044921875,0.02490234375,1.00390625,0.18310546875,-0.67138671875,-0.1220703125,0.0,0.0,0.0,0.02295357547700405,-0.011073119007050991,-0.9983040690422058,0.05234244838356972
1.6760516166687012,-1.513221153540332,2.5105391226059717,173.9630603487705,-0.04345703125,0.02587890625,1.00390625,-0.1220703125,-0.9765625,-0.06103515625,0.0,0.0,0.0,0.02256971225142479,-0.012030011042952538,-0.9983012080192566,0.052351780235767365
1.6961524486541748,-1.4936936427032654,2.528711481223025,173.96617491503204,-0.04443359375,0.02587890625,1.00390625,-0.48828125,-0.8544921875,-0.18310546875,0.0,0.0,0.0,0.022718774154782295,-0.011852113530039787,-0.9983013272285461,0.052326224744319916
1.7160043716430664,-1.427576344320484,2.5347365618446225,173.97183031166483,-0.04443359375,0.02490234375,1.0029296875,0.06103515625,-0.18310546875,0.0,0.0,0.0,0.0,0.022740516811609268,-0.01127445138990879,-0.998309314250946,0.05228938162326813
1.7399318218231201,-1.4012966578803312,2.577991296084667,173.97633823651702,-0.044921875,0.0244140625,1.001953125,0.0,-0.3662109375,-0.06103515625,0.0,0.0,0.0,0.02310490608215332,-0.011026470921933651,-0.9983058571815491,0.0522502064704895
1.757408618927002,-1.334845854166983,2.5222972932621484,173.98218487844656,-0.04443359375,0.02392578125,1.005859375,-0.06103515625,-0.9765625,-0.244140625,0.0,0.0,0.0,0.022588878870010376,-0.010474362410604954,-0.9983252286911011,0.0522189736366272
1.7768926620483398,-1.4200199139426286,2.475228752144298,173.98169310482632,-0.04345703125,0.025390625,1.00341796875,0.1220703125,-0.9765625,-0.30517578125,0.0,0.0,0.0,0.022217683494091034,-0.011237970553338528,-0.9983256459236145,0.052211932837963104
1.796104907989502,-1.4210960956237288,2.5842116774278447,173.9849715956279,-0.04443359375,0.02490234375,1.0029296875,-0.06103515625,-0.3662109375,-0.18310546875,0.0,0.0,0.0,0.023167280480265617,-0.011197838000953197,-0.9983066320419312,0.05217033624649048
1.8168919086456299,-1.4725549542740164,2.529432706510696,173.98525846357308,-0.04443359375,0.02587890625,1.00390625,-0.18310546875,-0.42724609375,0.0,0.0,0.0,0.0,0.02271346189081669,-0.011671406216919422,-0.9983120560646057,0.05216408148407936
1.8360812664031982,-1.4864015619906306,2.526264565952868,173.98820910529452,-0.04443359375,0.02587890625,1.00537109375,-0.06103515625,-0.732421875,-0.06103515625,0.0,0.0,0.0,0.022691864520311356,-0.011794078163802624,-0.9983124732971191,0.05213605612516403
1.857043981552124,-1.457448603542358,2.556985476179116,173.99375521890056,-0.044921875,0.02490234375,1.00439453125,0.30517578125,-0.79345703125,-0.18310546875,0.0,0.0,0.0,0.022945761680603027,-0.011528825387358665,-0.99831223487854,0.05208967998623848
1.8760919570922852,-1.4194014616576252,2.5303069707244576,173.99732057764732,-0.04443359375,0.02490234375,1.00537109375,0.1220703125,-0.732421875,-0.1220703125,0.0,0.0,0.0,0.022695699706673622,-0.011210323311388493,-0.9983226656913757,0.05206938460469246
1.8924531936645508,-1.444548830799437,2.5023347847523167,173.99934231364162,-0.0439453125,0.025390625,1.00341796875,-0.30517578125,-0.91552734375,-0.18310546875,0.0,0.0,0.0,0.0224632378667593,-0.01144264917820692,-0.998326301574707,0.05205016955733299
1.9161219596862793,-1.4154091093660468,2.4478695756501656,174.004820125356,-0.04296875,0.02490234375,1.0048828125,-0.3662109375,-0.48828125,-0.30517578125,0.0,0.0,0.0,0.021974969655275345,-0.011214828118681908,-0.9983416199684143,0.052014581859111786
1.9362835884094238,-1.3999570870293625,2.536092781281693,174.00852208788612,-0.044921875,0.02490234375,1.00390625,0.06103515625,-0.244140625,-0.06103515625,0.0,0.0,0.0,0.022736191749572754,-0.011040491051971912,-0.9983285069465637,0.05197497457265854
1.9577476978302002,-1.422867996104818,2.5412438111329405,174.012374314578,-0.04443359375,0.0244140625,1.001953125,0.06103515625,-0.732421875,-0.18310546875,0.0,0.0,0.0,0.022791080176830292,-0.01123849581927061,-0.9983270764350891,0.0519363209605217
1.9760851860046387,-1.463891392920384,2.5287351734417087,174.01401355997882,-0.04443359375,0.025390625,1.0048828125,-0.18310546875,-1.15966796875,-0.06103515625,0.0,0.0,0.0,0.022700531408190727,-0.0116019481793046,-0.9983260631561279,0.05191536247730255
1.9960408210754395,-1.4239391618657466,2.500381990979928,174.0187537112628,-0.0439453125,0.02490234375,1.0048828125,0.0,-0.6103515625,-0.18310546875,0.0,0.0,0.0,0.022434955462813377,-0.011267793364822865,-0.9983375072479248,0.05188530683517456
2.0166637897491455,-1.493072735819029,2.4193326184110293,174.0188903150462,-0.04248046875,0.0263671875,1.00439453125,-0.244140625,-0.18310546875,-0.1220703125,0.0,0.0,0.0,0.02176014892756939,-0.011907204985618591,-0.9983451962471008,0.05188058316707611
2.0385525226593018,-1.5221614442770555,2.5741774892068614,174.02125356049902,-0.04541015625,0.02685546875,1.00244140625,-0.54931640625,-0.6103515625,-0.1220703125,0.0,0.0,0.0,0.023122044280171394,-0.01209024153649807,-0.9983147382736206,0.051835063844919205
2.0581114292144775,-1.4500362474673074,2.52454677337661,174.0302830705818,-0.04443359375,0.02490234375,1.00341796875,-0.18310546875,-0.54931640625,-0.06103515625,0.0,0.0,0.0,0.022656137123703957,-0.011486376635730267,-0.9983355402946472,0.05177689343690872
2.0762555599212646,-1.4208880950191607,2.472514392279453,174.03360254251842,-0.04345703125,0.02490234375,1.0029296875,0.30517578125,-0.732421875,-0.244140625,0.0,0.0,0.0,0.022189335897564888,-0.011256836354732513,-0.9983496069908142,0.05175982788205147
2.096261501312256,-1.4494604838646166,2.4155320450247406,174.03536473132428,-0.04248046875,0.025390625,1.0029296875,-0.3662109375,-0.732421875,-0.18310546875,0.0,0.0,0.0,0.021705633029341698,-0.011532102711498737,-0.9983578324317932,0.05174582079052925
2.112159490585327,-1.4479480238502818,2.474831320511968,174.03703129748178,-0.04345703125,0.025390625,1.00390625,-0.48828125,-0.6103515625,-0.06103515625,0.0,0.0,0.0,0.02222139947116375,-0.011492195539176464,-0.99834805727005,0.051724448800086975
2.1360981464385986,-1.4061850456136504,2.5102010282420557,174.04290526016797,-0.04443359375,0.02490234375,1.00439453125,0.1220703125,-0.48828125,0.0,0.0,0.0,0.0,0.022510115057229996,-0.011113368906080723,-0.9983483552932739,0.05167720839381218
2.1563801765441895,-1.4049888020135461,2.560088729939829,174.04666186421147,-0.04541015625,0.0244140625,1.00390625,0.18310546875,-0.732421875,-0.18310546875,0.0,0.0,0.0,0.022943833842873573,-0.011080964468419552,-0.9983407855033875,0.05163899064064026
2.176386594772339,-1.5079862404283402,2.504609878076166,174.0445581659471,-0.0439453125,0.0263671875,1.00439453125,-0.1220703125,-1.220703125,-0.244140625,0.0,0.0,0.0,0.022507134824991226,-0.012003153562545776,-0.998339831829071,0.0516434907913208
2.1967549324035645,-1.395058987620817,2.5025093814629753,174.0529456382479,-0.0439453125,0.0244140625,1.00390625,-0.3662109375,-0.67138671875,-0.18310546875,0.0,0.0,0.0,0.022437123581767082,-0.01102190650999546,-0.9983553886413574,0.05159282311797142
2.216005325317383,-1.3406342260451571,2.568761362638453,174.05838246882723,-0.044921875,0.0234375,1.00146484375,0.0,-0.1220703125,-0.1220703125,0.0,0.0,0.0,0.022989310324192047,-0.010518700815737247,-0.9983504414558411,0.05154869332909584
2.231330633163452,-1.3912782644718034,2.591565656729833,174.0592294122843,-0.04541015625,0.0244140625,1.00439453125,0.0,-0.48828125,-0.06103515625,0.0,0.0,0.0,0.02321067824959755,-0.010949729941785336,-0.9983417391777039,0.051528483629226685
2.2559847831726074,-1.3341593134336909,2.553058117406359,174.06623718637275,-0.044921875,0.0234375,1.0048828125,-0.06103515625,-1.0986328125,-0.244140625,0.0,0.0,0.0,0.02284887060523033,-0.010470991022884846,-0.9983575940132141,0.05148332566022873
2.276315450668335,-1.4189349810816545,2.5958351652913256,174.06590933729257,-0.04541015625,0.02392578125,1.00439453125,-0.06103515625,-0.91552734375,-0.244140625,0.0,0.0,0.0,0.023259658366441727,-0.011190093122422695,-0.9983412623405457,0.05146424099802971
2.2962207794189453,-1.3281668896540624,2.5553492189860747,174.07432413035002,-0.044921875,0.0234375,1.00390625,-0.18310546875,-0.3662109375,-0.244140625,0.0,0.0,0.0,0.022865405306220055,-0.01041935570538044,-0.9983612895011902,0.05141386389732361
2.315925359725952,-1.4280214805552987,2.5622953079285664,174.07071779046828,-0.044921875,0.02587890625,1.00537109375,-0.30517578125,-0.48828125,0.0,0.0,0.0,0.0,0.02297106757760048,-0.01128544844686985,-0.9983488917350769,0.05142448842525482
2.336049795150757,-1.452477079600235,2.5345075370640155,174.07364111143303,-0.044921875,0.02587890625,1.00341796875,-0.244140625,-0.6103515625,-0.18310546875,0.0,0.0,0.0,0.02273966185748577,-0.011511698365211487,-0.9983530044555664,0.0513974204659462
2.356020450592041,-1.4452567158738854,2.5561944548958637,174.0771381682881,-0.044921875,0.02490234375,1.00537109375,0.3662109375,-0.54931640625,-0.06103515625,0.0,0.0,0.0,0.022925013676285744,-0.011439656838774681,-0.9983511567115784,0.05136585608124733
2.378988742828369,-1.3729804011287507,2.468586393176461,174.08365416875628,-0.04345703125,0.0244140625,1.0068359375,0.06103515625,-0.67138671875,0.0,0.0,0.0,0.0,0.022128736600279808,-0.010850909166038036,-0.9983774423599243,0.05133356153964996
2.399367094039917,-1.3762444845000765,2.566978256378256,174.08573054626396,-0.044921875,0.0244140625,1.0048828125,-0.244140625,-0.91552734375,-0.1220703125,0.0,0.0,0.0,0.022987209260463715,-0.010835242457687855,-0.998359739780426,0.051303476095199585
2.411184072494507,-1.4652735457319597,2.643595689949463,174.08552564058886,-0.04638671875,0.02587890625,1.0048828125,-0.18310546875,-0.42724609375,-0.1220703125,0.0,0.0,0.0,0.023694565519690514,-0.011576170101761818,-0.9983362555503845,0.05127812549471855
2.436170816421509,-1.4779620094974335,2.459275991564087,174.08788888604167,-0.04345703125,0.025390625,1.00341796875,0.06103515625,-0.30517578125,-0.06103515625,0.0,0.0,0.0,0.022094206884503365,-0.011770586483180523,-0.9983706474304199,0.051277466118335724
2.45599102973938,-1.371969960018412,2.5131740815217154,174.09585288661393,-0.04443359375,0.0244140625,1.00537109375,-0.1220703125,-0.91552734375,-0.1220703125,0.0,0.0,0.0,0.022515591233968735,-0.010824328288435936,-0.9983747601509094,0.05122235789895058
2.471895217895508,-1.4375431911451195,2.643126327887436,174.09583922623557,-0.04638671875,0.025390625,1.00537109375,-0.1220703125,-1.220703125,-0.30517578125,0.0,0.0,0.0,0.023677047342061996,-0.011336925439536572,-0.9983436465263367,0.05119399353861809
2.496123790740967,-1.4849317906586084,2.580766914208631,174.09638564136918,-0.04443359375,0.02587890625,1.001953125,0.0,-0.42724609375,-0.18310546875,0.0,0.0,0.0,0.023154890164732933,-0.011778069660067558,-0.9983511567115784,0.05118710920214653
2.516047954559326,-1.473429218487778,2.5506137634571404,174.09844835849853,-0.044921875,0.025390625,1.00244140625,-0.18310546875,-0.1220703125,-0.06103515625,0.0,0.0,0.0,0.022886846214532852,-0.01169188879430294,-0.998358964920044,0.05117521435022354
2.536691665649414,-1.3735303380786426,2.4398033356837923,174.10542881183028,-0.04296875,0.02490234375,1.00439453125,-0.244140625,-0.67138671875,0.0,0.0,0.0,0.0,0.021876152604818344,-0.010872880928218365,-0.9983923435211182,0.05114700645208359
2.551409959793091,-1.351671171413663,2.44925631749509,174.11245024629704,-0.04296875,0.0234375,1.0048828125,0.18310546875,-0.9765625,-0.244140625,0.0,0.0,0.0,0.02194809727370739,-0.010679515078663826,-0.9983958601951599,0.05108890309929848
2.576495885848999,-1.4431755358894411,2.4878449653149577,174.11283273689057,-0.04345703125,0.025390625,1.00341796875,0.30517578125,-0.732421875,-0.30517578125,0.0,0.0,0.0,0.022325044497847557,-0.011459453031420708,-0.9983800649642944,0.05106336250901222
2.596263885498047,-1.4582469886233091,2.552216083147743,174.11343379353752,-0.044921875,0.025390625,1.00439453125,-0.42724609375,-0.6103515625,-0.18310546875,0.0,0.0,0.0,0.022892512381076813,-0.011561885476112366,-0.9983669519424438,0.05104748532176018
2.616530656814575,-1.5583895146867435,2.5578343406269015,174.1131196048357,-0.044921875,0.02734375,1.00439453125,-0.48828125,-0.42724609375,-0.18310546875,0.0,0.0,0.0,0.022986095398664474,-0.012431768700480461,-0.9983552098274231,0.051029451191425323
2.6365411281585693,-1.4769009822985544,2.514291244337836,174.12191688848668,-0.0439453125,0.02587890625,1.00537109375,0.18310546875,-0.48828125,-0.1220703125,0.0,0.0,0.0,0.022569546476006508,-0.011743160896003246,-0.9983758926391602,0.05097449943423271
2.6563282012939453,-1.4552811924196425,2.55230167395578,174.12568715290854,-0.044921875,0.025390625,1.0048828125,0.30517578125,-0.67138671875,-0.18310546875,0.0,0.0,0.0,0.02289070561528206,-0.011538456194102764,-0.9983726143836975,0.05094131827354431
2.676999092102051,-1.478158484157777,2.5058194618894927,174.1271488133909,-0.0439453125,0.02587890625,1.00537109375,-0.18310546875,-1.03759765625,-0.18310546875,0.0,0.0,0.0,0.022495759651064873,-0.01175895519554615,-0.998379647731781,0.05092964321374893
2.69602632522583,-1.5300073039209903,2.553056409859066,174.12781817192956,-0.044921875,0.02685546875,1.00439453125,-0.244140625,-0.42724609375,-0.18310546875,0.0,0.0,0.0,0.022930268198251724,-0.012189589440822601,-0.9983656406402588,0.0509076863527298
2.717435598373413,-1.5215141771314908,2.4588572155906006,174.13105568159617,-0.04345703125,0.02685546875,1.0029296875,0.0,-0.18310546875,-0.06103515625,0.0,0.0,0.0,0.022105466574430466,-0.012158546596765518,-0.998385488986969,0.05089307203888893
2.736522674560547,-1.4118081055695693,2.4940672676488393,174.13837764438642,-0.04345703125,0.0244140625,1.00244140625,0.1220703125,-0.79345703125,-0.06103515625,0.0,0.0,0.0,0.022362781688570976,-0.011188345029950142,-0.9983934760093689,0.05084622651338577
2.7572667598724365,-1.3945181220159166,2.5265535683321243,174.14507122977304,-0.04443359375,0.0244140625,1.00390625,0.0,-0.79345703125,-0.244140625,0.0,0.0,0.0,0.02263749949634075,-0.011024459265172482,-0.9983920454978943,0.05078756809234619
2.776224136352539,-1.435230211615718,2.489358705989762,174.14642360722868,-0.0439453125,0.025390625,1.00244140625,0.1220703125,-0.67138671875,-0.244140625,0.0,0.0,0.0,0.022331353276968002,-0.011396093294024467,-0.9983955025672913,0.05077212303876877
2.7962450981140137,-1.4046624470372666,2.516250654855983,174.1503851169473,-0.04443359375,0.02490234375,1.00341796875,-0.18310546875,-0.6103515625,-0.1220703125,0.0,0.0,0.0,0.02255171723663807,-0.011118503287434578,-0.9983953833580017,0.05074049532413483
2.816324234008789,-1.4736347644931131,2.5026773614278754,174.15026217354225,-0.0439453125,0.02587890625,1.00390625,-0.6103515625,-0.6103515625,-0.244140625,0.0,0.0,0.0,0.02246401086449623,-0.01172548346221447,-0.9983909726142883,0.05072959512472153
2.836291790008545,-1.4532099375538363,2.508817701491717,174.15568534374322,-0.0439453125,0.025390625,1.00439453125,-0.18310546875,-0.48828125,-0.244140625,0.0,0.0,0.0,0.022507917135953903,-0.011545847170054913,-0.9983943104743958,0.05068560317158699
2.857344150543213,-1.3609221290359164,2.587346947700292,174.16310292918186,-0.044921875,0.02392578125,1.00341796875,0.244140625,-0.67138671875,-0.1220703125,0.0,0.0,0.0,0.023150578141212463,-0.010708168148994446,-0.9983916878700256,0.05063015967607498
2.876189708709717,-1.3075207218969949,2.63919918255809,174.168170929546,-0.04638671875,0.0234375,1.0048828125,-0.1220703125,-1.0986328125,-0.18310546875,0.0,0.0,0.0,0.023578284308314323,-0.010220793075859547,-0.9983888268470764,0.05059116706252098
2.8961305618286133,-1.4477471736000012,2.551602860226323,174.16302096691183,-0.044921875,0.025390625,1.0048828125,-0.3662109375,-0.8544921875,-0.1220703125,0.0,0.0,0.0,0.02287752740085125,-0.011480584740638733,-0.9983900785446167,0.05061768367886543
2.919325113296509,-1.4431721207948562,2.5086196260057863,174.16666828792862,-0.0439453125,0.025390625,1.00390625,0.0,-0.18310546875,0.0,0.0,0.0,0.0,0.02250065468251705,-0.011460636742413044,-0.9984002113342285,0.05059196054935455
2.9319238662719727,-1.363205226487699,2.54537628902421,174.17388096769213,-0.044921875,0.02392578125,1.005859375,0.06103515625,-0.42724609375,-0.1220703125,0.0,0.0,0.0,0.02278490923345089,-0.010748941451311111,-0.9984042644500732,0.050540532916784286
2.9542887210845947,-1.3217409623055498,2.5266280600827598,174.17795176043745,-0.04443359375,0.02294921875,1.00537109375,-0.1220703125,-1.0986328125,-0.18310546875,0.0,0.0,0.0,0.022602906450629234,-0.01039682887494564,-0.9984134435653687,0.050515469163656235
2.9762063026428223,-1.3839697486164781,2.5067176317653495,174.17836157178766,-0.04443359375,0.0244140625,1.00390625,0.0,-1.0986328125,-0.18310546875,0.0,0.0,0.0,0.022456826642155647,-0.01094796322286129,-0.9984114766120911,0.050501901656389236
2.998342275619507,-1.5244519055265369,2.4523982045132957,174.17424979790732,-0.04345703125,0.02685546875,1.00341796875,-0.06103515625,-0.3662109375,-0.18310546875,0.0,0.0,0.0,0.022045904770493507,-0.01219535619020462,-0.9984053373336792,0.050516948103904724
3.0161235332489014,-1.4904512238382135,2.5210938993077567,174.17874406238118,-0.0439453125,0.02587890625,1.00390625,-0.244140625,-0.244140625,-0.06103515625,0.0,0.0,0.0,0.02262895554304123,-0.011869380250573158,-0.9983984231948853,0.05047585442662239
3.037120819091797,-1.4591776018977234,2.4891495314464303,174.1828148551265,-0.0439453125,0.025390625,1.00439453125,-0.1220703125,-0.67138671875,-0.06103515625,0.0,0.0,0.0,0.022336453199386597,-0.011611923575401306,-0.9984093308448792,0.05045048147439957
3.0563888549804688,-1.4011717934845669,2.4610981579685993,174.18890738386617,-0.04345703125,0.0244140625,1.0048828125,0.18310546875,-0.8544921875,-0.1220703125,0.0,0.0,0.0,0.022065922617912292,-0.011120187118649483,-0.9984228014945984,0.05041193962097168
3.0789365768432617,-1.4259663406670653,2.492383839461843,174.1909291198605,-0.04345703125,0.0244140625,1.0078125,0.30517578125,-0.67138671875,-0.1220703125,0.0,0.0,0.0,0.02234920673072338,-0.011322706937789917,-0.9984155893325806,0.05038577318191528
3.096097230911255,-1.472456983748109,2.4742782886326085,174.19110670477892,-0.04345703125,0.02587890625,1.00390625,-0.42724609375,-0.732421875,-0.30517578125,0.0,0.0,0.0,0.022211885079741478,-0.011735852807760239,-0.9984142184257507,0.05037736892700195
3.116381883621216,-1.3760057480442434,2.405497856803757,174.19883847891936,-0.04248046875,0.0244140625,1.00390625,-0.244140625,-0.42724609375,-0.18310546875,0.0,0.0,0.0,0.021569469943642616,-0.010927500203251839,-0.998439610004425,0.05033651366829872
3.1361167430877686,-1.3930312752109695,2.3937524927522738,174.20091485642706,-0.04248046875,0.02392578125,1.00634765625,0.30517578125,-0.54931640625,-0.18310546875,0.0,0.0,0.0,0.02147441729903221,-0.011081444099545479,-0.9984409213066101,0.05031663551926613
3.157810926437378,-1.3684231708484713,2.4750991919934795,174.20376987550011,-0.04345703125,0.02392578125,1.00634765625,0.18310546875,-0.79345703125,-0.06103515625,0.0,0.0,0.0,0.022172095254063606,-0.010831505060195923,-0.9984299540519714,0.05028711259365082
3.1721134185791016,-1.3889255844678514,2.5573050009662257,174.2071166681934,-0.044921875,0.02490234375,1.00439453125,-0.3662109375,-0.91552734375,-0.3662109375,0.0,0.0,0.0,0.02289699949324131,-0.010974361561238766,-0.998414158821106,0.05024449899792671
3.196560859680176,-1.4800267543391872,2.622761478546808,174.2060238379262,-0.0458984375,0.02587890625,1.00537109375,-0.18310546875,-0.42724609375,-0.1220703125,0.0,0.0,0.0,0.023507332429289818,-0.011738860048353672,-0.9983921051025391,0.050227757543325424
3.2165095806121826,-1.4153070834153199,2.6472235876157972,174.2126764421778,-0.04638671875,0.02490234375,1.00244140625,0.06103515625,-0.244140625,-0.18310546875,0.0,0.0,0.0,0.023691436275839806,-0.011165507137775421,-0.9983967542648315,0.05018025264143944
3.2360081672668457,-1.3335064967594257,2.5541475325789755,174.21991644269804,-0.044921875,0.0234375,1.0048828125,-0.06103515625,-0.79345703125,-0.18310546875,0.0,0.0,0.0,0.022844014689326286,-0.010495455004274845,-0.9984256029129028,0.05014435946941376
3.254737138748169,-1.3680447356797703,2.4759694007824216,174.2229490466895,-0.0439453125,0.0244140625,1.0048828125,0.06103515625,-0.48828125,-0.06103515625,0.0,0.0,0.0,0.022177696228027344,-0.010831533931195736,-0.99843829870224,0.05012001469731331
3.276336908340454,-1.3919090964746776,2.5270895247385585,174.2234544806881,-0.04443359375,0.0244140625,1.00439453125,0.3662109375,-0.91552734375,-0.18310546875,0.0,0.0,0.0,0.02263347990810871,-0.011016972362995148,-0.9984267950057983,0.05010503530502319
3.2972939014434814,-1.4425822699270021,2.5171274803906836,174.22320859387796,-0.04443359375,0.025390625,1.00439453125,-0.18310546875,-0.67138671875,-0.1220703125,0.0,0.0,0.0,0.02256886661052704,-0.01146283932030201,-0.9984234571456909,0.05009831488132477
3.3167436122894287,-1.4593479297401506,2.5157225958557765,174.22544889592572,-0.0439453125,0.0263671875,1.00341796875,-0.30517578125,-0.732421875,-0.1220703125,0.0,0.0,0.0,0.02256372570991516,-0.01160997524857521,-0.9984230995178223,0.05007576942443848
3.3362715244293213,-1.4469619152888613,2.625918093160412,174.2291918395909,-0.0458984375,0.025390625,1.00390625,0.1220703125,-0.42724609375,-0.06103515625,0.0,0.0,0.0,0.023518025875091553,-0.01145413238555193,-0.9984049797058105,0.050032321363687515
3.356104612350464,-1.4002279467186358,2.5369548792209957,174.23497017962873,-0.044921875,0.02490234375,1.00830078125,0.42724609375,-0.732421875,-0.18310546875,0.0,0.0,0.0,0.02272196114063263,-0.011087377555668354,-0.9984290599822998,0.05000195652246475
3.377598762512207,-1.3456413950370112,2.552026118511452,174.2424970480941,-0.044921875,0.0234375,1.00341796875,-0.18310546875,-1.03759765625,-0.18310546875,0.0,0.0,0.0,0.022828754037618637,-0.010606622323393822,-0.9984346628189087,0.04994545876979828
3.396120548248291,-1.3876391610263619,2.5885768086377174,174.2423604443107,-0.04541015625,0.02392578125,1.0029296875,-0.48828125,-0.6103515625,-0.18310546875,0.0,0.0,0.0,0.023165525868535042,-0.01095641776919365,-0.99842369556427,0.04993407800793648
3.4161789417266846,-1.3987701282176612,2.5630989223731007,174.24528376527545,-0.044921875,0.0244140625,1.00390625,-0.06103515625,-0.06103515625,-0.1220703125,0.0,0.0,0.0,0.022948112338781357,-0.011065208353102207,-0.9984287619590759,0.04990936070680618
3.4345877170562744,-1.4968852620363655,2.5153441606870754,174.24343961419956,-0.0439453125,0.0263671875,1.0029296875,0.1220703125,-0.54931640625,0.06103515625,0.0,0.0,0.0,0.022574957460165024,-0.011940745636820793,-0.998427152633667,0.049911659210920334
3.4563815593719482,-1.4935061326662074,2.4806463728165875,174.24927259575074,-0.04345703125,0.0244140625,1.00439453125,0.0,-1.15966796875,-0.3662109375,0.0,0.0,0.0,0.02227056585252285,-0.01192772202193737,-0.998436450958252,0.049865785986185074
3.476250648498535,-1.3880786410107697,2.4700984263039722,174.25763274729482,-0.0439453125,0.02392578125,1.00341796875,-0.06103515625,-0.91552734375,-0.244140625,0.0,0.0,0.0,0.02213197574019432,-0.011015382595360279,-0.9984525442123413,0.049814630299806595
3.4964652061462402,-1.4520716438399712,2.3778693147242325,174.25860263415697,-0.0419921875,0.025390625,1.0048828125,0.06103515625,-0.3662109375,-0.18310546875,0.0,0.0,0.0,0.02135610580444336,-0.011613660492002964,-0.9984631538391113,0.04980484023690224
3.516160488128662,-1.3354153211890327,2.503088666881957,174.26682618191768,-0.0439453125,0.0234375,1.00390625,-0.3662109375,-0.42724609375,-0.1220703125,0.0,0.0,0.0,0.022395674139261246,-0.010543826036155224,-0.9984554052352905,0.049741026014089584
3.536081314086914,-1.3594342150139114,2.5544192460418955,174.270213955746,-0.044921875,0.0234375,1.00439453125,0.0,-0.79345703125,-0.18310546875,0.0,0.0,0.0,0.022853020578622818,-0.010731272399425507,-0.9984449744224548,0.04970095679163933
3.5562362670898438,-1.3949846025918873,2.5564779077464195,174.27285040876563,-0.044921875,0.02490234375,1.005859375,0.244140625,-0.67138671875,-0.244140625,0.0,0.0,0.0,0.022886119782924652,-0.011040647514164448,-0.9984424114227295,0.04967064410448074
3.5758767127990723,-1.47180907627231,2.623048773378772,174.27231765401035,-0.04541015625,0.025390625,1.00341796875,0.06103515625,-0.732421875,-0.18310546875,0.0,0.0,0.0,0.02349947951734066,-0.011680729687213898,-0.998421847820282,0.04965183511376381
3.5984442234039307,-1.4543653067406261,2.6222865669560806,174.27663433356582,-0.0458984375,0.025390625,1.0029296875,-0.54931640625,-0.54931640625,-0.244140625,0.0,0.0,0.0,0.023484842851758003,-0.011529965326189995,-0.9984256625175476,0.049617867916822433
3.616154432296753,-1.3744616984049973,2.5664181808663153,174.284516371868,-0.044921875,0.0244140625,1.00390625,-0.244140625,-0.54931640625,-0.18310546875,0.0,0.0,0.0,0.022962726652622223,-0.01085981447249651,-0.9984475374221802,0.049571916460990906
3.6363115310668945,-1.480833143548072,2.5155428765032406,174.28323229630405,-0.04443359375,0.0263671875,1.0048828125,0.244140625,-0.6103515625,-0.18310546875,0.0,0.0,0.0,0.022565597668290138,-0.011808633804321289,-0.9984460473060608,0.04956803470849991
3.656005382537842,-1.4236892196308064,2.4998274649966876,174.28838225893824,-0.0439453125,0.0244140625,1.005859375,-0.1220703125,-0.91552734375,-0.18310546875,0.0,0.0,0.0,0.022403443232178688,-0.011318613775074482,-0.9984568953514099,0.04953631013631821
3.6733760833740234,-1.4367140702129033,2.5789413327095336,174.29092308930947,-0.04443359375,0.02490234375,1.001953125,-0.42724609375,-0.8544921875,-0.1220703125,0.0,0.0,0.0,0.02309812791645527,-0.01139803696423769,-0.9984418749809265,0.04950213432312012
3.6962029933929443,-1.4596837829482447,2.5315319224634174,174.2912099572546,-0.04443359375,0.02587890625,1.001953125,-0.06103515625,-0.1220703125,0.0,0.0,0.0,0.0,0.02269495278596878,-0.011618943884968758,-0.9984485507011414,0.04950079694390297
3.7160446643829346,-1.5243315234424153,2.5740479290560425,174.29044497606756,-0.044921875,0.0263671875,1.0048828125,-0.30517578125,-0.3662109375,-0.06103515625,0.0,0.0,0.0,0.023093385621905327,-0.012163490056991577,-0.9984336495399475,0.049489252269268036
3.737571954727173,-1.5067442132164557,2.5852601114654417,174.2966604482123,-0.0458984375,0.0263671875,1.001953125,-0.48828125,-0.48828125,-0.1220703125,0.0,0.0,0.0,0.023182827979326248,-0.0120066087692976,-0.9984359741210938,0.04943731427192688
3.756748676300049,-1.3770114933995277,2.512085733566156,174.30609976964524,-0.0439453125,0.02392578125,1.005859375,0.244140625,-0.8544921875,-0.30517578125,0.0,0.0,0.0,0.02248838171362877,-0.010910023003816605,-0.9984668493270874,0.04938963055610657
3.7797598838806152,-1.36214217157641,2.5672360960194243,174.3104164492007,-0.044921875,0.0244140625,1.00537109375,0.18310546875,-0.79345703125,-0.18310546875,0.0,0.0,0.0,0.022962093353271484,-0.010757303796708584,-0.9984596967697144,0.04934867098927498
3.7992286682128906,-1.4247854649925935,2.5928514398410876,174.3116458832513,-0.04541015625,0.02490234375,1.0029296875,-0.48828125,-0.67138671875,-0.244140625,0.0,0.0,0.0,0.0232121292501688,-0.011292223818600178,-0.9984493255615234,0.04932236298918724
3.8167574405670166,-1.4405061058627298,2.4981056169956095,174.31368127962395,-0.0439453125,0.025390625,1.0029296875,-0.42724609375,-0.48828125,-0.06103515625,0.0,0.0,0.0,0.022393176332116127,-0.011470840312540531,-0.9984664916992188,0.04931271821260452
3.8363726139068604,-1.4167742934264032,2.4791057382719264,174.31965086495856,-0.04345703125,0.0244140625,1.00390625,0.06103515625,-0.3662109375,-0.1220703125,0.0,0.0,0.0,0.022216828539967537,-0.011273479089140892,-0.9984748959541321,0.04926765337586403
3.861161470413208,-1.3511181395343035,2.494780382086871,174.32773780893584,-0.0439453125,0.02392578125,1.0048828125,0.244140625,-0.79345703125,-0.18310546875,0.0,0.0,0.0,0.022324418649077415,-0.010696160607039928,-0.9984817504882812,0.04920806735754013
3.884706497192383,-1.507147407820898,2.568411528886901,174.32452762002595,-0.04541015625,0.02685546875,1.0048828125,-0.18310546875,-1.03759765625,-0.18310546875,0.0,0.0,0.0,0.023033279925584793,-0.012023079209029675,-0.9984511733055115,0.0491965189576149
3.897969961166382,-1.285956640748501,2.5563987202407294,174.33582475291314,-0.04150390625,-0.0537109375,0.9482421875,-8.4228515625,0.48828125,-0.18310546875,0.0,0.0,0.0,0.022832611575722694,-0.010103262029588223,-0.9984796643257141,0.049143657088279724
3.9161436557769775,-0.8237680382583461,2.6024875560995064,174.34620664045156,-0.01220703125,-0.3837890625,1.0166015625,-10.986328125,-1.5869140625,-4.08935546875,0.0,0.0,0.0,0.023035258054733276,-0.006058122031390667,-0.9985077977180481,0.04914155602455139
3.9363107681274414,-0.6276457196263355,2.666571805987151,174.4388786471103,-0.03759765625,-0.24853515625,1.10107421875,1.0986328125,3.72314453125,-6.16455078125,0.0,0.0,0.0,0.02350601740181446,-0.004340543877333403,-0.9985434412956238,0.048369769006967545
3.956008195877075,-0.414430132224854,2.6904520683162194,174.64536892609812,-0.08984375,-0.28759765625,0.990234375,-2.62451171875,1.708984375,-9.21630859375,0.0,0.0,0.0,0.023619571700692177,-0.0025150319561362267,-0.9986306428909302,0.04661300778388977
3.9716413021087646,-0.21477428459484604,2.7329588968421477,174.86752765904194,-0.09716796875,-0.287109375,0.970703125,-2.5634765625,2.01416015625,-11.8408203125,0.0,0.0,0.0,0.023907240480184555,-0.0008041011169552803,-0.9987133145332336,0.04471684992313385
3.9965691566467285,0.03593428556399161,2.7036003959119057,175.19335500320824,-0.06494140625,-0.26708984375,0.98486328125,-2.38037109375,-5.67626953125,-20.8740234375,0.0,0.0,0.0,0.023557275533676147,0.0013024852378293872,-0.9988420605659485,0.04192931205034256
4.016330003738403,0.2880786495317732,2.6592156922510473,175.66713790517534,-0.05419921875,-0.26318359375,0.9736328125,-1.708984375,-1.03759765625,-25.45166015625,0.0,0.0,0.0,0.02309228666126728,0.0033886469900608063,-0.9990108013153076,0.03785039111971855
4.0362327098846436,0.5522320001746379,2.6531250845020997,176.24422058814972,-0.08154296875,-0.2705078125,0.9560546875,-2.9296875,-3.5400390625,-31.005859375,0.0,0.0,0.0,0.022980235517024994,0.005573867820203304,-0.9991797804832458,0.03287186101078987
4.056351900100708,0.8458908075366058,2.5833585441118276,176.94240252510843,-0.0771484375,-0.26904296875,0.95849609375,-3.0517578125,-3.60107421875,-36.62109375,0.0,0.0,0.0,0.022336618974804878,0.00797861535102129,-0.9993583559989929,0.026838265359401703
4.076005220413208,1.1558963920165297,2.6369610149444416,177.69433805083514,-0.05615234375,-0.30615234375,0.990234375,-4.39453125,-1.953125,-40.771484375,0.0,0.0,0.0,0.022801078855991364,0.010545134544372559,-0.9994773268699646,0.020345060154795647
4.096153974533081,1.458944308248885,2.6912091520970334,178.49398927810356,-0.0615234375,-0.3154296875,0.9697265625,-3.41796875,5.0048828125,-40.4052734375,0.0,0.0,0.0,0.02331186830997467,0.013035327196121216,-0.9995530247688293,0.013436347246170044
4.116281509399414,1.720080262743338,2.902885679099014,179.3051562043126,-0.06591796875,-0.33642578125,1.0078125,-2.44140625,9.6435546875,-39.36767578125,0.0,0.0,0.0,0.025235440582036972,0.015158450230956078,-0.9995458722114563,0.0064412071369588375
4.13833475112915,1.9656061400548441,2.8630876609092306,-179.85263684742415,-0.1142578125,-0.35400390625,1.09765625,-0.67138671875,1.5869140625,-39.36767578125,0.0,0.0,0.0,0.025000905618071556,0.01711481623351574,-0.9995406270027161,-0.0008568735793232918
4.156324625015259,2.196806549355895,2.852552947888132,-179.07975996170217,-0.076171875,-0.37353515625,1.07666015625,0.42724609375,2.25830078125,-35.400390625,0.0,0.0,0.0,0.02503916807472706,0.018963171169161797,-0.9994781017303467,-0.007549467030912638
4.178818702697754,2.3750904949490947,2.7426637418790896,-178.45806248306928,-0.11083984375,-0.341796875,0.90576171875,2.38037109375,-13.7939453125,-28.38134765625,0.0,0.0,0.0,0.024203449487686157,0.02039533108472824,-0.9994150996208191,-0.012952806428074837
4.197256326675415,2.5462940956939306,2.7439422679143513,-178.06406985098627,-0.03515625,-0.34033203125,0.90283203125,2.74658203125,5.126953125,-14.83154296875,0.0,0.0,0.0,0.02430903911590576,0.02180485799908638,-0.9993329048156738,-0.01635243371129036
4.216054916381836,2.724327245278544,2.8637489085982524,-177.8661719499743,-0.03369140625,-0.27978515625,0.89208984375,-3.84521484375,11.962890625,-5.67626953125,0.0,0.0,0.0,0.02541942708194256,0.02329530194401741,-0.9992430806159973,-0.018015146255493164
4.238332033157349,3.085555246469597,2.663708889507858,-177.77489330190627,-0.13134765625,-0.35400390625,1.0927734375,-2.62451171875,-10.3759765625,-0.8544921875,0.0,0.0,0.0,0.023752959445118904,0.02645980939269066,-0.9991912245750427,-0.018778547644615173
4.256134748458862,3.247354103614148,2.638012650633212,-177.76720250890082,-0.02978515625,-0.357421875,1.1298828125,-1.89208984375,-4.82177734375,-1.708984375,0.0,0.0,0.0,0.023557275533676147,0.02787352353334427,-0.9991565942764282,-0.018818460404872894
4.276254177093506,3.3947606849604246,2.685868157609495,-177.73874794081854,-0.0048828125,-0.30712890625,0.9794921875,1.64794921875,4.39453125,-1.708984375,0.0,0.0,0.0,0.024005940183997154,0.029144398868083954,-0.9991058111190796,-0.01902374066412449
4.296020746231079,3.6040436575451387,2.947600366274149,-177.64796106637075,-0.02490234375,-0.271484375,0.86328125,-4.0283203125,21.05712890625,-5.37109375,0.0,0.0,0.0,0.026346879079937935,0.03090139664709568,-0.9989809393882751,-0.019698431715369225
4.311797142028809,3.7405740164118164,3.0424806584689112,-177.33105394926048,-0.10595703125,-0.3408203125,1.09716796875,6.103515625,0.9765625,-21.240234375,0.0,0.0,0.0,0.027285998687148094,0.03199858218431473,-0.9988642930984497,-0.02240201085805893
4.3365514278411865,3.665978532278345,3.170084386977205,-176.69424809218353,-0.072265625,-0.29833984375,1.12939453125,14.6484375,12.75634765625,-36.68212890625,0.0,0.0,0.0,0.02855728380382061,0.031163252890110016,-0.9987156987190247,-0.02793399803340435
4.353862047195435,3.590208682494455,3.336515606482906,-175.8008730091242,-0.2626953125,-0.115234375,0.91357421875,5.92041015625,2.38037109375,-48.03466796875,0.0,0.0,0.0,0.030225805938243866,0.030225012451410294,-0.998448371887207,-0.03569125011563301
4.376075983047485,3.55925597272325,3.596867690048394,-174.71861587475735,-0.21435546875,-0.0888671875,0.98095703125,8.72802734375,9.1552734375,-58.53271484375,0.0,0.0,0.0,0.03276508301496506,0.029561901465058327,-0.9980093836784363,-0.04505392163991928
4.399449348449707,3.709214483498172,4.148289779197857,-173.42615283849418,-0.1865234375,-0.1005859375,0.85693359375,-3.72314453125,26.611328125,-66.7724609375,0.0,0.0,0.0,0.03796865791082382,0.03021487034857273,-0.9972454309463501,-0.05609925091266632
4.41916036605835,3.883607996028815,4.130693077461788,-171.97098103582294,-0.4482421875,-0.13427734375,0.978515625,-0.06103515625,-16.05224609375,-72.69287109375,0.0,0.0,0.0,0.03830089047551155,0.03125765547156334,-0.9964114427566528,-0.0687052384018898
4.439937591552734,3.937819207471206,4.274422882600482,-169.9859094969638,-0.1669921875,-0.06591796875,1.08837890625,7.26318359375,14.6484375,-80.9326171875,0.0,0.0,0.0,0.040125031024217606,0.03094935044646263,-0.9950152039527893,-0.08588963001966476
4.451314687728882,3.8811196727368147,4.366664160454682,-168.67482736502316,-0.23388671875,-0.02001953125,0.9189453125,6.16455078125,-3.0517578125,-90.8203125,0.0,0.0,0.0,0.041228264570236206,0.02991609275341034,-0.9939548373222351,-0.097258061170578
4.4778759479522705,4.1994730824038164,4.6842474662927645,-166.40133059789272,-0.1923828125,-0.087890625,0.9443359375,-8.9111328125,17.63916015625,-89.05029296875,0.0,0.0,0.0,0.044885896146297455,0.03151601180434227,-0.9916484355926514,-0.11672736704349518
4.496565103530884,4.2592624239639925,4.722280520912334,-165.081205295491,-0.22607421875,-0.0517578125,1.2119140625,6.34765625,-5.0048828125,-87.158203125,0.0,0.0,0.0,0.04564135521650314,0.03146997094154358,-0.9902098178863525,-0.12810580432415009
4.517731189727783,4.055361213558426,4.617294536953715,-163.01654839242286,-0.1787109375,0.033203125,1.09521484375,10.92529296875,-3.0517578125,-79.16259765625,0.0,0.0,0.0,0.04503658413887024,0.029021354392170906,-0.9878261089324951,-0.14604471623897552
4.535993337631226,3.9370969149664776,4.558860561056963,-161.9327476353036,-0.18701171875,0.0517578125,0.94384765625,7.50732421875,-4.7607421875,-69.091796875,0.0,0.0,0.0,0.04464586079120636,0.027656732127070427,-0.9864470362663269,-0.15544788539409637
4.564033269882202,3.8077549033144154,4.348168008182287,-160.31303657552675,-0.2265625,0.07177734375,0.89013671875,-2.0751953125,-9.8876953125,-42.29736328125,0.0,0.0,0.0,0.04303230717778206,0.02622833661735058,-0.9842411875724792,-0.16949814558029175
4.57674765586853,3.656438892441953,4.433542384599685,-159.7963327648153,-0.0703125,0.06640625,1.0849609375,7.568359375,8.544921875,-31.43310546875,0.0,0.0,0.0,0.04365283250808716,0.0246039517223835,-0.983476459980011,-0.17396286129951477
4.596246242523193,3.3121578712421713,4.429980867834346,-159.43120451216475,-0.11865234375,0.17578125,1.06201171875,16.17431640625,-7.32421875,-21.3623046875,0.0,0.0,0.0,0.04316819831728935,0.021517110988497734,-0.9829872846603394,-0.17722731828689575
4.616362571716309,2.912312193927278,4.168436702815279,-159.1280533960429,-0.1455078125,0.31640625,1.01953125,10.43701171875,-15.07568359375,-16.7236328125,0.0,0.0,0.0,0.04035528376698494,0.018389549106359482,-0.9826574325561523,-0.18004947900772095
4.633646726608276,2.6436787194365605,4.054747777193594,-158.84230560192626,-0.05908203125,0.3115234375,0.9384765625,5.2490234375,-3.35693359375,-15.0146484375,0.0,0.0,0.0,0.038998860865831375,0.016169043257832527,-0.9822762608528137,-0.1826225072145462
4.654854774475098,2.4595521873386494,4.073839863471072,-158.56191267611888,-0.119140625,0.32568359375,0.95947265625,-2.197265625,5.31005859375,-15.19775390625,0.0,0.0,0.0,0.03890448808670044,0.014464857056736946,-0.9818459749221802,-0.18508337438106537
4.676664590835571,2.3280716861461386,4.146139550269772,-158.14494328766796,-0.16552734375,0.33984375,1.02001953125,2.25830078125,-0.79345703125,-26.30615234375,0.0,0.0,0.0,0.03935926407575607,0.013077461160719395,-0.9811619520187378,-0.18868257105350494
4.691451072692871,2.0285486811340387,4.223671588859526,-157.44769025643637,-0.13134765625,0.34228515625,1.06396484375,10.31494140625,6.8359375,-40.4052734375,0.0,0.0,0.0,0.039592090994119644,0.010143529623746872,-0.980004072189331,-0.19473488628864288
4.716271877288818,1.7979713131513404,4.409064694161651,-156.49931849018012,-0.1298828125,0.3857421875,0.99755859375,4.08935546875,8.1787109375,-51.81884765625,0.0,0.0,0.0,0.04084889963269234,0.007516743149608374,-0.9783222079277039,-0.20288091897964478
4.736087083816528,1.6955709826803935,4.513230201646223,-155.33079606659598,-0.15673828125,0.37744140625,1.0419921875,1.89208984375,2.44140625,-63.65966796875,0.0,0.0,0.0,0.04162036255002022,0.006032935809344053,-0.9761767387390137,-0.21286222338676453
4.756130933761597,1.6213464631962187,4.555310997122672,-153.9606464587131,-0.1826171875,0.37890625,1.00439453125,-1.220703125,2.0751953125,-72.75390625,0.0,0.0,0.0,0.04190150648355484,0.004821402486413717,-0.9735522866249084,-0.22453734278678894
4.77608323097229,1.5901471195629524,4.7157897067667065,-152.55081345175242,-0.3369140625,0.23291015625,1.04638671875,1.77001953125,1.28173828125,-70.6787109375,0.0,0.0,0.0,0.043252285569906235,0.003708518808707595,-0.9706668853759766,-0.2364768385887146
4.796124696731567,1.5901763613103366,4.8090384375234825,-151.20736988352425,-0.35302734375,0.13525390625,1.03271484375,-0.06103515625,0.8544921875,-66.34521484375,0.0,0.0,0.0,0.04408017545938492,0.0029988621827214956,-0.9677979350090027,-0.2478208690881729
4.816291332244873,1.431915115269029,4.7552993629074685,-149.89418405331926,-0.18115234375,0.16552734375,1.0478515625,8.11767578125,-5.615234375,-65.49072265625,0.0,0.0,0.0,0.043301671743392944,0.001282834797166288,-0.9649143218994141,-0.25896650552749634
4.836867570877075,1.2109321353577884,4.747515508574592,-148.61950682965482,-0.08984375,0.19482421875,0.92529296875,8.7890625,1.40380859375,-63.53759765625,0.0,0.0,0.0,0.04272777959704399,-0.0010356309358030558,-0.9619763493537903,-0.26976802945137024
4.856692790985107,1.0596186858062646,4.73260862071104,-147.38787345813978,-0.13232421875,0.2587890625,0.9443359375,-1.77001953125,0.54931640625,-60.97412109375,0.0,0.0,0.0,0.04221956804394722,-0.002724612131714821,-0.9590234160423279,-0.28015047311782837
4.876518964767456,1.003049138109515,4.744698909315608,-146.18267291871268,-0.12744140625,0.24658203125,1.06201171875,-0.79345703125,-1.708984375,-60.60791015625,0.0,0.0,0.0,0.042146146297454834,-0.0036711394786834717,-0.9560183882713318,-0.2902398109436035
4.8960347175598145,0.8454559699463993,4.711507178157108,-145.02567985444753,-0.11572265625,0.20751953125,1.08349609375,7.9345703125,-0.732421875,-57.80029296875,0.0,0.0,0.0,0.04141848906874657,-0.005320108961313963,-0.9530434012413025,-0.29994073510169983
4.915913105010986,0.610034877264251,4.77702235267587,-143.93095079465624,-0.10205078125,0.21826171875,0.95361328125,7.080078125,5.67626953125,-53.5888671875,0.0,0.0,0.0,0.041273925453424454,-0.007844489999115467,-0.9500992894172668,-0.3091058135032654
4.936078310012817,0.3812388813140299,4.741466949177723,-142.90058943760314,-0.130859375,0.33154296875,0.884765625,1.52587890625,-1.40380859375,-50.47607421875,0.0,0.0,0.0,0.040273554623126984,-0.010007968172430992,-0.9472751021385193,-0.31772279739379883
4.952900648117065,0.336742306625086,4.814377084133493,-141.91652310274438,-0.095703125,0.3505859375,1.01513671875,-2.86865234375,0.6103515625,-49.98779296875,0.0,0.0,0.0,0.04066048935055733,-0.01092767994850874,-0.94448322057724,-0.32585087418556213
4.976094007492065,0.26776313229964294,4.82933904039723,-140.99597752716673,-0.1259765625,0.30810546875,1.0947265625,-0.42724609375,-0.30517578125,-45.41015625,0.0,0.0,0.0,0.04049363732337952,-0.011864466592669487,-0.9418231248855591,-0.3334499001502991
4.996471166610718,0.16712893933767337,4.85359645723453,-140.19991897940176,-0.14208984375,0.2060546875,1.00244140625,-3.2958984375,1.5869140625,-36.7431640625,0.0,0.0,0.0,0.04031051695346832,-0.013042534701526165,-0.9394645690917969,-0.34001654386520386
5.019043922424316,0.05715971872972109,4.932624734139339,-139.33441106815607,-0.12841796875,0.06396484375,0.9951171875,4.150390625,-4.69970703125,-33.87451171875,0.0,0.0,0.0,0.040523819625377655,-0.014485129155218601,-0.9368289709091187,-0.34713050723075867
5.036029577255249,-0.10354870271590147,4.933017043129792,-138.8390037872767,-0.0927734375,0.09521484375,1.04736328125,5.126953125,-1.64794921875,-33.935546875,0.0,0.0,0.0,0.039971478283405304,-0.015973106026649475,-0.9352979063987732,-0.3512336313724518
5.056048631668091,-0.2843556361451609,4.9332714676763745,-138.17215875823004,-0.0654296875,0.12744140625,1.00927734375,0.18310546875,1.3427734375,-33.69140625,0.0,0.0,0.0,0.03931710124015808,-0.01767871156334877,-0.9332112669944763,-0.35673293471336365
5.076636552810669,-0.17400976795707943,5.005781182792053,-137.51381048451083,-0.09716796875,-0.03369140625,0.95556640625,-11.04736328125,4.8828125,-32.5927734375,0.0,0.0,0.0,0.04015277326107025,-0.017236661165952682,-0.9311372637748718,-0.36204150319099426
5.09610915184021,0.21674728879026736,5.020187759298903,-136.82569624638873,-0.13134765625,-0.1552734375,0.98291015625,-8.9111328125,-2.99072265625,-33.50830078125,0.0,0.0,0.0,0.04141870513558388,-0.01435588113963604,-0.9289956092834473,-0.3674853444099426
5.111236333847046,0.6697145089108836,5.027064479132636,-136.14703499007794,-0.12109375,-0.23681640625,0.92626953125,-7.4462890625,-3.11279296875,-32.28759765625,0.0,0.0,0.0,0.04286258667707443,-0.010959681123495102,-0.9268510937690735,-0.37281325459480286
5.13620924949646,1.0154700505585947,4.944175437799477,-135.54018634270062,-0.08740234375,-0.25537109375,1.04638671875,-1.0986328125,-9.82666015625,-28.4423828125,0.0,0.0,0.0,0.043274614959955215,-0.00812224019318819,-0.9249200820922852,-0.3776032626628876
5.15178656578064,1.2799530111897657,4.790014653137704,-135.0676192144058,-0.02392578125,-0.1923828125,0.9912109375,-2.8076171875,-3.47900390625,-20.5078125,0.0,0.0,0.0,0.042879194021224976,-0.005655280314385891,-0.9234187006950378,-0.3813493251800537
5.176596641540527,1.6217170009586919,4.6429342133242955,-134.70109760316456,-0.00390625,-0.16162109375,0.916015625,-9.3994140625,-0.244140625,-15.7470703125,0.0,0.0,0.0,0.042823731899261475,-0.0025474827270954847,-0.9222491979598999,-0.38420847058296204
5.200345754623413,1.9205636037995488,4.43699291079101,-134.46087985005522,-0.0517578125,-0.18701171875,1.09326171875,-0.06103515625,-9.8876953125,-8.48388671875,0.0,0.0,0.0,0.04217005521059036,0.00046182508231140673,-0.921499490737915,-0.3860832154750824
5.216724634170532,2.1098979416961834,4.24103563727699,-134.37566640997014,-0.017578125,-0.1455078125,1.05126953125,-0.30517578125,-3.72314453125,-1.89208984375,0.0,0.0,0.0,0.04123493283987045,0.00261605903506279,-0.9212576150894165,-0.3867522180080414
5.236154079437256,2.2598799312463775,4.144174590222924,-134.34279953968405,-0.00146484375,-0.12158203125,1.00341796875,0.91552734375,2.01416015625,-0.91552734375,0.0,0.0,0.0,0.0409640409052372,0.004138085525482893,-0.9211644530296326,-0.3869894742965698
5.256227254867554,2.395348836027353,4.087808027210571,-134.31735025483658,-0.0732421875,-0.10693359375,0.9716796875,1.5869140625,-1.220703125,-0.30517578125,0.0,0.0,0.0,0.040969882160425186,0.005408992059528828,-0.9210852384567261,-0.3871616721153259
5.276039123535156,2.5803654271514813,4.03821701185487,-134.3045641407103,-0.08349609375,-0.0615234375,0.94580078125,-3.173828125,-9.3994140625,-1.220703125,0.0,0.0,0.0,0.04119737073779106,0.007059705909341574,-0.9210425019264221,-0.3872128129005432
5.29645848274231,2.650611148000712,3.8265968339135417,-134.22742398422417,0.0439453125,-0.07568359375,1.13037109375,0.6103515625,-1.5869140625,-7.01904296875,0.0,0.0,0.0,0.03974052518606186,0.008315352723002434,-0.9208189249038696,-0.3878713846206665
5.3121960163116455,2.6794955911138727,3.609476219256238,-134.10008193733847,-0.02490234375,-0.0546875,1.015625,0.18310546875,-3.2958984375,-7.6904296875,0.0,0.0,0.0,0.03810495883226395,0.009242722764611244,-0.9204245209693909,-0.3889492154121399
5.336305618286133,2.73886039372845,3.460197525747143,-133.9684232108973,-0.03564453125,-0.05908203125,0.97021484375,2.38037109375,2.50244140625,-5.9814453125,0.0,0.0,0.0,0.03711988031864166,0.010185371153056622,-0.919996976852417,-0.3900308310985565
5.358388900756836,2.8196226849087966,3.4711572046006633,-133.82799452156183,-0.0732421875,-0.04150390625,0.94921875,-0.06103515625,-7.080078125,-6.28662109375,0.0,0.0,0.0,0.037495896220207214,0.010750390589237213,-0.9195091128349304,-0.39112845063209534
5.376129388809204,2.7612506076013985,3.3844885073355484,-133.75200183685627,-0.01806640625,-0.03125,0.9658203125,-3.35693359375,3.72314453125,-5.615234375,0.0,0.0,0.0,0.036608628928661346,0.010554575361311436,-0.9192685484886169,-0.39178282022476196
5.395164489746094,2.7480570300024607,3.1784276764917876,-133.5813973717677,-0.052734375,-0.0361328125,1.09326171875,-2.99072265625,0.18310546875,-6.89697265625,0.0,0.0,0.0,0.034927982836961746,0.011103585362434387,-0.91871577501297,-0.39321520924568176
5.41609263420105,2.7189350243722306,3.2572519014951427,-133.5074674041915,-0.130859375,-0.04736328125,1.05419921875,1.3427734375,-4.150390625,-4.5166015625,0.0,0.0,0.0,0.035466477274894714,0.010575911030173302,-0.9184533953666687,-0.3937939405441284
5.438087701797485,2.644635586250597,3.3990353161637947,-133.42183049237786,-0.0615234375,-0.04443359375,0.98681640625,4.638671875,2.50244140625,-4.638671875,0.0,0.0,0.0,0.03635396063327789,0.009464464150369167,-0.9181437492370605,-0.3944627046585083
5.4562976360321045,2.5161537515471335,3.2153422876347677,-133.31145463539045,-0.02392578125,-0.03271484375,0.951171875,0.732421875,0.67138671875,-6.7138671875,0.0,0.0,0.0,0.03444933146238327,0.00903614517301321,-0.9178019762039185,-0.39543813467025757
5.4830920696258545,2.832391083231901,3.03219546079593,-133.12927982984786,-0.02978515625,-0.05029296875,1.00048828125,-2.9296875,0.18310546875,-6.04248046875,0.0,0.0,0.0,0.034093841910362244,0.012148648500442505,-0.9171680808067322,-0.39685365557670593
5.497621059417725,2.932821331014122,2.9664884006501726,-133.06523997618984,-0.044921875,-0.0732421875,1.00244140625,-1.15966796875,-2.5634765625,-6.591796875,0.0,0.0,0.0,0.033923402428627014,0.013161762617528439,-0.9169430732727051,-0.39735549688339233
5.51609992980957,3.0030207346430435,2.7751519635530784,-132.91116456889267,-0.03173828125,-0.0380859375,0.91943359375,-2.50244140625,0.3662109375,-7.32421875,0.0,0.0,0.0,0.03265596181154251,0.014345087110996246,-0.9164206385612488,-0.3986239433288574
5.53645920753479,2.9141245419348585,2.747659598370131,-132.77927361601974,-0.064453125,-0.03857421875,1.05126953125,-5.615234375,-6.103515625,-7.568359375,0.0,0.0,0.0,0.03214274346828461,0.013693084008991718,-0.9159749150276184,-0.39971160888671875
5.556302785873413,3.2029561664617727,2.7345733828072096,-132.63879028517093,-0.04931640625,-0.14208984375,1.1484375,-2.38037109375,-3.23486328125,-8.60595703125,0.0,0.0,0.0,0.03306523710489273,0.016007032245397568,-0.9154481291770935,-0.400755912065506
5.576022386550903,3.2920786091862144,2.7527611093498954,-132.50938552115585,-0.0634765625,-0.08544921875,1.0419921875,6.77490234375,-0.48828125,-5.79833984375,0.0,0.0,0.0,0.03354090824723244,0.016617335379123688,-0.9149805903434753,-0.40175801515579224
5.596551179885864,3.1884614378259477,2.837843922067098,-132.41430928790928,-0.0908203125,-0.02783203125,0.91943359375,1.220703125,-3.72314453125,-5.55419921875,0.0,0.0,0.0,0.033869419246912,0.015462647192180157,-0.9146533012390137,-0.40252092480659485
5.616304636001587,3.0161276542168864,2.6623554448351374,-132.26571169232648,-0.00927734375,-0.02734375,1.001953125,1.220703125,-3.7841796875,-9.1552734375,0.0,0.0,0.0,0.031883079558610916,0.014664072543382645,-0.9141700863838196,-0.40380892157554626
5.6363420486450195,2.9183259620480624,2.4260398641759817,-132.08222549046326,-0.00439453125,-0.052734375,1.0693359375,4.150390625,1.708984375,-9.58251953125,0.0,0.0,0.0,0.029677612707018852,0.014671347104012966,-0.9135549068450928,-0.40536579489707947
5.6609461307525635,2.7641705134715786,2.313386779430611,-131.90834253457308,-0.03466796875,-0.037109375,0.9736328125,5.55419921875,1.15966796875,-7.6904296875,0.0,0.0,0.0,0.028255507349967957,0.013798966072499752,-0.9129665493965149,-0.406821072101593
5.674608945846558,2.5909526472518243,2.409524893649714,-131.7515623723646,-0.06640625,-0.0078125,0.93603515625,-1.03759765625,-0.732421875,-8.30078125,0.0,0.0,0.0,0.028422659263014793,0.012037976644933224,-0.9124208092689514,-0.40808773040771484
5.696191072463989,2.3894725254636144,2.4317338940662454,-131.57799360517623,-0.080078125,-0.02294921875,1.09326171875,6.04248046875,-6.89697265625,-9.70458984375,0.0,0.0,0.0,0.027897516265511513,0.010312199592590332,-0.9118192791938782,-0.4095132648944855
5.716128826141357,2.227130881723459,2.536289789550566,-131.40702030987248,-0.0517578125,-0.00634765625,1.005859375,-0.06103515625,4.94384765625,-8.11767578125,0.0,0.0,0.0,0.02816185913980007,0.008604031056165695,-0.9112101197242737,-0.41088810563087463
5.735933065414429,2.0135596175570343,2.689329142527987,-131.25290392144032,-0.078125,-0.03369140625,1.00732421875,7.75146484375,-0.732421875,-6.8359375,0.0,0.0,0.0,0.028621044009923935,0.006317485589534044,-0.9106529951095581,-0.41213107109069824
5.752362489700317,1.8843465257255563,2.807276477653764,-131.1167919116603,-0.05517578125,0.02294921875,0.8544921875,-3.47900390625,4.5166015625,-7.01904296875,0.0,0.0,0.0,0.029099049046635628,0.004831109195947647,-0.9101539254188538,-0.4132188558578491
5.7760045528411865,1.985144749949312,2.8762771830833485,-130.97977831690983,-0.06982421875,-0.05322265625,0.86572265625,-10.1318359375,-0.732421875,-7.080078125,0.0,0.0,0.0,0.030016759410500526,0.005346554797142744,-0.9096453189849854,-0.41426533460617065
5.796303987503052,2.1226943011062023,2.881901416978031,-130.8649901577186,-0.1240234375,-0.08349609375,1.109375,7.080078125,-7.8125,-5.37109375,0.0,0.0,0.0,0.030565038323402405,0.006387454457581043,-0.9092221260070801,-0.4151386320590973
5.811915636062622,2.011179723518108,2.8789917563916054,-130.780760264874,-0.099609375,-0.0087890625,1.1083984375,5.55419921875,-10.009765625,-3.35693359375,0.0,0.0,0.0,0.030141999945044518,0.005491051822900772,-0.9089229106903076,-0.41583701968193054
5.837043523788452,1.8336029159474159,2.8296609285546,-130.72129663795988,-0.0439453125,0.01171875,1.05224609375,-0.91552734375,-1.46484375,-3.72314453125,0.0,0.0,0.0,0.029108621180057526,0.004246775526553392,-0.9087212681770325,-0.41636568307876587
5.856001377105713,1.6664483367199285,2.876595213766577,-130.69583369273408,-0.06884765625,-0.0244140625,0.994140625,5.126953125,-1.40380859375,-0.79345703125,0.0,0.0,0.0,0.028873920440673828,0.002743985503911972,-0.9086271524429321,-0.41659995913505554
5.880204439163208,1.5666415571428824,2.9868961521165245,-130.6702478041032,-0.07666015625,-0.033203125,0.9375,-4.0283203125,-6.28662109375,-1.03759765625,0.0,0.0,0.0,0.029385721310973167,0.001544400816783309,-0.9085193276405334,-0.416805624961853
5.896265745162964,1.7938973187548393,2.9097692291219173,-130.63829617916588,-0.04052734375,-0.12939453125,0.95166015625,-6.28662109375,-7.50732421875,-2.62451171875,0.0,0.0,0.0,0.029602017253637314,0.0036188955418765545,-0.9084094762802124,-0.41701656579971313
5.917527675628662,2.0324909809456058,2.8737026286530765,-130.5536974561061,0.072265625,-0.20703125,1.00927734375,-0.30517578125,8.60595703125,-3.84521484375,0.0,0.0,0.0,0.03018859215080738,0.005619507282972336,-0.9080968499183655,-0.4176330268383026
5.936495065689087,2.2501072112045586,2.8821315089756956,-130.47275971444145,-0.07177734375,-0.232421875,0.9853515625,-2.50244140625,-3.2958984375,-2.3193359375,0.0,0.0,0.0,0.0310535691678524,0.007291316986083984,-0.9077883362770081,-0.4182140827178955
5.955901384353638,2.4686126467160827,2.7408599316079716,-130.45123095817758,-0.1025390625,-0.24609375,0.9892578125,-1.40380859375,-10.31494140625,-1.708984375,0.0,0.0,0.0,0.030734172090888023,0.009533237665891647,-0.9077104926109314,-0.4183613061904907
5.976006031036377,2.7430212595934576,2.7790692904854923,-130.39669872784418,0.0859375,-0.24560546875,1.0107421875,-6.04248046875,9.46044921875,-2.5634765625,0.0,0.0,0.0,0.03204391524195671,0.01155179925262928,-0.9074819684028625,-0.4187079071998596
5.992048263549805,3.0593858035515162,2.683658591412996,-130.43317193801207,-0.08154296875,-0.24658203125,0.83447265625,-7.62939453125,-13.48876953125,6.04248046875,0.0,0.0,0.0,0.03244006261229515,0.014416978694498539,-0.9075884819030762,-0.4183574318885803
6.016100168228149,3.5034236585700382,2.4238488675562886,-130.86792713906172,-0.03857421875,-0.30078125,0.98193359375,-13.61083984375,-23.193359375,27.7099609375,0.0,0.0,0.0,0.03193272650241852,0.0190061554312706,-0.9091231226921082,-0.41486650705337524
6.03617262840271,3.736138235432716,1.92798353711571,-131.66189564894069,0.0400390625,-0.353515625,1.1298828125,-1.5869140625,-24.10888671875,45.5322265625,0.0,0.0,0.0,0.028685901314020157,0.02285184897482395,-0.911952018737793,-0.40865451097488403
6.05605149269104,3.8866154136977364,1.6095049428878265,-132.81444909024532,0.16455078125,-0.279296875,1.10498046875,-3.47900390625,-8.9111328125,62.6220703125,0.0,0.0,0.0,0.026434553787112236,0.02545497566461563,-0.9159864783287048,-0.3995274007320404
6.076162815093994,3.992574699613083,1.6093082547840711,-134.28349983731,0.18408203125,-0.275390625,1.0595703125,-1.40380859375,6.2255859375,78.30810546875,0.0,0.0,0.0,0.026463013142347336,0.026644067838788033,-0.9210087060928345,-0.38772788643836975
6.091172933578491,3.9854435552327665,1.468644244087361,-136.02926886840856,-0.00341796875,-0.29345703125,0.9814453125,8.36181640625,-38.0859375,89.90478515625,0.0,0.0,0.0,0.024893537163734436,0.02744620107114315,-0.9268094897270203,-0.37369948625564575
6.116211891174316,4.0160248734678525,1.1926115402914044,-138.149619133969,0.21142578125,-0.20556640625,0.97021484375,-0.244140625,-3.23486328125,109.92431640625,0.0,0.0,0.0,0.022228501737117767,0.029011879116296768,-0.9335536360740662,-0.3565694987773895
6.136160373687744,4.120691972969597,1.2974601734146833,-140.51480436051767,0.1767578125,-0.16845703125,0.7880859375,-5.9814453125,-8.36181640625,123.35205078125,0.0,0.0,0.0,0.022793477401137352,0.030014505609869957,-0.9406883716583252,-0.3371720016002655
6.15654444694519,4.337227752679219,0.8582546238730925,-143.10530386740675,0.12548828125,-0.2587890625,0.9619140625,-7.50732421875,-20.01953125,133.1787109375,0.0,0.0,0.0,0.01907329261302948,0.0335267074406147,-0.947998583316803,-0.31592872738838196
6.176625967025757,4.501620587604494,0.7716684224865467,-145.8622824051257,0.3994140625,-0.32666015625,1.1640625,-3.41796875,4.94384765625,141.7236328125,0.0,0.0,0.0,0.017959902063012123,0.035568125545978546,-0.9552711844444275,-0.2930349111557007
6.197413682937622,4.438825109035866,0.7737907436885694,-148.73781936645779,0.22607421875,-0.3515625,1.11083984375,11.5966796875,-22.3388671875,144.83642578125,0.0,0.0,0.0,0.016932224854826927,0.035475216805934906,-0.9623426795005798,-0.2689824402332306
6.217648267745972,4.320533916574061,0.5362174477267795,-151.79900086943076,0.3046875,-0.263671875,1.01123046875,5.55419921875,-6.34765625,157.5927734375,0.0,0.0,0.0,0.013718393631279469,0.03541949763894081,-0.9692129492759705,-0.24327656626701355
6.236627817153931,4.372820722217802,0.8643654020244325,-155.04495264983095,0.27685546875,-0.1884765625,0.7998046875,-5.18798828125,1.3427734375,166.44287109375,0.0,0.0,0.0,0.01560191810131073,0.03562013432383537,-0.9757044911384583,-0.21561221778392792
6.256389856338501,4.513481211098221,0.2899758946563029,-158.46145425380635,0.12646484375,-0.2880859375,0.859375,0.1220703125,-36.376953125,171.81396484375,0.0,0.0,0.0,0.00984183419495821,0.03821124508976936,-0.9816412329673767,-0.1866111308336258
6.271207571029663,4.635653231669062,0.33533702188378234,-161.99341337551164,0.484375,-0.341796875,1.10595703125,-0.67138671875,10.7421875,179.6875,0.0,0.0,0.0,0.009216842241585255,0.03948664665222168,-0.9868856072425842,-0.15624567866325378
6.292794466018677,4.466164648736134,0.17143650752749034,-165.63666359955312,0.31103515625,-0.35986328125,1.171875,9.27734375,-27.52685546875,181.5185546875,0.0,0.0,0.0,0.006354405544698238,0.038472142070531845,-0.991407573223114,-0.12486287206411362
6.319623708724976,4.4160874092888935,0.22646650123685005,-169.43464492905207,0.44873046875,-0.22265625,0.8828125,-3.60107421875,17.2119140625,194.091796875,0.0,0.0,0.0,0.005513694602996111,0.03818255290389061,-0.9950183629989624,-0.09192521870136261
6.331357955932617,4.419096107618285,0.1414574732389821,-173.3433026438619,0.1962890625,-0.31103515625,0.8828125,10.1318359375,-44.00634765625,193.29833984375,0.0,0.0,0.0,0.003469834104180336,0.03841765224933624,-0.9975730180740356,-0.05796722695231438
6.35841178894043,4.588968888692025,-0.10545479240179782,-178.43451199081107,0.46484375,-0.30908203125,0.9560546875,-2.62451171875,0.91552734375,204.77294921875,0.0,0.0,0.0,-0.0003725172718986869,0.04004441201686859,-0.9991041421890259,-0.013686868362128735
6.376296281814575,4.5487552961799285,0.0024648149181302637,178.49306037237642,0.4697265625,-0.41259765625,1.177734375,11.1083984375,-3.662109375,205.9326171875,0.0,0.0,0.0,-0.0005003705155104399,0.0396818071603775,-0.9991258382797241,0.013140598312020302
6.396517038345337,4.377546359349804,-0.08599438950734806,174.29944716539364,0.3310546875,-0.35986328125,0.9521484375,14.58740234375,-30.2734375,207.94677734375,0.0,0.0,0.0,-0.002648109570145607,0.038107458502054214,-0.9980353713035583,0.049661267548799515
6.416239976882935,4.170449047299494,-0.39020793355046157,170.03531908541967,0.48388671875,-0.29248046875,1.013671875,16.357421875,-26.9775390625,211.85302734375,0.0,0.0,0.0,-0.006550144404172897,0.035952769219875336,-0.9955667853355408,0.08666720241308212
6.437373876571655,4.080590651691983,-0.7817681911957327,165.69984284937573,0.4599609375,-0.18017578125,0.80517578125,4.69970703125,-28.25927734375,215.63720703125,0.0,0.0,0.0,-0.011196094565093517,0.03447605296969414,-0.9916016459465027,0.1241459846496582
6.456159591674805,4.026927136043662,-0.8267551788031688,161.34912163110434,0.6728515625,-0.21875,0.9951171875,6.34765625,13.3056640625,221.49658203125,0.0,0.0,0.0,-0.012808079831302166,0.03350072354078293,-0.9861900806427002,0.16168759763240814
6.4779767990112305,3.787797517446461,-0.8080254660776716,156.14177174750827,0.51513671875,-0.32470703125,1.01806640625,20.6298828125,-33.14208984375,204.833984375,0.0,0.0,0.0,-0.013726296834647655,0.030877506360411644,-0.9778935313224792,0.20635534822940826
6.496848106384277,3.710140827904355,-0.9038043550351141,152.99283597407896,0.64404296875,-0.21435546875,0.9501953125,14.46533203125,-2.50244140625,211.48681640625,0.0,0.0,0.0,-0.015223736874759197,0.029634831473231316,-0.9718751311302185,0.23312829434871674
6.517029762268066,3.7510600643350784,-0.8385707123762033,148.8626069225939,0.576171875,-0.20849609375,0.8642578125,1.46484375,-10.80322265625,205.2001953125,0.0,0.0,0.0,-0.015829406678676605,0.029563652351498604,-0.9628317952156067,0.26801180839538574
6.531247854232788,3.7613693811135662,-1.0584151851301673,144.81055621634883,0.5068359375,-0.24609375,0.8154296875,2.86865234375,-6.89697265625,202.08740234375,0.0,0.0,0.0,-0.018719399347901344,0.02849116362631321,-0.9527560472488403,0.30181747674942017
6.552936792373657,3.8391135824544134,-1.1036432037101107,139.8640375967772,0.6591796875,-0.31787109375,1.0859375,10.25390625,-20.3857421875,190.12451171875,0.0,0.0,0.0,-0.020534368231892586,0.02815830335021019,-0.9388262033462524,0.34262341260910034
6.576231956481934,3.735894483056711,-1.151989310367871,137.0345497708294,0.755859375,-0.310546875,1.1591796875,11.77978515625,-4.33349609375,187.1337890625,0.0,0.0,0.0,-0.021286217495799065,0.026650406420230865,-0.9301066398620605,0.36570271849632263
6.596088647842407,3.6416451295865286,-1.2745253586771326,133.35250407230222,0.6416015625,-0.23486328125,0.97509765625,10.009765625,-17.578125,183.28857421875,0.0,0.0,0.0,-0.02278745546936989,0.02477438934147358,-0.9179018139839172,0.39537733793258667
6.616075754165649,3.688564260316285,-1.159084062646516,129.75112290787294,0.64892578125,-0.22705078125,0.93896484375,7.6904296875,-10.55908203125,175.9033203125,0.0,0.0,0.0,-0.022816862910985947,0.024844469502568245,-0.9050107002258301,0.4240492284297943
6.636443138122559,3.6019403861675983,-1.4493968777279709,126.22912220197752,0.5458984375,-0.2138671875,0.86474609375,4.638671875,-7.62939453125,176.6357421875,0.0,0.0,0.0,-0.025486083701252937,0.022311780601739883,-0.89158034324646,0.4515939950942993
6.6568217277526855,3.8291615699468817,-1.3669599095405018,122.6550071527149,0.55126953125,-0.13427734375,0.7138671875,-9.8876953125,2.13623046875,179.99267578125,0.0,0.0,0.0,-0.02648894116282463,0.02359042502939701,-0.8770155906677246,0.47915077209472656
6.676339864730835,4.0043175023436275,-1.5385244430942904,119.23185294448791,0.71923828125,-0.283203125,1.150390625,2.62451171875,-15.07568359375,163.6962890625,0.0,0.0,0.0,-0.02924412116408348,0.023349445313215256,-0.8622872829437256,0.5050350427627563
6.697681665420532,3.8004419051474474,-1.6215414437526814,116.07360079303069,0.81494140625,-0.25,1.21435546875,22.03369140625,-10.25390625,154.4189453125,0.0,0.0,0.0,-0.02955000102519989,0.02064230479300022,-0.8480852842330933,0.528632402420044
6.712019205093384,3.6320388954057288,-1.791174634596943,113.04913155684652,0.66357421875,-0.12841796875,0.93701171875,7.568359375,-13.7939453125,150.634765625,0.0,0.0,0.0,-0.030508574098348618,0.01781325787305832,-0.8338748216629028,0.550821840763092
6.731788635253906,3.706417947919875,-1.843092396582091,110.04082937842776,0.6904296875,-0.11083984375,0.87548828125,-1.15966796875,12.5732421875,150.146484375,0.0,0.0,0.0,-0.03170810639858246,0.01727820560336113,-0.8191200494766235,0.5724844336509705
6.756481647491455,3.732234782322054,-1.630081314649313,107.18229275793988,0.6318359375,-0.16455078125,1.00830078125,6.53076171875,-4.82177734375,139.83154296875,0.0,0.0,0.0,-0.03076823428273201,0.0177665576338768,-0.8045688271522522,0.5927956104278564
6.7769410610198975,3.687495762598001,-2.00460011691327,104.41969980472315,0.52392578125,-0.1171875,0.82958984375,3.23486328125,-16.78466796875,138.3056640625,0.0,0.0,0.0,-0.03352874144911766,0.014708503149449825,-0.7900752425193787,0.6119154691696167
6.797345399856567,3.8134021890975465,-2.074325889611934,101.68052757017041,0.623046875,-0.0751953125,0.83154296875,-0.06103515625,-4.150390625,135.7421875,0.0,0.0,0.0,-0.03503482788801193,0.014370429329574108,-0.7752125263214111,0.6305645704269409
6.81661319732666,3.8503116775986492,-2.0742742363063353,99.08881228960908,0.7099609375,-0.1201171875,1.0087890625,7.14111328125,-3.72314453125,125.79345703125,0.0,0.0,0.0,-0.03555920720100403,0.013819766230881214,-0.7607495784759521,0.6479233503341675
6.8364667892456055,3.6927981238280463,-2.263432269945019,96.71406479822237,0.77734375,-0.1064453125,1.1884765625,15.80810546875,-15.68603515625,115.478515625,0.0,0.0,0.0,-0.03615787252783775,0.01095603872090578,-0.7471891641616821,0.663536787033081
6.851362228393555,3.5101360269768684,-2.4019734791920304,94.47440478824016,0.7861328125,-0.02783203125,1.0810546875,12.87841796875,-1.03759765625,109.06982421875,0.0,0.0,0.0,-0.03617076948285103,0.008256277069449425,-0.7341011166572571,0.6780259013175964
6.876557350158691,3.325352729501578,-2.396552443425156,92.37953795847307,0.66064453125,-0.029296875,0.9794921875,14.892578125,-2.3193359375,102.5390625,0.0,0.0,0.0,-0.03516671061515808,0.006462850607931614,-0.7215951085090637,0.6913914084434509
6.897606134414673,3.118401199301365,-2.5410177745600957,90.36266505883833,0.55322265625,-0.01513671875,0.8681640625,13.00048828125,-8.36181640625,100.03662109375,0.0,0.0,0.0,-0.034896764904260635,0.003673288505524397,-0.7093294262886047,0.7040031552314758
6.91636323928833,3.0002064832615867,-2.6386203240259314,88.42943465577959,0.65576171875,0.02001953125,0.896484375,7.8125,5.55419921875,92.529296875,0.0,0.0,0.0,-0.03480861708521843,0.0017543245339766145,-0.6973574161529541,0.7158756256103516
6.93625545501709,2.855094845476435,-2.534592274098406,86.8937622435506,0.693359375,0.07080078125,1.0234375,10.009765625,3.7841796875,65.36865234375,0.0,0.0,0.0,-0.033287111669778824,0.0010759021388366818,-0.6877002120018005,0.7252305746078491
6.956705093383789,2.6871994041674125,-2.5570608217033977,85.92541900416121,0.63427734375,0.10498046875,1.0009765625,7.6904296875,3.96728515625,38.0859375,0.0,0.0,0.0,-0.03235740587115288,-0.0003474863769952208,-0.6815480589866638,0.7310576438903809
6.976054668426514,2.469854033597733,-2.5647089260265195,85.52042976751447,0.5390625,0.13037109375,0.9306640625,9.27734375,1.220703125,8.48388671875,0.0,0.0,0.0,-0.031010033562779427,-0.0017986198654398322,-0.6789580583572388,0.7335197925567627
6.995863199234009,2.2886817717592636,-2.695509823396614,85.74812778387519,0.53662109375,0.1982421875,0.96533203125,4.69970703125,5.126953125,-22.52197265625,0.0,0.0,0.0,-0.03063182160258293,-0.0036492273211479187,-0.6804095506668091,0.7321824431419373
7.016053676605225,2.130386801658929,-2.6474583753685166,86.57910225867728,0.451171875,0.2763671875,0.994140625,2.74658203125,11.29150390625,-50.47607421875,0.0,0.0,0.0,-0.029365599155426025,-0.004069001413881779,-0.6856967806816101,0.7272832989692688
7.036055326461792,1.7776132939998825,-2.5779255555139056,87.81262759259242,0.234375,0.2626953125,1.02490234375,12.939453125,10.07080078125,-64.0869140625,0.0,0.0,0.0,-0.02677096799015999,-0.0054503995925188065,-0.693473756313324,0.7199637293815613
7.056061029434204,1.4541982872710781,-2.268549148850416,89.15969116108067,0.078125,0.3310546875,0.9169921875,1.77001953125,22.03369140625,-67.44384765625,0.0,0.0,0.0,-0.022930340841412544,-0.005193337798118591,-0.7018874287605286,0.7118998169898987
7.076153993606567,1.2422129076525659,-1.9760772469392969,90.52367310814304,-0.0673828125,0.3359375,1.00439453125,0.06103515625,9.82666015625,-67.3828125,0.0,0.0,0.0,-0.019876884296536446,-0.004437616560608149,-0.7103150486946106,0.7035892605781555
7.096264362335205,0.9117051763575263,-1.7571835578621398,91.88613192302051,-0.0498046875,0.31787109375,1.109375,7.080078125,11.23046875,-67.3828125,0.0,0.0,0.0,-0.016550980508327484,-0.004945380613207817,-0.7186267971992493,0.6951814889907837
7.116022825241089,0.5992984068583727,-1.5347289923498788,93.22993749127467,-0.07177734375,0.33642578125,0.98291015625,2.197265625,10.31494140625,-66.10107421875,0.0,0.0,0.0,-0.013325064443051815,-0.005398775916546583,-0.7267271876335144,0.6867757439613342
7.136380672454834,0.38006424885934637,-1.3875069328328986,94.52866381100674,-0.10595703125,0.33251953125,0.96728515625,1.3427734375,2.685546875,-64.39208984375,0.0,0.0,0.0,-0.011143761686980724,-0.0057807439006865025,-0.7344616651535034,0.6785342693328857
7.156117916107178,0.17809395427648259,-1.2813505319269736,95.77535091945249,-0.1005859375,0.3134765625,0.986328125,1.40380859375,2.0751953125,-61.03515625,0.0,0.0,0.0,-0.009337031282484531,-0.006345402915030718,-0.7417960166931152,0.6705307364463806
7.1763834953308105,-0.05395515605474176,-1.2087756098490627,96.93437938009029,-0.10888671875,0.30322265625,0.97998046875,2.74658203125,0.3662109375,-55.6640625,0.0,0.0,0.0,-0.007584074046462774,-0.007346523460000753,-0.7485311627388,0.6630155444145203
7.1961143016815186,-0.27937215937199034,-1.144590721392866,97.98906987096699,-0.09619140625,0.31982421875,1.0087890625,0.9765625,0.06103515625,-50.6591796875,0.0,0.0,0.0,-0.0059380424208939075,-0.008393317461013794,-0.754591166973114,0.6561148166656494
7.216599225997925,-0.47089922811603685,-1.068937091546572,98.93604827863257,-0.095703125,0.333984375,1.0185546875,-0.18310546875,0.30517578125,-44.98291015625,0.0,0.0,0.0,-0.004419259261339903,-0.009185179136693478,-0.7599790096282959,0.6498676538467407
7.236574411392212,-0.6422696348870088,-1.0149780634949424,99.79427520822301,-0.072265625,0.3330078125,1.00390625,-0.06103515625,0.48828125,-41.07666015625,0.0,0.0,0.0,-0.0031644224654883146,-0.009992311708629131,-0.7648152112960815,0.6441645622253418
7.256750822067261,-0.8109462257214983,-0.9561158133928898,100.57241816979506,-0.0498046875,0.310546875,1.0244140625,-0.42724609375,-0.06103515625,-37.7197265625,0.0,0.0,0.0,-0.0018965346971526742,-0.010774620808660984,-0.7691620588302612,0.6389602422714233
7.286993026733398,-1.1524890881160454,-0.8330868708854764,101.51622053949659,-0.041015625,0.2939453125,1.0,3.11279296875,-0.79345703125,-30.33447265625,0.0,0.0,0.0,0.0007317785639315844,-0.012387643568217754,-0.7743763327598572,0.6326037645339966
7.292847633361816,-1.2544073566419773,-0.8213797665655159,101.78723561557352,-0.02001953125,0.306640625,0.95703125,-0.06103515625,0.48828125,-25.81787109375,0.0,0.0,0.0,0.001342762028798461,-0.013014968484640121,-0.7758602499961853,0.6307691335678101
7.3174049854278564,-1.4056386304800494,-0.8238370872019867,102.31960105005183,0.013671875,0.3154296875,1.00634765625,-2.50244140625,-2.197265625,-25.87890625,0.0,0.0,0.0,0.0020932673942297697,-0.014062292873859406,-0.7787641286849976,0.6271557807922363
7.331550121307373,-1.5082144114353009,-0.7941446006935016,102.82534923733459,0.0263671875,0.23388671875,1.0146484375,-6.77490234375,3.23486328125,-25.45166015625,0.0,0.0,0.0,0.0027920256834477186,-0.014609389938414097,-0.7815151214599609,0.6237089037895203
7.356344699859619,-1.5134529530852892,-0.7747942478880324,103.3561164075471,0.03369140625,0.046875,1.02001953125,-5.615234375,4.150390625,-28.564453125,0.0,0.0,0.0,0.002885151654481888,-0.01455333549529314,-0.7843972444534302,0.6200814843177795
7.3763267993927,-1.5686129204920773,-0.5018703473814894,103.82088345980979,-0.10107421875,0.0634765625,1.03662109375,-2.38037109375,4.8828125,-21.728515625,0.0,0.0,0.0,0.004997475538402796,-0.013474748469889164,-0.786929190158844,0.616875946521759
7.397051811218262,-1.41013865792603,-0.22494048756588111,104.20066929841919,-0.1025390625,-0.08349609375,0.9794921875,-8.72802734375,8.056640625,-18.00537109375,0.0,0.0,0.0,0.006010155193507671,-0.010915802791714668,-0.7890115976333618,0.614251971244812
7.416876792907715,-1.1015960679498111,0.05886255692695667,104.5649164566668,-0.0966796875,-0.115234375,0.98974609375,-8.544921875,8.97216796875,-18.24951171875,0.0,0.0,0.0,0.006287307478487492,-0.007290066685527563,-0.791002631187439,0.611737072467804
7.436239957809448,-0.7475353364364817,0.3183061586317671,104.95382742800733,-0.11328125,-0.16650390625,0.953125,-8.60595703125,6.77490234375,-19.22607421875,0.0,0.0,0.0,0.00617628451436758,-0.003481930587440729,-0.7930991053581238,0.6090513467788696
7.457398176193237,-0.4098683662720788,0.46609952612022193,105.3834053456661,-0.076171875,-0.17626953125,0.9716796875,-7.38525390625,2.685546875,-22.03369140625,0.0,0.0,0.0,0.0054030646570026875,-0.0003795917727984488,-0.7953828573226929,0.6060832142829895
7.476348400115967,0.011184336381823362,0.6121454057177849,105.91020417597085,-0.01416015625,-0.26806640625,0.98486328125,-9.8876953125,6.04248046875,-28.6865234375,0.0,0.0,0.0,0.004204953089356422,0.0032961093820631504,-0.798151969909668,0.6024324297904968
7.496635913848877,0.3091635502213083,0.7578774701394975,106.5568318450743,-0.02001953125,-0.33203125,1.12744140625,-2.86865234375,5.55419921875,-34.85107421875,0.0,0.0,0.0,0.0036880318075418472,0.006116986740380526,-0.8015193343162537,0.5979262590408325
7.516863584518433,0.49073713903436866,0.8649431399786803,107.28825631272345,-0.111328125,-0.2744140625,1.052734375,0.48828125,7.14111328125,-36.1328125,0.0,0.0,0.0,0.0035401403438299894,0.007923189550638199,-0.8053011298179626,0.5928025245666504
7.536370754241943,0.6143336275731277,0.9537428562648392,108.06323689670978,-0.1572265625,-0.20166015625,0.98388671875,1.52587890625,2.8076171875,-37.2314453125,0.0,0.0,0.0,0.0035873132292181253,0.009227044880390167,-0.8092753887176514,0.5873460173606873
7.557310104370117,0.8184608211906875,1.0978721207482731,108.8867118238032,-0.11865234375,-0.18212890625,0.91796875,-0.54931640625,-0.91552734375,-43.39599609375,0.0,0.0,0.0,0.0036408635787665844,0.011381380259990692,-0.813443124294281,0.5815216898918152
7.576140403747559,1.0501638897259689,1.2062815235849502,109.73326596010209,-0.15625,-0.19775390625,0.96435546875,-0.9765625,-2.74658203125,-43.0908203125,0.0,0.0,0.0,0.0033348617143929005,0.013551875948905945,-0.8176795840263367,0.5755045413970947
7.59611439704895,1.2347853970952944,1.278122200327085,110.63187296806565,-0.087890625,-0.19775390625,0.95751953125,0.54931640625,2.197265625,-46.20361328125,0.0,0.0,0.0,0.003039679257199168,0.015206558629870415,-0.8221350908279419,0.5690813064575195
7.6160454750061035,1.4747914143403724,1.3100939956667972,111.60993556664395,-0.09130859375,-0.13916015625,0.94091796875,-6.2255859375,4.0283203125,-48.583984375,0.0,0.0,0.0,0.0022229456808418036,0.017068803310394287,-0.8269240856170654,0.5620501041412354
7.636110544204712,1.8248291110717114,1.5057730456938445,112.63888307453887,-0.0869140625,-0.140625,1.041015625,-5.126953125,4.7607421875,-52.67333984375,0.0,0.0,0.0,0.002102874917909503,0.020535867661237717,-0.8318489789962769,0.5546180009841919
7.656033277511597,2.1445451434781306,1.7151158891555023,113.71071051004313,-0.12109375,-0.146484375,1.04541015625,-5.06591796875,-0.79345703125,-55.96923828125,0.0,0.0,0.0,0.0022986787371337414,0.023848654702305794,-0.83689945936203,0.5468321442604065
7.67770528793335,2.306132905088646,1.8695723996639955,114.7941697577039,-0.13720703125,-0.13671875,1.08154296875,-1.220703125,1.5869140625,-55.96923828125,0.0,0.0,0.0,0.002899506129324436,0.02573886327445507,-0.8419654369354248,0.5389094948768616
7.696605682373047,2.3943048843013988,2.0098471962997206,115.92306342372362,-0.115234375,-0.10400390625,1.05810546875,0.91552734375,0.42724609375,-57.92236328125,0.0,0.0,0.0,0.0037822071462869644,0.02700972743332386,-0.8471823930740356,0.5306017398834229
7.716100454330444,2.492294406672398,2.1449011670886176,117.0938944512472,-0.1728515625,-0.07080078125,0.9384765625,-1.89208984375,1.220703125,-59.326171875,0.0,0.0,0.0,0.004616910591721535,0.028313040733337402,-0.8525044918060303,0.5219321250915527
7.738122940063477,2.627154357400184,2.3768998547489137,118.60426784279046,-0.14453125,-0.11865234375,1.01708984375,4.8828125,2.99072265625,-60.05859375,0.0,0.0,0.0,0.006129242014139891,0.030293313786387444,-0.8592177033424377,0.5106757879257202
7.756171226501465,2.63067724090803,2.465983450772451,119.51393975720944,-0.14794921875,-0.10400390625,0.99267578125,7.01904296875,-1.64794921875,-61.21826171875,0.0,0.0,0.0,0.007025493774563074,0.03066127747297287,-0.8632204532623291,0.503846287727356
7.775788307189941,2.672010130670362,2.635317714118819,120.7593018089562,-0.1279296875,-0.02734375,0.982421875,-1.953125,1.40380859375,-63.41552734375,0.0,0.0,0.0,0.008464271202683449,0.03162575140595436,-0.8685883283615112,0.4944518506526947
7.79606032371521,2.7290057114165913,2.8163183674543912,122.09613375406778,-0.1123046875,-0.0556640625,1.06689453125,1.3427734375,3.72314453125,-67.68798828125,0.0,0.0,0.0,0.00997354369610548,0.03272310644388199,-0.8742305636405945,0.4843043088912964
7.816332578659058,2.8080510637943257,3.045005907471112,123.4464621529793,-0.16455078125,-0.07666015625,0.92333984375,2.5634765625,4.45556640625,-66.650390625,0.0,0.0,0.0,0.011788514442741871,0.03415396064519882,-0.8797858953475952,0.473995178937912
7.836348533630371,2.842486956598826,3.203302158231916,124.76870481402372,-0.1591796875,-0.0537109375,1.02392578125,4.33349609375,-1.708984375,-65.85693359375,0.0,0.0,0.0,0.013266060501337051,0.034920744597911835,-0.8851369619369507,0.4638287127017975
7.8559839725494385,2.7973925535945208,3.3077835619656013,126.05772543494521,-0.10107421875,-0.0400390625,1.0869140625,1.15966796875,2.5634765625,-62.07275390625,0.0,0.0,0.0,0.014648946933448315,0.03483162447810173,-0.8902789354324341,0.4538455009460449
7.876182794570923,2.8442826560203045,3.4449371755940423,127.23269555710583,-0.12744140625,-0.06689453125,0.93603515625,0.3662109375,-1.46484375,-56.640625,0.0,0.0,0.0,0.015895171090960503,0.0355764701962471,-0.8948264718055725,0.4447101950645447
7.896094799041748,2.992984198544533,3.4503938564106478,128.2413095918416,-0.12841796875,-0.06396484375,0.84033203125,-3.5400390625,-8.6669921875,-46.08154296875,0.0,0.0,0.0,0.015683650970458984,0.03662211075425148,-0.8986574411392212,0.436838299036026
7.916162967681885,3.2123440480325436,3.3868308353340395,129.03798285663188,-0.02490234375,-0.05615234375,0.94384765625,-6.77490234375,0.8544921875,-34.423828125,0.0,0.0,0.0,0.014613077975809574,0.03800015151500702,-0.9016228318214417,0.4306029975414276
7.936752557754517,3.407653307349058,3.2173732016957888,129.57366093285765,-0.1025390625,-0.0869140625,1.060546875,1.708984375,-13.671875,-20.3857421875,0.0,0.0,0.0,0.01272650994360447,0.038843244314193726,-0.9036172032356262,0.42638638615608215
7.955932140350342,3.2979077487559976,3.0204135979210696,129.84208736723915,-0.0107421875,-0.04541015625,1.15673828125,7.2021484375,-2.99072265625,-10.8642578125,0.0,0.0,0.0,0.01166768278926611,0.03722020611166954,-0.90471351146698,0.42423099279403687
7.97609281539917,3.102654625056724,2.8644135713818595,129.9554821678397,-0.04052734375,0.03173828125,1.0234375,-0.54931640625,-5.92041015625,-3.84521484375,0.0,0.0,0.0,0.011192684061825275,0.035091765224933624,-0.9052422642707825,0.4232964813709259
7.991536855697632,2.977747754053527,2.830252593691452,130.0075555300719,0.001953125,0.013671875,1.04248046875,-0.732421875,4.7607421875,-3.23486328125,0.0,0.0,0.0,0.011399484239518642,0.03397400304675102,-0.9054821729660034,0.42286860942840576
8.016541719436646,2.769748430145952,2.7968028094483723,130.05781206198483,-0.03466796875,-0.02001953125,1.013671875,6.34765625,3.7841796875,-2.25830078125,0.0,0.0,0.0,0.011916670016944408,0.03220203518867493,-0.9057372212409973,0.42244675755500793
8.038432121276855,2.519720604397761,2.823850358561623,130.12092300991577,-0.095703125,0.041015625,0.89501953125,-0.67138671875,-8.544921875,-3.7841796875,0.0,0.0,0.0,0.01306899357587099,0.030318012461066246,-0.9060303568840027,0.4219229221343994
8.056096076965332,2.3934039396611917,2.707945676884503,130.1958775058675,-0.0087890625,0.0224609375,1.00927734375,-1.3427734375,-4.21142578125,-7.01904296875,0.0,0.0,0.0,0.012636080384254456,0.02888518199324608,-0.9063700437545776,0.4213067591190338
8.07625675201416,2.2890896621187604,2.651837807286964,130.343218346643,0.05224609375,-0.0048828125,1.0634765625,2.62451171875,8.7890625,-7.38525390625,0.0,0.0,0.0,0.01261140126734972,0.02783803455531597,-0.9069514274597168,0.42012524604797363
8.096925497055054,2.1137595598981793,2.680999513391745,130.4281995602963,-0.126953125,0.0185546875,0.91796875,0.732421875,-8.48388671875,-2.86865234375,0.0,0.0,0.0,0.013504796661436558,0.026547029614448547,-0.907296895980835,0.41943439841270447
8.116071939468384,1.9558355544471409,2.6348442966319725,130.4662573743516,-0.0302734375,0.01611328125,1.08984375,1.953125,-1.52587890625,-3.41796875,0.0,0.0,0.0,0.01372557319700718,0.025123415514826775,-0.9074832797050476,0.41911184787750244
8.138354063034058,1.7994509028802943,2.615886039373544,130.56477602293987,0.0107421875,0.03369140625,1.0869140625,-0.1220703125,7.2021484375,-4.7607421875,0.0,0.0,0.0,0.01416781172156334,0.02380353957414627,-0.9078812003135681,0.4183114171028137
8.156260013580322,1.6817217069211348,2.6971029650205196,130.65313135004314,-0.10302734375,0.0283203125,0.90185546875,-2.3193359375,-2.25830078125,-4.2724609375,0.0,0.0,0.0,0.015259102918207645,0.023155061528086662,-0.9082081317901611,0.41759902238845825
8.176545858383179,1.61115859571891,2.762178446111462,130.7180591282933,-0.0634765625,0.01220703125,0.85009765625,-5.06591796875,-3.96728515625,-4.45556640625,0.0,0.0,0.0,0.016045106574892998,0.0228235125541687,-0.9084430932998657,0.41707658767700195
8.19626784324646,1.6120373422443144,2.8038133583011557,130.79687951131524,-0.005859375,0.0302734375,0.931640625,-8.7890625,9.94873046875,-4.69970703125,0.0,0.0,0.0,0.016387877985835075,0.022970523685216904,-0.9087194800376892,0.4164527654647827
8.217008590698242,1.5965112550438176,2.789720116722481,130.83903543887257,-0.15380859375,-0.01953125,1.11279296875,1.3427734375,-15.19775390625,-1.5869140625,0.0,0.0,0.0,0.016340890899300575,0.022790251299738884,-0.9088791012763977,0.41611596941947937
8.236117601394653,1.3725425219699294,2.7132373659439706,130.8840054043679,-0.021484375,0.00146484375,1.16845703125,9.765625,-3.0517578125,-2.5634765625,0.0,0.0,0.0,0.016555482521653175,0.020729953423142433,-0.9091029763221741,0.41572579741477966
8.258208513259888,1.168913345192399,2.5502876219242725,130.93684374778715,-0.0166015625,0.0771484375,0.99462890625,-1.89208984375,-3.72314453125,-2.685546875,0.0,0.0,0.0,0.016009638085961342,0.018516549840569496,-0.909365713596344,0.4152768552303314
8.277138710021973,1.0719239119262773,2.4914124584958204,131.00854707369393,0.01123046875,0.0322265625,1.044921875,-0.3662109375,2.25830078125,-3.96728515625,0.0,0.0,0.0,0.015904773026704788,0.01752375066280365,-0.9096530079841614,0.41469433903694153
8.298112154006958,0.9132641670355818,2.382800924748393,131.07142579519308,-0.02587890625,-0.00439453125,0.9970703125,4.5166015625,4.33349609375,-2.74658203125,0.0,0.0,0.0,0.01562528684735298,0.015862947329878807,-0.9099252820014954,0.4141741991043091
8.316759824752808,0.6860061642678037,2.4197125476836114,131.10534451461135,-0.09033203125,0.04345703125,0.9208984375,0.3662109375,-8.4228515625,-2.13623046875,0.0,0.0,0.0,0.016743989661335945,0.014186724089086056,-0.910070538520813,0.4138719141483307
8.336266994476318,0.5239202790955533,2.291278310860926,131.19622701170755,0.0361328125,0.03466796875,1.04052734375,-0.244140625,1.953125,-6.40869140625,0.0,0.0,0.0,0.01631910726428032,0.012422856874763966,-0.9104407429695129,0.41313084959983826
8.356773614883423,0.44770097084776456,2.2104513463268765,131.32471653037382,0.0107421875,0.00341796875,1.01513671875,2.685546875,3.7841796875,-6.4697265625,0.0,0.0,0.0,0.015964575111865997,0.011508094146847725,-0.9109252095222473,0.4121019244194031
8.37608814239502,0.3131482719109232,2.1750297718477785,131.38762257262965,-0.12744140625,0.0263671875,0.97607421875,1.46484375,-14.95361328125,-2.8076171875,0.0,0.0,0.0,0.016172515228390694,0.010302256792783737,-0.9111699461936951,0.41158440709114075
8.396186590194702,0.1085101681372546,1.9863455825827647,131.38207645902358,0.052734375,0.01806640625,1.1279296875,6.4697265625,-3.47900390625,2.9296875,0.0,0.0,0.0,0.015406722202897072,0.007998200133442879,-0.9111948609352112,0.41160985827445984
8.417231321334839,-0.043237675442386,1.6559379562477483,131.10718866568726,0.03662109375,0.03759765625,0.9912109375,2.685546875,-5.859375,19.53125,0.0,0.0,0.0,0.013310929760336876,0.0056366752833127975,-0.9102559089660645,0.41379374265670776
8.436158180236816,-0.14441872042993964,1.3990788741124869,130.56860092887507,0.05712890625,0.02685546875,0.90234375,2.3193359375,-6.77490234375,31.6162109375,0.0,0.0,0.0,0.011617442592978477,0.003960005007684231,-0.9083316922187805,0.4180706739425659
8.456210613250732,-0.24547251645861545,1.0254701945554339,129.77400404159246,0.0244140625,0.041015625,0.8681640625,-4.33349609375,-9.033203125,44.86083984375,0.0,0.0,0.0,0.009011972695589066,0.001858323928900063,-0.9054423570632935,0.42436960339546204
8.478157997131348,-0.23350397063991682,0.6553985391322427,128.39097269693494,0.07568359375,0.04541015625,1.0009765625,-4.2724609375,-11.04736328125,62.07275390625,0.0,0.0,0.0,0.006036078557372093,0.0006551777478307486,-0.9002729654312134,0.4352836608886719
8.498609781265259,-0.33607044012633885,0.20046551853134534,127.06120316742515,0.111328125,0.01611328125,1.1318359375,4.82177734375,-9.765625,68.4814453125,0.0,0.0,0.0,0.0028731883503496647,-0.001845590420998633,-0.8951696753501892,0.445712685585022
8.516855716705322,-0.41511645951473447,-0.04491049482481724,125.98554399579652,0.15478515625,0.064453125,1.07421875,2.50244140625,-6.40869140625,72.8759765625,0.0,0.0,0.0,0.0012958411825820804,-0.0034054922871291637,-0.8909426927566528,0.45410123467445374
8.536627054214478,-0.4879626414883154,-0.26413587496354307,124.53451128776233,0.19775390625,0.06884765625,1.05810546875,0.3662109375,-1.64794921875,72.08251953125,0.0,0.0,0.0,-5.864751074113883e-05,-0.00484172347933054,-0.8851128816604614,0.4653513729572296
8.551724910736084,-0.49455062574705716,-0.5440977251208288,123.09066393873499,0.123046875,0.0458984375,0.98486328125,-3.0517578125,-3.84521484375,72.44873046875,0.0,0.0,0.0,-0.002118215197697282,-0.006056633777916431,-0.8791664838790894,0.476471483707428
8.576716184616089,-0.5348492220978084,-0.8015630399057817,121.64892028797202,0.1357421875,-0.0048828125,1.0166015625,5.615234375,-1.77001953125,72.3876953125,0.0,0.0,0.0,-0.0038321407046169043,-0.00748505350202322,-0.8730835318565369,0.4874981939792633
8.59657073020935,-0.6615530198221001,-1.004495110501148,120.18773791883119,0.13818359375,0.005859375,0.94140625,8.85009765625,1.46484375,72.75390625,0.0,0.0,0.0,-0.004720166325569153,-0.00937455240637064,-0.8667704463005066,0.49859699606895447
8.617255449295044,-0.7782820733155288,-1.3357917286453238,118.73359064453548,0.05712890625,0.0771484375,0.9228515625,-4.33349609375,-11.53564453125,73.91357421875,0.0,0.0,0.0,-0.00656932545825839,-0.011782962828874588,-0.8603282570838928,0.5095619559288025
8.631484031677246,-0.7302247022327604,-1.694683484975115,117.25354329290708,0.17333984375,0.037109375,1.04931640625,-3.23486328125,-4.94384765625,73.05908203125,0.0,0.0,0.0,-0.009308799169957638,-0.013138921931385994,-0.8536344170570374,0.5206238627433777
8.656158208847046,-0.7242843052847004,-1.8535146249252956,115.78632303653995,0.234375,-0.00244140625,1.10791015625,5.37109375,5.0048828125,73.486328125,0.0,0.0,0.0,-0.010341349057853222,-0.013949600048363209,-0.8468765020370483,0.5315061807632446
8.677081823348999,-0.7973169567587081,-1.9889666676767572,114.2730331542211,0.080078125,0.0458984375,0.92529296875,0.732421875,-3.41796875,76.171875,0.0,0.0,0.0,-0.010803177952766418,-0.015261366963386536,-0.8397535085678101,0.5426458120346069
8.696277856826782,-0.854614933458269,-2.3217936750818393,112.74300930843572,-0.0146484375,0.099609375,0.92138671875,-10.7421875,-25.69580078125,77.81982421875,0.0,0.0,0.0,-0.012739655561745167,-0.017428316175937653,-0.8323681950569153,0.5538024306297302
8.716458559036255,-0.5417303175214789,-2.753355122364275,111.27233297634857,0.21240234375,0.06689453125,1.033203125,-21.6064453125,-12.14599609375,70.80078125,0.0,0.0,0.0,-0.017164263874292374,-0.01746206171810627,-0.8251583576202393,0.5643705725669861
8.736145496368408,-0.2672202656627592,-3.1551574354329657,109.89193808471066,0.21484375,-0.056640625,1.14404296875,-0.3662109375,-8.48388671875,68.115234375,0.0,0.0,0.0,-0.021197834983468056,-0.017720265313982964,-0.818261444568634,0.5741820335388184
8.757716178894043,-0.31267199961844705,-3.091816395504383,108.50148232442531,0.28271484375,0.0849609375,0.95947265625,1.28173828125,24.0478515625,69.9462890625,0.0,0.0,0.0,-0.02030113711953163,-0.017975149676203728,-0.8112401366233826,0.5840840339660645
8.776250123977661,-0.1619807509518424,-3.12382500983259,107.03237693584727,0.05859375,0.00830078125,0.9677734375,-3.60107421875,-8.1787109375,76.11083984375,0.0,0.0,0.0,-0.021075217053294182,-0.0173430647701025,-0.8037024736404419,0.5944051742553711
8.79721999168396,0.024072816634251475,-3.320104796341481,105.51438105319028,0.19921875,-0.01513671875,1.0400390625,3.7841796875,1.3427734375,74.76806640625,0.0,0.0,0.0,-0.02318892441689968,-0.017364898696541786,-0.7957475185394287,0.6049352288246155
8.816226482391357,0.023360727725111326,-3.580069693558394,104.04390279658905,0.13525390625,-0.0009765625,1.056640625,8.056640625,-4.57763671875,72.3876953125,0.0,0.0,0.0,-0.024747781455516815,-0.019061321392655373,-0.7878658175468445,0.615054190158844
8.83649230003357,-0.017336819374750772,-3.8969584545352514,102.62079873207105,0.14453125,0.0068359375,1.02490234375,5.2490234375,-6.40869140625,70.12939453125,0.0,0.0,0.0,-0.026444613933563232,-0.02137196995317936,-0.7800893783569336,0.624743640422821
8.8568856716156,-0.06217716635586319,-4.238871321083742,101.21992693330144,0.15673828125,0.02490234375,0.98388671875,3.23486328125,-9.94873046875,69.7021484375,0.0,0.0,0.0,-0.02823774702847004,-0.023888129740953445,-0.7723023891448975,0.634177565574646
8.878148794174194,-0.033886842978787725,-4.616611518036713,99.81733392686097,0.166015625,0.025390625,0.9501953125,0.67138671875,-3.662109375,70.37353515625,0.0,0.0,0.0,-0.030622094869613647,-0.026164520531892776,-0.7643903493881226,0.6434944272041321
8.898300886154175,-0.0025858029397492124,-4.645519866811969,98.42049876989084,0.23193359375,0.00439453125,1.10693359375,5.06591796875,10.498046875,70.00732421875,0.0,0.0,0.0,-0.030670035630464554,-0.026493873447179794,-0.7564892768859863,0.6527491807937622
8.916188478469849,0.20583763573633226,-4.682189018031652,96.94930334342678,0.05615234375,-0.0439453125,0.88427734375,-7.38525390625,-4.0283203125,74.40185546875,0.0,0.0,0.0,-0.03177148476243019,-0.02573680318892002,-0.748085081577301,0.6623421311378479
8.936009407043457,0.7199330478965792,-4.934091090376776,95.43250274387452,0.07373046875,-0.15771484375,0.89697265625,-8.23974609375,-20.69091796875,74.21875,0.0,0.0,0.0,-0.03606783598661423,-0.024316392838954926,-0.7393036484718323,0.6719658374786377
8.956359624862671,1.2020248216281513,-5.14288911953042,93.93413682489215,0.28955078125,-0.16552734375,0.998046875,-10.31494140625,4.21142578125,74.52392578125,0.0,0.0,0.0,-0.03994385898113251,-0.022955432534217834,-0.7305065393447876,0.6813499331474304
8.976669549942017,1.6472706596344135,-5.320061665279612,92.38836939306988,0.1201171875,-0.23583984375,0.97802734375,-1.0986328125,-11.16943359375,77.880859375,0.0,0.0,0.0,-0.04342954605817795,-0.021759316325187683,-0.7212997078895569,0.6909176707267761
8.996052742004395,1.8705422865261374,-5.464394661499383,90.78961335366667,0.21435546875,-0.3017578125,1.28759765625,10.25390625,4.150390625,76.59912109375,0.0,0.0,0.0,-0.045382287353277206,-0.021860651671886444,-0.7116047143936157,0.7007719874382019
9.016106843948364,1.6895544397952584,-5.498439739417311,89.1558116136321,0.11376953125,-0.30322265625,1.41845703125,26.30615234375,-16.357421875,83.31298828125,0.0,0.0,0.0,-0.044151339679956436,-0.02382495626807213,-0.7014980912208557,0.7109034061431885
9.036143064498901,1.7978833744657763,-5.909178714684728,87.39566503433065,0.17138671875,-0.18017578125,0.61279296875,0.79345703125,-13.00048828125,88.9892578125,0.0,0.0,0.0,-0.04693322256207466,-0.026437396183609962,-0.6904364824295044,0.7213846445083618
9.056115865707397,2.318019568678584,-5.856552534016603,85.51177591783606,0.31884765625,-0.185546875,0.61279296875,-13.3056640625,8.36181640625,93.68896484375,0.0,0.0,0.0,-0.049506302922964096,-0.023788418620824814,-0.6786097884178162,0.7324424386024475
9.076081991195679,2.815187117373108,-6.132998464257346,83.61616619672574,0.1455078125,-0.38330078125,0.92236328125,-1.64794921875,-25.5126953125,93.75,0.0,0.0,0.0,-0.05393483489751816,-0.023509860038757324,-0.666461706161499,0.7432140707969666
9.096456289291382,3.270880476766845,-6.4757347954876465,81.68980013378287,0.3525390625,-0.388671875,1.05126953125,0.54931640625,-15.56396484375,93.07861328125,0.0,0.0,0.0,-0.058480050414800644,-0.024074066430330276,-0.6539230346679688,0.7539132237434387
9.11653208732605,3.5018964709603058,-6.497493643749192,79.79827486579622,0.517578125,-0.404296875,1.212890625,10.31494140625,8.544921875,93.8720703125,0.0,0.0,0.0,-0.05973733216524124,-0.02388855069875717,-0.6414366364479065,0.764473557472229
9.13614296913147,3.7289737938801957,-6.495395495013528,77.8282980450028,0.17724609375,-0.3310546875,0.9169921875,-3.2958984375,-19.83642578125,99.12109375,0.0,0.0,0.0,-0.06084280088543892,-0.023652788251638412,-0.6282485723495483,0.7752693295478821
9.156136274337769,4.286953291519694,-6.7184366030207645,75.59365822406055,0.115234375,-0.36328125,0.857421875,-7.50732421875,-5.37109375,117.1875,0.0,0.0,0.0,-0.0653899759054184,-0.023386456072330475,-0.6131139993667603,0.7869361639022827
9.176106452941895,4.7515769098098115,-6.6879457847921815,73.18242386212764,0.2919921875,-0.42578125,0.99853515625,4.8828125,-4.21142578125,123.9013671875,0.0,0.0,0.0,-0.06796751916408539,-0.02212519198656082,-0.5965166687965393,0.7994115948677063
9.196282625198364,5.120394318385806,-6.5192951806930495,70.64411383068662,0.42578125,-0.37353515625,0.99462890625,5.859375,-4.2724609375,126.40380859375,0.0,0.0,0.0,-0.06922969222068787,-0.020562784746289253,-0.5787325501441956,0.8123134970664978
9.216158151626587,5.271788022660077,-6.6048368967451125,68.06952866456368,0.40185546875,-0.40087890625,1.07958984375,14.16015625,-12.02392578125,128.47900390625,0.0,0.0,0.0,-0.07025536149740219,-0.021990623325109482,-0.5603705644607544,0.8249639272689819
9.236039161682129,5.511087542212882,-6.723802143500633,65.31444891943397,0.40771484375,-0.3251953125,0.92626953125,5.2490234375,-1.52587890625,138.73291015625,0.0,0.0,0.0,-0.07201280444860458,-0.023417839780449867,-0.540433943271637,0.8379719853401184
9.256772756576538,5.9197838640316425,-6.728426608455554,62.35009900832425,0.291015625,-0.34619140625,0.81396484375,4.94384765625,-20.1416015625,148.25439453125,0.0,0.0,0.0,-0.07444077730178833,-0.023457475006580353,-0.518665611743927,0.8514072299003601
9.276150226593018,6.558099192915185,-6.682403940054362,59.230430595488436,0.35888671875,-0.31298828125,0.7099609375,-13.7939453125,4.638671875,161.376953125,0.0,0.0,0.0,-0.07839636504650116,-0.022367123514413834,-0.49542316794395447,0.8648177981376648
9.297933578491211,7.185342785154135,-6.530004063537983,56.0164475154985,0.49560546875,-0.55419921875,1.1982421875,-0.3662109375,-19.4091796875,153.3203125,0.0,0.0,0.0,-0.08192703872919083,-0.02080630138516426,-0.47106561064720154,0.8780388236045837
9.316063642501831,7.291061306901239,-6.916565022917202,52.80027877497416,0.6455078125,-0.54150390625,1.3134765625,17.88330078125,-32.65380859375,152.099609375,0.0,0.0,0.0,-0.08361583948135376,-0.025701366364955902,-0.446365088224411,0.8905649781227112
9.336165428161621,7.39071035179714,-6.551791513216678,49.60742488518166,0.681640625,-0.32568359375,0.95556640625,13.427734375,20.69091796875,160.888671875,0.0,0.0,0.0,-0.08233287930488586,-0.024770764634013176,-0.4212978482246399,0.9028376936912537
9.356481075286865,7.499180586006112,-6.537266689059822,46.25593302172644,0.19189453125,-0.2890625,0.755859375,12.0849609375,-34.60693359375,170.166015625,0.0,0.0,0.0,-0.08238999545574188,-0.02667788602411747,-0.394736647605896,0.914703905582428
9.376040935516357,8.036836855770238,-6.37022075252882,42.57334773825486,0.4052734375,-0.29345703125,0.69677734375,-4.0283203125,-9.82666015625,185.11962890625,0.0,0.0,0.0,-0.08531665802001953,-0.026242954656481743,-0.36521056294441223,0.9266357421875
9.396730184555054,8.354636166340821,-6.3751692245824945,38.86952056646454,0.775390625,-0.4287109375,1.22412109375,11.65771484375,-12.39013671875,179.931640625,0.0,0.0,0.0,-0.08703909069299698,-0.028097601607441902,-0.3351556360721588,0.9377128481864929
9.416562795639038,8.47157583512061,-6.008353061433314,35.285822761796396,0.79345703125,-0.33349609375,1.076171875,11.77978515625,4.82177734375,177.91748046875,0.0,0.0,0.0,-0.08613110333681107,-0.0274518933147192,-0.3055293560028076,0.9478816390037537
9.437267541885376,8.59418882977974,-5.864099893049468,31.50607803738138,0.52099609375,-0.240234375,0.87548828125,5.9814453125,-7.32421875,193.54248046875,0.0,0.0,0.0,-0.08586769551038742,-0.0287762638181448,-0.2740626633167267,0.9574384093284607
9.456026554107666,9.05629296203977,-5.72346971313349,27.540550459994723,0.46875,-0.29150390625,0.751953125,3.35693359375,-31.43310546875,198.42529296875,0.0,0.0,0.0,-0.08843079209327698,-0.02957087941467762,-0.2408190220594406,0.9660806655883789
9.476993322372437,9.498540026835279,-5.667048508607777,23.52810631319925,0.7412109375,-0.3974609375,1.017578125,7.9345703125,-8.056640625,197.20458984375,0.0,0.0,0.0,-0.09100145846605301,-0.03136979788541794,-0.2069403976202011,0.9736068844795227
9.491631269454956,9.462514194058047,-5.049111049112968,19.643593317105406,0.69140625,-0.38720703125,1.0341796875,28.1982421875,-3.23486328125,200.68359375,0.0,0.0,0.0,-0.08868259936571121,-0.029197540134191513,-0.17341798543930054,0.9804127812385559
9.518832445144653,9.477188001716172,-4.592092846463659,15.740182895125432,0.7080078125,-0.3681640625,1.03662109375,21.97265625,-2.38037109375,197.20458984375,0.0,0.0,0.0,-0.08723297715187073,-0.028247378766536713,-0.1396283209323883,0.9859494566917419
9.536179065704346,9.512275537256174,-4.206340410727441,11.707920954453167,0.5712890625,-0.30615234375,0.8876953125,9.1552734375,-30.3955078125,201.11083984375,0.0,0.0,0.0,-0.0861571654677391,-0.027930840849876404,-0.10460057109594345,0.9903815388679504
9.556323528289795,9.616690346645452,-3.9414759199981018,7.508431223463249,0.7666015625,-0.28125,0.82373046875,3.173828125,14.892578125,211.24267578125,0.0,0.0,0.0,-0.08583739399909973,-0.028709327802062035,-0.06808393448591232,0.9935653805732727
9.576543092727661,9.783829344503895,-3.301122846864369,3.464302896325144,0.8232421875,-0.46728515625,1.10205078125,8.97216796875,-19.04296875,196.6552734375,0.0,0.0,0.0,-0.08606947213411331,-0.0261091198772192,-0.03255969285964966,0.9954146146774292
9.59654450416565,9.595399793228875,-3.3233045265242205,-0.3957247787287013,0.74853515625,-0.4951171875,1.05029296875,33.5693359375,-32.5927734375,175.6591796875,0.0,0.0,0.0,-0.0835023894906044,-0.02918417379260063,0.001014544628560543,0.9960796236991882
9.616177320480347,8.955059313256426,-2.6436714623605675,-3.7351756056465675,0.89794921875,-0.15625,0.8408203125,26.79443359375,49.86572265625,167.724609375,0.0,0.0,0.0,-0.07725637406110764,-0.02552926354110241,0.030681729316711426,0.9962120652198792
9.638186693191528,8.637411974394874,-1.637972424296499,-6.818649992296837,0.38232421875,-0.2353515625,0.609375,25.146484375,-20.1416015625,156.1279296875,0.0,0.0,0.0,-0.07431572675704956,-0.01870550960302353,0.058219462633132935,0.9953581094741821
9.656742095947266,8.799975599283055,-2.0037303350111513,-9.980346693529855,0.68115234375,-0.287109375,0.94970703125,-0.67138671875,-35.400390625,155.45654296875,0.0,0.0,0.0,-0.07489989697933197,-0.024039702489972115,0.08537892997264862,0.9932383894920349
9.671303510665894,9.012977609870841,-2.101088491770748,-12.779801323923486,1.18505859375,-0.28515625,1.2216796875,0.06103515625,-11.65771484375,134.09423828125,0.0,0.0,0.0,-0.07603655010461807,-0.0269072987139225,0.10949940979480743,0.9907090067863464
9.696228504180908,9.182437164499795,-1.9224918515796081,-15.244104548160113,0.5009765625,-0.19482421875,0.63916015625,-5.0048828125,-18.310546875,117.85888671875,0.0,0.0,0.0,-0.07710973918437958,-0.027190199121832848,0.13086266815662384,0.9880231022834778
9.716123580932617,9.282899855680576,-1.7478765713443511,-17.487570681057303,0.6904296875,-0.29833984375,0.99609375,3.60107421875,-5.615234375,105.40771484375,0.0,0.0,0.0,-0.0776592269539833,-0.027325524017214775,0.1502801477909088,0.9852098226547241
9.736064195632935,9.412497572539689,-0.7559446866869426,-19.563883301944067,0.7041015625,-0.1318359375,0.833984375,-13.18359375,18.12744140625,109.130859375,0.0,0.0,0.0,-0.07973559200763702,-0.02041841670870781,0.16878902912139893,0.9822095036506653
9.756231784820557,9.434897177922746,-0.9614200956136394,-21.536474377642307,0.64697265625,-0.31884765625,1.3076171875,6.77490234375,-20.5078125,90.8203125,0.0,0.0,0.0,-0.07922874391078949,-0.02357950620353222,0.18551941215991974,0.9791574478149414
9.77610468864441,9.383316443084457,-0.9001766708121911,-23.485788168649144,0.873046875,-0.08544921875,1.111328125,-5.06591796875,9.033203125,92.59033203125,0.0,0.0,0.0,-0.07848567515611649,-0.0243113711476326,0.20220305025577545,0.9758908152580261
9.796261548995972,9.344332284622961,-0.7923621347635399,-25.298402553607342,0.57275390625,-0.12255859375,0.93896484375,0.54931640625,-14.34326171875,89.111328125,0.0,0.0,0.0,-0.07796632498502731,-0.024560904130339622,0.21769875288009644,0.972586989402771
9.816155910491943,9.369589470400022,-0.9433448537488469,-27.093574342972627,0.53515625,-0.10498046875,0.77099609375,-3.0517578125,-1.89208984375,86.36474609375,0.0,0.0,0.0,-0.07747721672058105,-0.0271069947630167,0.23279517889022827,0.969055712223053
9.836233377456665,9.27418624184693,-0.7178364999865027,-28.712899497061343,0.7099609375,-0.1376953125,1.03662109375,10.31494140625,-4.8828125,78.61328125,0.0,0.0,0.0,-0.07676991075277328,-0.026094000786542892,0.24664652347564697,0.965707540512085
9.856262445449829,9.033309375482677,-0.7180987152176077,-30.19576088662779,0.75537109375,-0.09912109375,1.091796875,12.0849609375,0.732421875,73.6083984375,0.0,0.0,0.0,-0.07440198957920074,-0.02654268406331539,0.25917837023735046,0.9625935554504395
9.876329898834229,8.929842254840738,-0.6395476444202001,-31.576869533033975,0.712890625,-0.0126953125,0.90478515625,10.6201171875,-4.0283203125,67.2607421875,0.0,0.0,0.0,-0.07339662313461304,-0.026535434648394585,0.2708379626274109,0.9594559669494629
9.897996425628662,8.713392706269389,-0.6488246421386641,-33.129538871012535,0.58251953125,-0.02294921875,0.9365234375,6.16455078125,-22.52197265625,59.2041015625,0.0,0.0,0.0,-0.07120198756456375,-0.027068689465522766,0.28385838866233826,0.9558358192443848
