time,orientation.x,orientation.y,orientation.z,orientation.w,orientation_covariance,angular_velocity.x,angular_velocity.y,angular_velocity.z,angular_velocity_covariance,linear_acceleration.x,linear_acceleration.y,linear_acceleration.z,linear_acceleration_covariance
0.35597848892211914,0.022303421050310135,-0.011142709292471409,-0.9982258081436157,0.05406979098916054,[0. 0. 0. 0. 0. 0. 0. 0. 0.],0.1220703125,-0.9765625,-0.1220703125,[0. 0. 0. 0. 0. 0. 0. 0. 0.],-0.04345703125,0.02490234375,1.00439453125,[0. 0. 0. 0. 0. 0. 0. 0. 0.]
0.3766300678253174,0.022138742730021477,-0.01151032093912363,-0.9982258081436157,0.05406160280108452,[0. 0. 0. 0. 0. 0. 0. 0. 0.],0.18310546875,-0.67138671875,-0.1220703125,[0. 0. 0. 0. 0. 0. 0. 0. 0.],-0.04345703125,0.02490234375,1.00390625,[0. 0. 0. 0. 0. 0. 0. 0. 0.]
0.4044833183288574,0.023266050964593887,-0.01170082576572895,-0.9981997013092041,0.05403034761548042,[0. 0. 0. 0. 0. 0. 0. 0. 0.],0.0,-0.8544921875,-0.18310546875,[0. 0. 0. 0. 0. 0. 0. 0. 0.],-0.04541015625,0.02587890625,1.0029296875,[0. 0. 0. 0. 0. 0. 0. 0. 0.]
0.41690778732299805,0.022769195958971977,-0.011474350467324257,-0.9982142448425293,0.05402082949876785,[0. 0. 0. 0. 0. 0. 0. 0. 0.],-0.6103515625,-0.54931640625,-0.06103515625,[0. 0. 0. 0. 0. 0. 0. 0. 0.],-0.0439453125,0.025390625,1.001953125,[0. 0. 0. 0. 0. 0. 0. 0. 0.]
0.4311549663543701,0.022763719782233238,-0.010679887607693672,-0.99822598695755,0.053969476372003555,[0. 0. 0. 0. 0. 0. 0. 0. 0.],0.06103515625,-0.48828125,-0.1220703125,[0. 0. 0. 0. 0. 0. 0. 0. 0.],-0.044921875,0.02392578125,1.00244140625,[0. 0. 0. 0. 0. 0. 0. 0. 0.]
0.45662903785705566,0.022584158927202225,-0.010826332494616508,-0.9982299208641052,0.05394287779927254,[0. 0. 0. 0. 0. 0. 0. 0. 0.],0.30517578125,-0.6103515625,-0.18310546875,[0. 0. 0. 0. 0. 0. 0. 0. 0.],-0.04443359375,0.0244140625,1.0048828125,[0. 0. 0. 0. 0. 0. 0. 0. 0.]
0.47719645500183105,0.02167440950870514,-0.01096472330391407,-0.9982488751411438,0.0539371520280838,[0. 0. 0. 0. 0. 0. 0. 0. 0.],0.0,-1.0986328125,-0.18310546875,[0. 0. 0. 0. 0. 0. 0. 0. 0.],-0.04248046875,0.0244140625,1.005859375,[0. 0. 0. 0. 0. 0. 0. 0. 0.]
0.5025880336761475,0.02273229882121086,-0.01074779499322176,-0.9982306361198425,0.05388351157307625,[0. 0. 0. 0. 0. 0. 0. 0. 0.],-0.1220703125,-1.03759765625,-0.30517578125,[0. 0. 0. 0. 0. 0. 0. 0. 0.],-0.04443359375,0.0244140625,1.00390625,[0. 0. 0. 0. 0. 0. 0. 0. 0.]
0.5410311222076416,0.022917961701750755,-0.011230443604290485,-0.9982221126556396,0.05386347696185112,[0. 0. 0. 0. 0. 0. 0. 0. 0.],0.0,-0.30517578125,-0.18310546875,[0. 0. 0. 0. 0. 0. 0. 0. 0.],-0.044921875,0.02490234375,1.00439453125,[0. 0. 0. 0. 0. 0. 0. 0. 0.]
0.5464785099029541,0.023517336696386337,-0.011487025767564774,-0.9982066750526428,0.05383815988898277,[0. 0. 0. 0. 0. 0. 0. 0. 0.],-0.3662109375,-0.18310546875,0.0,[0. 0. 0. 0. 0. 0. 0. 0. 0.],-0.0458984375,0.025390625,1.00439453125,[0. 0. 0. 0. 0. 0. 0. 0. 0.]
0.56217360496521,0.023324500769376755,-0.011562369763851166,-0.9982120990753174,0.05380571261048317,[0. 0. 0. 0. 0. 0. 0. 0. 0.],-0.48828125,-0.6103515625,-0.06103515625,[0. 0. 0. 0. 0. 0. 0. 0. 0.],-0.0458984375,0.025390625,1.00537109375,[0. 0. 0. 0. 0. 0. 0. 0. 0.]
0.5763669013977051,0.023020563647150993,-0.01041404064744711,-0.9982346296310425,0.05375126004219055,[0. 0. 0. 0. 0. 0. 0. 0. 0.],0.18310546875,-0.9765625,-0.244140625,[0. 0. 0. 0. 0. 0. 0. 0. 0.],-0.044921875,0.0224609375,1.0068359375,[0. 0. 0. 0. 0. 0. 0. 0. 0.]
0.5960209369659424,0.021967804059386253,-0.01126258634030819,-0.9982490539550781,0.05375318229198456,[0. 0. 0. 0. 0. 0. 0. 0. 0.],0.244140625,-0.67138671875,-0.18310546875,[0. 0. 0. 0. 0. 0. 0. 0. 0.],-0.04296875,0.02490234375,1.00390625,[0. 0. 0. 0. 0. 0. 0. 0. 0.]
0.6150112152099609,0.023513639345765114,-0.010990627110004425,-0.9982190728187561,0.0537133514881134,[0. 0. 0. 0. 0. 0. 0. 0. 0.],-0.6103515625,-0.6103515625,-0.18310546875,[0. 0. 0. 0. 0. 0. 0. 0. 0.],-0.0458984375,0.02490234375,1.0048828125,[0. 0. 0. 0. 0. 0. 0. 0. 0.]
0.6360535621643066,0.02270277589559555,-0.010324053466320038,-0.9982464909553528,0.05368475615978241,[0. 0. 0. 0. 0. 0. 0. 0. 0.],-0.30517578125,-0.6103515625,-0.18310546875,[0. 0. 0. 0. 0. 0. 0. 0. 0.],-0.04443359375,0.0234375,1.00537109375,[0. 0. 0. 0. 0. 0. 0. 0. 0.]
0.6569643020629883,0.022827288135886192,-0.011139415204524994,-0.9982349872589111,0.05368257686495781,[0. 0. 0. 0. 0. 0. 0. 0. 0.],0.30517578125,-0.48828125,0.1220703125,[0. 0. 0. 0. 0. 0. 0. 0. 0.],-0.04443359375,0.0244140625,1.0048828125,[0. 0. 0. 0. 0. 0. 0. 0. 0.]
0.6800940036773682,0.023015234619379044,-0.01159863080829382,-0.998226523399353,0.05366156995296478,[0. 0. 0. 0. 0. 0. 0. 0. 0.],0.0,-0.67138671875,-0.1220703125,[0. 0. 0. 0. 0. 0. 0. 0. 0.],-0.04541015625,0.02587890625,1.0048828125,[0. 0. 0. 0. 0. 0. 0. 0. 0.]
0.6977992057800293,0.022401226684451103,-0.011148250661790371,-0.9982463717460632,0.05364840850234032,[0. 0. 0. 0. 0. 0. 0. 0. 0.],-0.30517578125,-1.03759765625,-0.244140625,[0. 0. 0. 0. 0. 0. 0. 0. 0.],-0.0439453125,0.02490234375,1.0048828125,[0. 0. 0. 0. 0. 0. 0. 0. 0.]
0.7112042903900146,0.022625889629125595,-0.011105242185294628,-0.9982430934906006,0.05362417548894882,[0. 0. 0. 0. 0. 0. 0. 0. 0.],-0.18310546875,-0.42724609375,-0.18310546875,[0. 0. 0. 0. 0. 0. 0. 0. 0.],-0.04443359375,0.02587890625,1.00390625,[0. 0. 0. 0. 0. 0. 0. 0. 0.]
0.7403769493103027,0.022290797904133797,-0.011096503585577011,-0.9982516765594482,0.0536060631275177,[0. 0. 0. 0. 0. 0. 0. 0. 0.],0.06103515625,-0.30517578125,0.0,[0. 0. 0. 0. 0. 0. 0. 0. 0.],-0.04345703125,0.02392578125,1.00390625,[0. 0. 0. 0. 0. 0. 0. 0. 0.]
0.7522585391998291,0.02331659384071827,-0.010227235965430737,-0.9982402324676514,0.05355620011687279,[0. 0. 0. 0. 0. 0. 0. 0. 0.],-0.1220703125,-0.8544921875,-0.06103515625,[0. 0. 0. 0. 0. 0. 0. 0. 0.],-0.04541015625,0.02294921875,1.00439453125,[0. 0. 0. 0. 0. 0. 0. 0. 0.]
0.7784740924835205,0.02219228632748127,-0.011204144917428493,-0.9982550740242004,0.053561966866254807,[0. 0. 0. 0. 0. 0. 0. 0. 0.],-0.1220703125,-1.0986328125,-0.244140625,[0. 0. 0. 0. 0. 0. 0. 0. 0.],-0.04345703125,0.02490234375,1.00634765625,[0. 0. 0. 0. 0. 0. 0. 0. 0.]
0.7962398529052734,0.023184414952993393,-0.010808204300701618,-0.9982393980026245,0.053514957427978516,[0. 0. 0. 0. 0. 0. 0. 0. 0.],0.06103515625,-0.48828125,-0.18310546875,[0. 0. 0. 0. 0. 0. 0. 0. 0.],-0.04541015625,0.02490234375,1.00439453125,[0. 0. 0. 0. 0. 0. 0. 0. 0.]
0.8161492347717285,0.022542916238307953,-0.011706826277077198,-0.998243510723114,0.05352339893579483,[0. 0. 0. 0. 0. 0. 0. 0. 0.],-0.1220703125,-0.42724609375,0.0,[0. 0. 0. 0. 0. 0. 0. 0. 0.],-0.0439453125,0.02587890625,1.00244140625,[0. 0. 0. 0. 0. 0. 0. 0. 0.]
0.8362448215484619,0.022995252162218094,-0.0107024647295475,-0.9982476234436035,0.05346425995230675,[0. 0. 0. 0. 0. 0. 0. 0. 0.],-0.18310546875,-0.732421875,-0.1220703125,[0. 0. 0. 0. 0. 0. 0. 0. 0.],-0.044921875,0.02392578125,1.00537109375,[0. 0. 0. 0. 0. 0. 0. 0. 0.]
0.8560197353363037,0.022400235757231712,-0.01046124380081892,-0.9982653856277466,0.0534326396882534,[0. 0. 0. 0. 0. 0. 0. 0. 0.],0.06103515625,-0.79345703125,-0.1220703125,[0. 0. 0. 0. 0. 0. 0. 0. 0.],-0.0439453125,0.0234375,1.0048828125,[0. 0. 0. 0. 0. 0. 0. 0. 0.]
0.8762905597686768,0.022904086858034134,-0.011146686971187592,-0.9982479214668274,0.05340709909796715,[0. 0. 0. 0. 0. 0. 0. 0. 0.],0.30517578125,-0.67138671875,-0.18310546875,[0. 0. 0. 0. 0. 0. 0. 0. 0.],-0.044921875,0.02490234375,1.00390625,[0. 0. 0. 0. 0. 0. 0. 0. 0.]
0.8992054462432861,0.022689303383231163,-0.011655408889055252,-0.9982469081878662,0.05340978130698204,[0. 0. 0. 0. 0. 0. 0. 0. 0.],-0.30517578125,-0.67138671875,-0.18310546875,[0. 0. 0. 0. 0. 0. 0. 0. 0.],-0.04345703125,0.02587890625,1.00341796875,[0. 0. 0. 0. 0. 0. 0. 0. 0.]
0.916179895401001,0.023312486708164215,-0.011788097210228443,-0.9982327818870544,0.05337667465209961,[0. 0. 0. 0. 0. 0. 0. 0. 0.],-0.48828125,-0.54931640625,-0.06103515625,[0. 0. 0. 0. 0. 0. 0. 0. 0.],-0.0458984375,0.02685546875,1.00146484375,[0. 0. 0. 0. 0. 0. 0. 0. 0.]
0.9359233379364014,0.022081283852458,-0.010877423919737339,-0.9982730150222778,0.05333998426795006,[0. 0. 0. 0. 0. 0. 0. 0. 0.],0.18310546875,-0.6103515625,0.0,[0. 0. 0. 0. 0. 0. 0. 0. 0.],-0.04248046875,0.0234375,1.005859375,[0. 0. 0. 0. 0. 0. 0. 0. 0.]
0.955941915512085,0.02239038236439228,-0.0109579898416996,-0.9982666373252869,0.05331391468644142,[0. 0. 0. 0. 0. 0. 0. 0. 0.],0.06103515625,-0.48828125,-0.18310546875,[0. 0. 0. 0. 0. 0. 0. 0. 0.],-0.0439453125,0.02490234375,1.005859375,[0. 0. 0. 0. 0. 0. 0. 0. 0.]
0.9770972728729248,0.022380908951163292,-0.01097132544964552,-0.9982679486274719,0.0532912015914917,[0. 0. 0. 0. 0. 0. 0. 0. 0.],-0.06103515625,-0.8544921875,-0.1220703125,[0. 0. 0. 0. 0. 0. 0. 0. 0.],-0.04345703125,0.0244140625,1.00390625,[0. 0. 0. 0. 0. 0. 0. 0. 0.]
0.992788553237915,0.02199321612715721,-0.011472700163722038,-0.9982718229293823,0.05327458679676056,[0. 0. 0. 0. 0. 0. 0. 0. 0.],0.0,-0.91552734375,-0.48828125,[0. 0. 0. 0. 0. 0. 0. 0. 0.],-0.04296875,0.025390625,1.0029296875,[0. 0. 0. 0. 0. 0. 0. 0. 0.]
1.0160727500915527,0.02358686365187168,-0.010898482985794544,-0.9982446432113647,0.05322154238820076,[0. 0. 0. 0. 0. 0. 0. 0. 0.],-0.06103515625,-0.30517578125,-0.18310546875,[0. 0. 0. 0. 0. 0. 0. 0. 0.],-0.04638671875,0.0244140625,1.00439453125,[0. 0. 0. 0. 0. 0. 0. 0. 0.]
1.0359952449798584,0.022978423163294792,-0.011873546987771988,-0.9982469081878662,0.05323724076151848,[0. 0. 0. 0. 0. 0. 0. 0. 0.],-0.1220703125,-0.48828125,0.0,[0. 0. 0. 0. 0. 0. 0. 0. 0.],-0.044921875,0.0263671875,1.0048828125,[0. 0. 0. 0. 0. 0. 0. 0. 0.]
1.0561702251434326,0.022695202380418777,-0.01069899182766676,-0.9982694983482361,0.05318400263786316,[0. 0. 0. 0. 0. 0. 0. 0. 0.],-0.18310546875,-0.79345703125,-0.06103515625,[0. 0. 0. 0. 0. 0. 0. 0. 0.],-0.04443359375,0.02392578125,1.00341796875,[0. 0. 0. 0. 0. 0. 0. 0. 0.]
1.0773510932922363,0.022433659061789513,-0.010600462555885315,-0.9982776641845703,0.0531616285443306,[0. 0. 0. 0. 0. 0. 0. 0. 0.],0.18310546875,-0.79345703125,-0.18310546875,[0. 0. 0. 0. 0. 0. 0. 0. 0.],-0.0439453125,0.0234375,1.0078125,[0. 0. 0. 0. 0. 0. 0. 0. 0.]
1.0920851230621338,0.022710761055350304,-0.011674188077449799,-0.9982585310935974,0.05317724868655205,[0. 0. 0. 0. 0. 0. 0. 0. 0.],0.1220703125,-0.67138671875,0.0,[0. 0. 0. 0. 0. 0. 0. 0. 0.],-0.04443359375,0.02587890625,1.0048828125,[0. 0. 0. 0. 0. 0. 0. 0. 0.]
1.1219425201416016,0.022613950073719025,-0.01247803121805191,-0.9982513785362244,0.05317026749253273,[0. 0. 0. 0. 0. 0. 0. 0. 0.],-0.48828125,-0.79345703125,-0.244140625,[0. 0. 0. 0. 0. 0. 0. 0. 0.],-0.04443359375,0.02685546875,1.00390625,[0. 0. 0. 0. 0. 0. 0. 0. 0.]
1.1369917392730713,0.02224128320813179,-0.011568139307200909,-0.9982725381851196,0.0531366690993309,[0. 0. 0. 0. 0. 0. 0. 0. 0.],-0.3662109375,-0.54931640625,0.0,[0. 0. 0. 0. 0. 0. 0. 0. 0.],-0.04345703125,0.025390625,1.0048828125,[0. 0. 0. 0. 0. 0. 0. 0. 0.]
1.15592622756958,0.02250524051487446,-0.010439237579703331,-0.9982823729515076,0.05307334288954735,[0. 0. 0. 0. 0. 0. 0. 0. 0.],0.1220703125,-0.244140625,0.0,[0. 0. 0. 0. 0. 0. 0. 0. 0.],-0.0439453125,0.0234375,1.00390625,[0. 0. 0. 0. 0. 0. 0. 0. 0.]
1.1760027408599854,0.023076452314853668,-0.00992090255022049,-0.9982767701148987,0.0530327744781971,[0. 0. 0. 0. 0. 0. 0. 0. 0.],-0.06103515625,-0.8544921875,-0.18310546875,[0. 0. 0. 0. 0. 0. 0. 0. 0.],-0.04541015625,0.0224609375,1.0068359375,[0. 0. 0. 0. 0. 0. 0. 0. 0.]
1.2006921768188477,0.02270490862429142,-0.011193938553333282,-0.9982726573944092,0.05301922559738159,[0. 0. 0. 0. 0. 0. 0. 0. 0.],-0.18310546875,-1.0986328125,-0.30517578125,[0. 0. 0. 0. 0. 0. 0. 0. 0.],-0.04443359375,0.02490234375,1.0048828125,[0. 0. 0. 0. 0. 0. 0. 0. 0.]
1.2177560329437256,0.021980170160531998,-0.011833595111966133,-0.9982818961143494,0.053011830896139145,[0. 0. 0. 0. 0. 0. 0. 0. 0.],-0.244140625,-0.30517578125,-0.244140625,[0. 0. 0. 0. 0. 0. 0. 0. 0.],-0.04296875,0.02587890625,1.001953125,[0. 0. 0. 0. 0. 0. 0. 0. 0.]
1.2326693534851074,0.022207139059901237,-0.010813345201313496,-0.9982913136482239,0.05295783653855324,[0. 0. 0. 0. 0. 0. 0. 0. 0.],0.06103515625,-0.30517578125,0.0,[0. 0. 0. 0. 0. 0. 0. 0. 0.],-0.04443359375,0.0244140625,1.00390625,[0. 0. 0. 0. 0. 0. 0. 0. 0.]
1.2574217319488525,0.02367139793932438,-0.01173284649848938,-0.9982485771179199,0.052931781858205795,[0. 0. 0. 0. 0. 0. 0. 0. 0.],0.0,-0.91552734375,-0.1220703125,[0. 0. 0. 0. 0. 0. 0. 0. 0.],-0.0458984375,0.02587890625,1.00537109375,[0. 0. 0. 0. 0. 0. 0. 0. 0.]
1.2785117626190186,0.022320332005620003,-0.010808248072862625,-0.9982924461364746,0.052887964993715286,[0. 0. 0. 0. 0. 0. 0. 0. 0.],0.0,-1.15966796875,-0.30517578125,[0. 0. 0. 0. 0. 0. 0. 0. 0.],-0.04296875,0.02294921875,1.005859375,[0. 0. 0. 0. 0. 0. 0. 0. 0.]
1.2944929599761963,0.022697944194078445,-0.010944894514977932,-0.998283863067627,0.052862703800201416,[0. 0. 0. 0. 0. 0. 0. 0. 0.],0.06103515625,-0.42724609375,-0.18310546875,[0. 0. 0. 0. 0. 0. 0. 0. 0.],-0.04443359375,0.0244140625,1.00341796875,[0. 0. 0. 0. 0. 0. 0. 0. 0.]
1.316174030303955,0.02272023633122444,-0.011646614409983158,-0.9982759356498718,0.05285333842039108,[0. 0. 0. 0. 0. 0. 0. 0. 0.],-0.3662109375,-0.244140625,-0.1220703125,[0. 0. 0. 0. 0. 0. 0. 0. 0.],-0.04443359375,0.02587890625,1.00341796875,[0. 0. 0. 0. 0. 0. 0. 0. 0.]
1.335927963256836,0.02183414250612259,-0.011297163553535938,-0.99830162525177,0.05281757935881615,[0. 0. 0. 0. 0. 0. 0. 0. 0.],-0.18310546875,-0.732421875,-0.18310546875,[0. 0. 0. 0. 0. 0. 0. 0. 0.],-0.04345703125,0.02490234375,1.0078125,[0. 0. 0. 0. 0. 0. 0. 0. 0.]
1.3561897277832031,0.022190198302268982,-0.010700050741434097,-0.9983029961585999,0.052766185253858566,[0. 0. 0. 0. 0. 0. 0. 0. 0.],0.06103515625,-1.03759765625,-0.18310546875,[0. 0. 0. 0. 0. 0. 0. 0. 0.],-0.04345703125,0.0234375,1.00439453125,[0. 0. 0. 0. 0. 0. 0. 0. 0.]
1.3768134117126465,0.02271352708339691,-0.010447519831359386,-0.9982964396476746,0.05271735042333603,[0. 0. 0. 0. 0. 0. 0. 0. 0.],0.244140625,-0.732421875,-0.3662109375,[0. 0. 0. 0. 0. 0. 0. 0. 0.],-0.04443359375,0.0234375,1.00341796875,[0. 0. 0. 0. 0. 0. 0. 0. 0.]
1.3953020572662354,0.02268465794622898,-0.011839491315186024,-0.9982810020446777,0.052729878574609756,[0. 0. 0. 0. 0. 0. 0. 0. 0.],-0.48828125,-0.67138671875,-0.1220703125,[0. 0. 0. 0. 0. 0. 0. 0. 0.],-0.04443359375,0.0263671875,1.00439453125,[0. 0. 0. 0. 0. 0. 0. 0. 0.]
1.4161577224731445,0.023029111325740814,-0.011216582730412483,-0.9982823133468628,0.052691444754600525,[0. 0. 0. 0. 0. 0. 0. 0. 0.],-0.244140625,-0.732421875,-0.18310546875,[0. 0. 0. 0. 0. 0. 0. 0. 0.],-0.04541015625,0.02490234375,1.00341796875,[0. 0. 0. 0. 0. 0. 0. 0. 0.]
1.436354160308838,0.022473378106951714,-0.011680296622216702,-0.9982904195785522,0.052677594125270844,[0. 0. 0. 0. 0. 0. 0. 0. 0.],0.06103515625,-0.244140625,-0.06103515625,[0. 0. 0. 0. 0. 0. 0. 0. 0.],-0.0439453125,0.02587890625,1.00341796875,[0. 0. 0. 0. 0. 0. 0. 0. 0.]
1.4648995399475098,0.022620534524321556,-0.010942632332444191,-0.9982993006706238,0.05260302126407623,[0. 0. 0. 0. 0. 0. 0. 0. 0.],-0.42724609375,-0.67138671875,-0.30517578125,[0. 0. 0. 0. 0. 0. 0. 0. 0.],-0.0439453125,0.02490234375,1.00390625,[0. 0. 0. 0. 0. 0. 0. 0. 0.]
1.4854497909545898,0.022208314388990402,-0.011180631816387177,-0.9983063340187073,0.05259520560503006,[0. 0. 0. 0. 0. 0. 0. 0. 0.],-0.244140625,-0.48828125,-0.18310546875,[0. 0. 0. 0. 0. 0. 0. 0. 0.],-0.04345703125,0.02490234375,1.00390625,[0. 0. 0. 0. 0. 0. 0. 0. 0.]
1.5022327899932861,0.022579336538910866,-0.01126349437981844,-0.9982991218566895,0.05255817621946335,[0. 0. 0. 0. 0. 0. 0. 0. 0.],0.30517578125,-0.79345703125,-0.244140625,[0. 0. 0. 0. 0. 0. 0. 0. 0.],-0.0439453125,0.02490234375,1.00390625,[0. 0. 0. 0. 0. 0. 0. 0. 0.]
1.5181634426116943,0.022597268223762512,-0.010868332348763943,-0.9983049035072327,0.05252251774072647,[0. 0. 0. 0. 0. 0. 0. 0. 0.],0.06103515625,-0.67138671875,-0.244140625,[0. 0. 0. 0. 0. 0. 0. 0. 0.],-0.0439453125,0.02392578125,1.00439453125,[0. 0. 0. 0. 0. 0. 0. 0. 0.]
1.536207675933838,0.023289121687412262,-0.010785648599267006,-0.9982912540435791,0.05249793827533722,[0. 0. 0. 0. 0. 0. 0. 0. 0.],-0.30517578125,-0.6103515625,-0.06103515625,[0. 0. 0. 0. 0. 0. 0. 0. 0.],-0.0458984375,0.0244140625,1.00537109375,[0. 0. 0. 0. 0. 0. 0. 0. 0.]
1.5609230995178223,0.02272838167846203,-0.012164454907178879,-0.9982885718345642,0.052491988986730576,[0. 0. 0. 0. 0. 0. 0. 0. 0.],-0.244140625,-0.48828125,-0.1220703125,[0. 0. 0. 0. 0. 0. 0. 0. 0.],-0.0439453125,0.0263671875,1.00341796875,[0. 0. 0. 0. 0. 0. 0. 0. 0.]
1.5761709213256836,0.022476550191640854,-0.01140725426375866,-0.9983049035072327,0.052459001541137695,[0. 0. 0. 0. 0. 0. 0. 0. 0.],0.18310546875,-0.79345703125,-0.18310546875,[0. 0. 0. 0. 0. 0. 0. 0. 0.],-0.0439453125,0.025390625,1.0048828125,[0. 0. 0. 0. 0. 0. 0. 0. 0.]
1.5962002277374268,0.02283834107220173,-0.011751591227948666,-0.9982942938804626,0.05243007093667984,[0. 0. 0. 0. 0. 0. 0. 0. 0.],-0.1220703125,-0.6103515625,-0.1220703125,[0. 0. 0. 0. 0. 0. 0. 0. 0.],-0.044921875,0.0263671875,1.0048828125,[0. 0. 0. 0. 0. 0. 0. 0. 0.]
1.6163222789764404,0.02286335825920105,-0.0112177524715662,-0.9983012676239014,0.05240345746278763,[0. 0. 0. 0. 0. 0. 0. 0. 0.],-0.54931640625,-0.54931640625,-0.1220703125,[0. 0. 0. 0. 0. 0. 0. 0. 0.],-0.04443359375,0.02490234375,1.00341796875,[0. 0. 0. 0. 0. 0. 0. 0. 0.]
1.636202335357666,0.02278495393693447,-0.01122692134231329,-0.9983046650886536,0.05236990377306938,[0. 0. 0. 0. 0. 0. 0. 0. 0.],0.0,-0.42724609375,-0.1220703125,[0. 0. 0. 0. 0. 0. 0. 0. 0.],-0.044921875,0.02490234375,1.0029296875,[0. 0. 0. 0. 0. 0. 0. 0. 0.]
1.6565415859222412,0.02295357547700405,-0.011073119007050991,-0.9983040690422058,0.05234244838356972,[0. 0. 0. 0. 0. 0. 0. 0. 0.],0.18310546875,-0.67138671875,-0.1220703125,[0. 0. 0. 0. 0. 0. 0. 0. 0.],-0.044921875,0.02490234375,1.00390625,[0. 0. 0. 0. 0. 0. 0. 0. 0.]
1.6760523319244385,0.02256971225142479,-0.012030011042952538,-0.9983012080192566,0.052351780235767365,[0. 0. 0. 0. 0. 0. 0. 0. 0.],-0.1220703125,-0.9765625,-0.06103515625,[0. 0. 0. 0. 0. 0. 0. 0. 0.],-0.04345703125,0.02587890625,1.00390625,[0. 0. 0. 0. 0. 0. 0. 0. 0.]
1.6961534023284912,0.022718774154782295,-0.011852113530039787,-0.9983013272285461,0.052326224744319916,[0. 0. 0. 0. 0. 0. 0. 0. 0.],-0.48828125,-0.8544921875,-0.18310546875,[0. 0. 0. 0. 0. 0. 0. 0. 0.],-0.04443359375,0.02587890625,1.00390625,[0. 0. 0. 0. 0. 0. 0. 0. 0.]
1.7160053253173828,0.022740516811609268,-0.01127445138990879,-0.998309314250946,0.05228938162326813,[0. 0. 0. 0. 0. 0. 0. 0. 0.],0.06103515625,-0.18310546875,0.0,[0. 0. 0. 0. 0. 0. 0. 0. 0.],-0.04443359375,0.02490234375,1.0029296875,[0. 0. 0. 0. 0. 0. 0. 0. 0.]
1.7399342060089111,0.02310490608215332,-0.011026470921933651,-0.9983058571815491,0.0522502064704895,[0. 0. 0. 0. 0. 0. 0. 0. 0.],0.0,-0.3662109375,-0.06103515625,[0. 0. 0. 0. 0. 0. 0. 0. 0.],-0.044921875,0.0244140625,1.001953125,[0. 0. 0. 0. 0. 0. 0. 0. 0.]
1.7574105262756348,0.022588878870010376,-0.010474362410604954,-0.9983252286911011,0.0522189736366272,[0. 0. 0. 0. 0. 0. 0. 0. 0.],-0.06103515625,-0.9765625,-0.244140625,[0. 0. 0. 0. 0. 0. 0. 0. 0.],-0.04443359375,0.02392578125,1.005859375,[0. 0. 0. 0. 0. 0. 0. 0. 0.]
1.77689528465271,0.022217683494091034,-0.011237970553338528,-0.9983256459236145,0.052211932837963104,[0. 0. 0. 0. 0. 0. 0. 0. 0.],0.1220703125,-0.9765625,-0.30517578125,[0. 0. 0. 0. 0. 0. 0. 0. 0.],-0.04345703125,0.025390625,1.00341796875,[0. 0. 0. 0. 0. 0. 0. 0. 0.]
1.7961056232452393,0.023167280480265617,-0.011197838000953197,-0.9983066320419312,0.05217033624649048,[0. 0. 0. 0. 0. 0. 0. 0. 0.],-0.06103515625,-0.3662109375,-0.18310546875,[0. 0. 0. 0. 0. 0. 0. 0. 0.],-0.04443359375,0.02490234375,1.0029296875,[0. 0. 0. 0. 0. 0. 0. 0. 0.]
1.8168926239013672,0.02271346189081669,-0.011671406216919422,-0.9983120560646057,0.05216408148407936,[0. 0. 0. 0. 0. 0. 0. 0. 0.],-0.18310546875,-0.42724609375,0.0,[0. 0. 0. 0. 0. 0. 0. 0. 0.],-0.04443359375,0.02587890625,1.00390625,[0. 0. 0. 0. 0. 0. 0. 0. 0.]
1.8360819816589355,0.022691864520311356,-0.011794078163802624,-0.9983124732971191,0.05213605612516403,[0. 0. 0. 0. 0. 0. 0. 0. 0.],-0.06103515625,-0.732421875,-0.06103515625,[0. 0. 0. 0. 0. 0. 0. 0. 0.],-0.04443359375,0.02587890625,1.00537109375,[0. 0. 0. 0. 0. 0. 0. 0. 0.]
1.8570454120635986,0.022945761680603027,-0.011528825387358665,-0.99831223487854,0.05208967998623848,[0. 0. 0. 0. 0. 0. 0. 0. 0.],0.30517578125,-0.79345703125,-0.18310546875,[0. 0. 0. 0. 0. 0. 0. 0. 0.],-0.044921875,0.02490234375,1.00439453125,[0. 0. 0. 0. 0. 0. 0. 0. 0.]
1.8760929107666016,0.022695699706673622,-0.011210323311388493,-0.9983226656913757,0.05206938460469246,[0. 0. 0. 0. 0. 0. 0. 0. 0.],0.1220703125,-0.732421875,-0.1220703125,[0. 0. 0. 0. 0. 0. 0. 0. 0.],-0.04443359375,0.02490234375,1.00537109375,[0. 0. 0. 0. 0. 0. 0. 0. 0.]
1.8924546241760254,0.0224632378667593,-0.01144264917820692,-0.998326301574707,0.05205016955733299,[0. 0. 0. 0. 0. 0. 0. 0. 0.],-0.30517578125,-0.91552734375,-0.18310546875,[0. 0. 0. 0. 0. 0. 0. 0. 0.],-0.0439453125,0.025390625,1.00341796875,[0. 0. 0. 0. 0. 0. 0. 0. 0.]
1.916123390197754,0.021974969655275345,-0.011214828118681908,-0.9983416199684143,0.052014581859111786,[0. 0. 0. 0. 0. 0. 0. 0. 0.],-0.3662109375,-0.48828125,-0.30517578125,[0. 0. 0. 0. 0. 0. 0. 0. 0.],-0.04296875,0.02490234375,1.0048828125,[0. 0. 0. 0. 0. 0. 0. 0. 0.]
1.9362843036651611,0.022736191749572754,-0.011040491051971912,-0.9983285069465637,0.05197497457265854,[0. 0. 0. 0. 0. 0. 0. 0. 0.],0.06103515625,-0.244140625,-0.06103515625,[0. 0. 0. 0. 0. 0. 0. 0. 0.],-0.044921875,0.02490234375,1.00390625,[0. 0. 0. 0. 0. 0. 0. 0. 0.]
1.9577491283416748,0.022791080176830292,-0.01123849581927061,-0.9983270764350891,0.0519363209605217,[0. 0. 0. 0. 0. 0. 0. 0. 0.],0.06103515625,-0.732421875,-0.18310546875,[0. 0. 0. 0. 0. 0. 0. 0. 0.],-0.04443359375,0.0244140625,1.001953125,[0. 0. 0. 0. 0. 0. 0. 0. 0.]
1.9760873317718506,0.022700531408190727,-0.0116019481793046,-0.9983260631561279,0.05191536247730255,[0. 0. 0. 0. 0. 0. 0. 0. 0.],-0.18310546875,-1.15966796875,-0.06103515625,[0. 0. 0. 0. 0. 0. 0. 0. 0.],-0.04443359375,0.025390625,1.0048828125,[0. 0. 0. 0. 0. 0. 0. 0. 0.]
1.9960415363311768,0.022434955462813377,-0.011267793364822865,-0.9983375072479248,0.05188530683517456,[0. 0. 0. 0. 0. 0. 0. 0. 0.],0.0,-0.6103515625,-0.18310546875,[0. 0. 0. 0. 0. 0. 0. 0. 0.],-0.0439453125,0.02490234375,1.0048828125,[0. 0. 0. 0. 0. 0. 0. 0. 0.]
2.016664505004883,0.02176014892756939,-0.011907204985618591,-0.9983451962471008,0.05188058316707611,[0. 0. 0. 0. 0. 0. 0. 0. 0.],-0.244140625,-0.18310546875,-0.1220703125,[0. 0. 0. 0. 0. 0. 0. 0. 0.],-0.04248046875,0.0263671875,1.00439453125,[0. 0. 0. 0. 0. 0. 0. 0. 0.]
2.038553476333618,0.023122044280171394,-0.01209024153649807,-0.9983147382736206,0.051835063844919205,[0. 0. 0. 0. 0. 0. 0. 0. 0.],-0.54931640625,-0.6103515625,-0.1220703125,[0. 0. 0. 0. 0. 0. 0. 0. 0.],-0.04541015625,0.02685546875,1.00244140625,[0. 0. 0. 0. 0. 0. 0. 0. 0.]
2.058112621307373,0.022656137123703957,-0.011486376635730267,-0.9983355402946472,0.05177689343690872,[0. 0. 0. 0. 0. 0. 0. 0. 0.],-0.18310546875,-0.54931640625,-0.06103515625,[0. 0. 0. 0. 0. 0. 0. 0. 0.],-0.04443359375,0.02490234375,1.00341796875,[0. 0. 0. 0. 0. 0. 0. 0. 0.]
2.0762579441070557,0.022189335897564888,-0.011256836354732513,-0.9983496069908142,0.05175982788205147,[0. 0. 0. 0. 0. 0. 0. 0. 0.],0.30517578125,-0.732421875,-0.244140625,[0. 0. 0. 0. 0. 0. 0. 0. 0.],-0.04345703125,0.02490234375,1.0029296875,[0. 0. 0. 0. 0. 0. 0. 0. 0.]
2.0962624549865723,0.021705633029341698,-0.011532102711498737,-0.9983578324317932,0.05174582079052925,[0. 0. 0. 0. 0. 0. 0. 0. 0.],-0.3662109375,-0.732421875,-0.18310546875,[0. 0. 0. 0. 0. 0. 0. 0. 0.],-0.04248046875,0.025390625,1.0029296875,[0. 0. 0. 0. 0. 0. 0. 0. 0.]
2.112161159515381,0.02222139947116375,-0.011492195539176464,-0.99834805727005,0.051724448800086975,[0. 0. 0. 0. 0. 0. 0. 0. 0.],-0.48828125,-0.6103515625,-0.06103515625,[0. 0. 0. 0. 0. 0. 0. 0. 0.],-0.04345703125,0.025390625,1.00390625,[0. 0. 0. 0. 0. 0. 0. 0. 0.]
2.136098861694336,0.022510115057229996,-0.011113368906080723,-0.9983483552932739,0.05167720839381218,[0. 0. 0. 0. 0. 0. 0. 0. 0.],0.1220703125,-0.48828125,0.0,[0. 0. 0. 0. 0. 0. 0. 0. 0.],-0.04443359375,0.02490234375,1.00439453125,[0. 0. 0. 0. 0. 0. 0. 0. 0.]
2.1563825607299805,0.022943833842873573,-0.011080964468419552,-0.9983407855033875,0.05163899064064026,[0. 0. 0. 0. 0. 0. 0. 0. 0.],0.18310546875,-0.732421875,-0.18310546875,[0. 0. 0. 0. 0. 0. 0. 0. 0.],-0.04541015625,0.0244140625,1.00390625,[0. 0. 0. 0. 0. 0. 0. 0. 0.]
2.1763885021209717,0.022507134824991226,-0.012003153562545776,-0.998339831829071,0.0516434907913208,[0. 0. 0. 0. 0. 0. 0. 0. 0.],-0.1220703125,-1.220703125,-0.244140625,[0. 0. 0. 0. 0. 0. 0. 0. 0.],-0.0439453125,0.0263671875,1.00439453125,[0. 0. 0. 0. 0. 0. 0. 0. 0.]
2.1967556476593018,0.022437123581767082,-0.01102190650999546,-0.9983553886413574,0.05159282311797142,[0. 0. 0. 0. 0. 0. 0. 0. 0.],-0.3662109375,-0.67138671875,-0.18310546875,[0. 0. 0. 0. 0. 0. 0. 0. 0.],-0.0439453125,0.0244140625,1.00390625,[0. 0. 0. 0. 0. 0. 0. 0. 0.]
2.21600604057312,0.022989310324192047,-0.010518700815737247,-0.9983504414558411,0.05154869332909584,[0. 0. 0. 0. 0. 0. 0. 0. 0.],0.0,-0.1220703125,-0.1220703125,[0. 0. 0. 0. 0. 0. 0. 0. 0.],-0.044921875,0.0234375,1.00146484375,[0. 0. 0. 0. 0. 0. 0. 0. 0.]
2.2313313484191895,0.02321067824959755,-0.010949729941785336,-0.9983417391777039,0.051528483629226685,[0. 0. 0. 0. 0. 0. 0. 0. 0.],0.0,-0.48828125,-0.06103515625,[0. 0. 0. 0. 0. 0. 0. 0. 0.],-0.04541015625,0.0244140625,1.00439453125,[0. 0. 0. 0. 0. 0. 0. 0. 0.]
2.255985736846924,0.02284887060523033,-0.010470991022884846,-0.9983575940132141,0.05148332566022873,[0. 0. 0. 0. 0. 0. 0. 0. 0.],-0.06103515625,-1.0986328125,-0.244140625,[0. 0. 0. 0. 0. 0. 0. 0. 0.],-0.044921875,0.0234375,1.0048828125,[0. 0. 0. 0. 0. 0. 0. 0. 0.]
2.2763161659240723,0.023259658366441727,-0.011190093122422695,-0.9983412623405457,0.05146424099802971,[0. 0. 0. 0. 0. 0. 0. 0. 0.],-0.06103515625,-0.91552734375,-0.244140625,[0. 0. 0. 0. 0. 0. 0. 0. 0.],-0.04541015625,0.02392578125,1.00439453125,[0. 0. 0. 0. 0. 0. 0. 0. 0.]
2.2962214946746826,0.022865405306220055,-0.01041935570538044,-0.9983612895011902,0.05141386389732361,[0. 0. 0. 0. 0. 0. 0. 0. 0.],-0.18310546875,-0.3662109375,-0.244140625,[0. 0. 0. 0. 0. 0. 0. 0. 0.],-0.044921875,0.0234375,1.00390625,[0. 0. 0. 0. 0. 0. 0. 0. 0.]
2.3159263134002686,0.02297106757760048,-0.01128544844686985,-0.9983488917350769,0.05142448842525482,[0. 0. 0. 0. 0. 0. 0. 0. 0.],-0.30517578125,-0.48828125,0.0,[0. 0. 0. 0. 0. 0. 0. 0. 0.],-0.044921875,0.02587890625,1.00537109375,[0. 0. 0. 0. 0. 0. 0. 0. 0.]
2.3360519409179688,0.02273966185748577,-0.011511698365211487,-0.9983530044555664,0.0513974204659462,[0. 0. 0. 0. 0. 0. 0. 0. 0.],-0.244140625,-0.6103515625,-0.18310546875,[0. 0. 0. 0. 0. 0. 0. 0. 0.],-0.044921875,0.02587890625,1.00341796875,[0. 0. 0. 0. 0. 0. 0. 0. 0.]
2.3560214042663574,0.022925013676285744,-0.011439656838774681,-0.9983511567115784,0.05136585608124733,[0. 0. 0. 0. 0. 0. 0. 0. 0.],0.3662109375,-0.54931640625,-0.06103515625,[0. 0. 0. 0. 0. 0. 0. 0. 0.],-0.044921875,0.02490234375,1.00537109375,[0. 0. 0. 0. 0. 0. 0. 0. 0.]
2.3789894580841064,0.022128736600279808,-0.010850909166038036,-0.9983774423599243,0.05133356153964996,[0. 0. 0. 0. 0. 0. 0. 0. 0.],0.06103515625,-0.67138671875,0.0,[0. 0. 0. 0. 0. 0. 0. 0. 0.],-0.04345703125,0.0244140625,1.0068359375,[0. 0. 0. 0. 0. 0. 0. 0. 0.]
2.3993678092956543,0.022987209260463715,-0.010835242457687855,-0.998359739780426,0.051303476095199585,[0. 0. 0. 0. 0. 0. 0. 0. 0.],-0.244140625,-0.91552734375,-0.1220703125,[0. 0. 0. 0. 0. 0. 0. 0. 0.],-0.044921875,0.0244140625,1.0048828125,[0. 0. 0. 0. 0. 0. 0. 0. 0.]
2.4111850261688232,0.023694565519690514,-0.011576170101761818,-0.9983362555503845,0.05127812549471855,[0. 0. 0. 0. 0. 0. 0. 0. 0.],-0.18310546875,-0.42724609375,-0.1220703125,[0. 0. 0. 0. 0. 0. 0. 0. 0.],-0.04638671875,0.02587890625,1.0048828125,[0. 0. 0. 0. 0. 0. 0. 0. 0.]
2.4361729621887207,0.022094206884503365,-0.011770586483180523,-0.9983706474304199,0.051277466118335724,[0. 0. 0. 0. 0. 0. 0. 0. 0.],0.06103515625,-0.30517578125,-0.06103515625,[0. 0. 0. 0. 0. 0. 0. 0. 0.],-0.04345703125,0.025390625,1.00341796875,[0. 0. 0. 0. 0. 0. 0. 0. 0.]
2.455991744995117,0.022515591233968735,-0.010824328288435936,-0.9983747601509094,0.05122235789895058,[0. 0. 0. 0. 0. 0. 0. 0. 0.],-0.1220703125,-0.91552734375,-0.1220703125,[0. 0. 0. 0. 0. 0. 0. 0. 0.],-0.04443359375,0.0244140625,1.00537109375,[0. 0. 0. 0. 0. 0. 0. 0. 0.]
2.471895933151245,0.023677047342061996,-0.011336925439536572,-0.9983436465263367,0.05119399353861809,[0. 0. 0. 0. 0. 0. 0. 0. 0.],-0.1220703125,-1.220703125,-0.30517578125,[0. 0. 0. 0. 0. 0. 0. 0. 0.],-0.04638671875,0.025390625,1.00537109375,[0. 0. 0. 0. 0. 0. 0. 0. 0.]
2.4961256980895996,0.023154890164732933,-0.011778069660067558,-0.9983511567115784,0.05118710920214653,[0. 0. 0. 0. 0. 0. 0. 0. 0.],0.0,-0.42724609375,-0.18310546875,[0. 0. 0. 0. 0. 0. 0. 0. 0.],-0.04443359375,0.02587890625,1.001953125,[0. 0. 0. 0. 0. 0. 0. 0. 0.]
2.5160486698150635,0.022886846214532852,-0.01169188879430294,-0.998358964920044,0.05117521435022354,[0. 0. 0. 0. 0. 0. 0. 0. 0.],-0.18310546875,-0.1220703125,-0.06103515625,[0. 0. 0. 0. 0. 0. 0. 0. 0.],-0.044921875,0.025390625,1.00244140625,[0. 0. 0. 0. 0. 0. 0. 0. 0.]
2.5366926193237305,0.021876152604818344,-0.010872880928218365,-0.9983923435211182,0.05114700645208359,[0. 0. 0. 0. 0. 0. 0. 0. 0.],-0.244140625,-0.67138671875,0.0,[0. 0. 0. 0. 0. 0. 0. 0. 0.],-0.04296875,0.02490234375,1.00439453125,[0. 0. 0. 0. 0. 0. 0. 0. 0.]
2.5514109134674072,0.02194809727370739,-0.010679515078663826,-0.9983958601951599,0.05108890309929848,[0. 0. 0. 0. 0. 0. 0. 0. 0.],0.18310546875,-0.9765625,-0.244140625,[0. 0. 0. 0. 0. 0. 0. 0. 0.],-0.04296875,0.0234375,1.0048828125,[0. 0. 0. 0. 0. 0. 0. 0. 0.]
2.5764973163604736,0.022325044497847557,-0.011459453031420708,-0.9983800649642944,0.05106336250901222,[0. 0. 0. 0. 0. 0. 0. 0. 0.],0.30517578125,-0.732421875,-0.30517578125,[0. 0. 0. 0. 0. 0. 0. 0. 0.],-0.04345703125,0.025390625,1.00341796875,[0. 0. 0. 0. 0. 0. 0. 0. 0.]
2.5962648391723633,0.022892512381076813,-0.011561885476112366,-0.9983669519424438,0.05104748532176018,[0. 0. 0. 0. 0. 0. 0. 0. 0.],-0.42724609375,-0.6103515625,-0.18310546875,[0. 0. 0. 0. 0. 0. 0. 0. 0.],-0.044921875,0.025390625,1.00439453125,[0. 0. 0. 0. 0. 0. 0. 0. 0.]
2.616533041000366,0.022986095398664474,-0.012431768700480461,-0.9983552098274231,0.051029451191425323,[0. 0. 0. 0. 0. 0. 0. 0. 0.],-0.48828125,-0.42724609375,-0.18310546875,[0. 0. 0. 0. 0. 0. 0. 0. 0.],-0.044921875,0.02734375,1.00439453125,[0. 0. 0. 0. 0. 0. 0. 0. 0.]
2.636566400527954,0.022569546476006508,-0.011743160896003246,-0.9983758926391602,0.05097449943423271,[0. 0. 0. 0. 0. 0. 0. 0. 0.],0.18310546875,-0.48828125,-0.1220703125,[0. 0. 0. 0. 0. 0. 0. 0. 0.],-0.0439453125,0.02587890625,1.00537109375,[0. 0. 0. 0. 0. 0. 0. 0. 0.]
2.6563291549682617,0.02289070561528206,-0.011538456194102764,-0.9983726143836975,0.05094131827354431,[0. 0. 0. 0. 0. 0. 0. 0. 0.],0.30517578125,-0.67138671875,-0.18310546875,[0. 0. 0. 0. 0. 0. 0. 0. 0.],-0.044921875,0.025390625,1.0048828125,[0. 0. 0. 0. 0. 0. 0. 0. 0.]
2.6770009994506836,0.022495759651064873,-0.01175895519554615,-0.998379647731781,0.05092964321374893,[0. 0. 0. 0. 0. 0. 0. 0. 0.],-0.18310546875,-1.03759765625,-0.18310546875,[0. 0. 0. 0. 0. 0. 0. 0. 0.],-0.0439453125,0.02587890625,1.00537109375,[0. 0. 0. 0. 0. 0. 0. 0. 0.]
2.6960275173187256,0.022930268198251724,-0.012189589440822601,-0.9983656406402588,0.0509076863527298,[0. 0. 0. 0. 0. 0. 0. 0. 0.],-0.244140625,-0.42724609375,-0.18310546875,[0. 0. 0. 0. 0. 0. 0. 0. 0.],-0.044921875,0.02685546875,1.00439453125,[0. 0. 0. 0. 0. 0. 0. 0. 0.]
2.717438220977783,0.022105466574430466,-0.012158546596765518,-0.998385488986969,0.05089307203888893,[0. 0. 0. 0. 0. 0. 0. 0. 0.],0.0,-0.18310546875,-0.06103515625,[0. 0. 0. 0. 0. 0. 0. 0. 0.],-0.04345703125,0.02685546875,1.0029296875,[0. 0. 0. 0. 0. 0. 0. 0. 0.]
2.7365241050720215,0.022362781688570976,-0.011188345029950142,-0.9983934760093689,0.05084622651338577,[0. 0. 0. 0. 0. 0. 0. 0. 0.],0.1220703125,-0.79345703125,-0.06103515625,[0. 0. 0. 0. 0. 0. 0. 0. 0.],-0.04345703125,0.0244140625,1.00244140625,[0. 0. 0. 0. 0. 0. 0. 0. 0.]
2.7572693824768066,0.02263749949634075,-0.011024459265172482,-0.9983920454978943,0.05078756809234619,[0. 0. 0. 0. 0. 0. 0. 0. 0.],0.0,-0.79345703125,-0.244140625,[0. 0. 0. 0. 0. 0. 0. 0. 0.],-0.04443359375,0.0244140625,1.00390625,[0. 0. 0. 0. 0. 0. 0. 0. 0.]
2.7762248516082764,0.022331353276968002,-0.011396093294024467,-0.9983955025672913,0.05077212303876877,[0. 0. 0. 0. 0. 0. 0. 0. 0.],0.1220703125,-0.67138671875,-0.244140625,[0. 0. 0. 0. 0. 0. 0. 0. 0.],-0.0439453125,0.025390625,1.00244140625,[0. 0. 0. 0. 0. 0. 0. 0. 0.]
2.7962474822998047,0.02255171723663807,-0.011118503287434578,-0.9983953833580017,0.05074049532413483,[0. 0. 0. 0. 0. 0. 0. 0. 0.],-0.18310546875,-0.6103515625,-0.1220703125,[0. 0. 0. 0. 0. 0. 0. 0. 0.],-0.04443359375,0.02490234375,1.00341796875,[0. 0. 0. 0. 0. 0. 0. 0. 0.]
2.8163254261016846,0.02246401086449623,-0.01172548346221447,-0.9983909726142883,0.05072959512472153,[0. 0. 0. 0. 0. 0. 0. 0. 0.],-0.6103515625,-0.6103515625,-0.244140625,[0. 0. 0. 0. 0. 0. 0. 0. 0.],-0.0439453125,0.02587890625,1.00390625,[0. 0. 0. 0. 0. 0. 0. 0. 0.]
2.8362936973571777,0.022507917135953903,-0.011545847170054913,-0.9983943104743958,0.05068560317158699,[0. 0. 0. 0. 0. 0. 0. 0. 0.],-0.18310546875,-0.48828125,-0.244140625,[0. 0. 0. 0. 0. 0. 0. 0. 0.],-0.0439453125,0.025390625,1.00439453125,[0. 0. 0. 0. 0. 0. 0. 0. 0.]
2.85734486579895,0.023150578141212463,-0.010708168148994446,-0.9983916878700256,0.05063015967607498,[0. 0. 0. 0. 0. 0. 0. 0. 0.],0.244140625,-0.67138671875,-0.1220703125,[0. 0. 0. 0. 0. 0. 0. 0. 0.],-0.044921875,0.02392578125,1.00341796875,[0. 0. 0. 0. 0. 0. 0. 0. 0.]
2.876190662384033,0.023578284308314323,-0.010220793075859547,-0.9983888268470764,0.05059116706252098,[0. 0. 0. 0. 0. 0. 0. 0. 0.],-0.1220703125,-1.0986328125,-0.18310546875,[0. 0. 0. 0. 0. 0. 0. 0. 0.],-0.04638671875,0.0234375,1.0048828125,[0. 0. 0. 0. 0. 0. 0. 0. 0.]
2.8961315155029297,0.02287752740085125,-0.011480584740638733,-0.9983900785446167,0.05061768367886543,[0. 0. 0. 0. 0. 0. 0. 0. 0.],-0.3662109375,-0.8544921875,-0.1220703125,[0. 0. 0. 0. 0. 0. 0. 0. 0.],-0.044921875,0.025390625,1.0048828125,[0. 0. 0. 0. 0. 0. 0. 0. 0.]
2.9193274974823,0.02250065468251705,-0.011460636742413044,-0.9984002113342285,0.05059196054935455,[0. 0. 0. 0. 0. 0. 0. 0. 0.],0.0,-0.18310546875,0.0,[0. 0. 0. 0. 0. 0. 0. 0. 0.],-0.0439453125,0.025390625,1.00390625,[0. 0. 0. 0. 0. 0. 0. 0. 0.]
2.931925058364868,0.02278490923345089,-0.010748941451311111,-0.9984042644500732,0.050540532916784286,[0. 0. 0. 0. 0. 0. 0. 0. 0.],0.06103515625,-0.42724609375,-0.1220703125,[0. 0. 0. 0. 0. 0. 0. 0. 0.],-0.044921875,0.02392578125,1.005859375,[0. 0. 0. 0. 0. 0. 0. 0. 0.]
2.954291343688965,0.022602906450629234,-0.01039682887494564,-0.9984134435653687,0.050515469163656235,[0. 0. 0. 0. 0. 0. 0. 0. 0.],-0.1220703125,-1.0986328125,-0.18310546875,[0. 0. 0. 0. 0. 0. 0. 0. 0.],-0.04443359375,0.02294921875,1.00537109375,[0. 0. 0. 0. 0. 0. 0. 0. 0.]
2.976208448410034,0.022456826642155647,-0.01094796322286129,-0.9984114766120911,0.050501901656389236,[0. 0. 0. 0. 0. 0. 0. 0. 0.],0.0,-1.0986328125,-0.18310546875,[0. 0. 0. 0. 0. 0. 0. 0. 0.],-0.04443359375,0.0244140625,1.00390625,[0. 0. 0. 0. 0. 0. 0. 0. 0.]
2.9983444213867188,0.022045904770493507,-0.01219535619020462,-0.9984053373336792,0.050516948103904724,[0. 0. 0. 0. 0. 0. 0. 0. 0.],-0.06103515625,-0.3662109375,-0.18310546875,[0. 0. 0. 0. 0. 0. 0. 0. 0.],-0.04345703125,0.02685546875,1.00341796875,[0. 0. 0. 0. 0. 0. 0. 0. 0.]
3.0161242485046387,0.02262895554304123,-0.011869380250573158,-0.9983984231948853,0.05047585442662239,[0. 0. 0. 0. 0. 0. 0. 0. 0.],-0.244140625,-0.244140625,-0.06103515625,[0. 0. 0. 0. 0. 0. 0. 0. 0.],-0.0439453125,0.02587890625,1.00390625,[0. 0. 0. 0. 0. 0. 0. 0. 0.]
3.0371220111846924,0.022336453199386597,-0.011611923575401306,-0.9984093308448792,0.05045048147439957,[0. 0. 0. 0. 0. 0. 0. 0. 0.],-0.1220703125,-0.67138671875,-0.06103515625,[0. 0. 0. 0. 0. 0. 0. 0. 0.],-0.0439453125,0.025390625,1.00439453125,[0. 0. 0. 0. 0. 0. 0. 0. 0.]
3.0563907623291016,0.022065922617912292,-0.011120187118649483,-0.9984228014945984,0.05041193962097168,[0. 0. 0. 0. 0. 0. 0. 0. 0.],0.18310546875,-0.8544921875,-0.1220703125,[0. 0. 0. 0. 0. 0. 0. 0. 0.],-0.04345703125,0.0244140625,1.0048828125,[0. 0. 0. 0. 0. 0. 0. 0. 0.]
3.0789387226104736,0.02234920673072338,-0.011322706937789917,-0.9984155893325806,0.05038577318191528,[0. 0. 0. 0. 0. 0. 0. 0. 0.],0.30517578125,-0.67138671875,-0.1220703125,[0. 0. 0. 0. 0. 0. 0. 0. 0.],-0.04345703125,0.0244140625,1.0078125,[0. 0. 0. 0. 0. 0. 0. 0. 0.]
3.096097946166992,0.022211885079741478,-0.011735852807760239,-0.9984142184257507,0.05037736892700195,[0. 0. 0. 0. 0. 0. 0. 0. 0.],-0.42724609375,-0.732421875,-0.30517578125,[0. 0. 0. 0. 0. 0. 0. 0. 0.],-0.04345703125,0.02587890625,1.00390625,[0. 0. 0. 0. 0. 0. 0. 0. 0.]
3.1168768405914307,0.021569469943642616,-0.010927500203251839,-0.998439610004425,0.05033651366829872,[0. 0. 0. 0. 0. 0. 0. 0. 0.],-0.244140625,-0.42724609375,-0.18310546875,[0. 0. 0. 0. 0. 0. 0. 0. 0.],-0.04248046875,0.0244140625,1.00390625,[0. 0. 0. 0. 0. 0. 0. 0. 0.]
3.136117696762085,0.02147441729903221,-0.011081444099545479,-0.9984409213066101,0.05031663551926613,[0. 0. 0. 0. 0. 0. 0. 0. 0.],0.30517578125,-0.54931640625,-0.18310546875,[0. 0. 0. 0. 0. 0. 0. 0. 0.],-0.04248046875,0.02392578125,1.00634765625,[0. 0. 0. 0. 0. 0. 0. 0. 0.]
3.1578118801116943,0.022172095254063606,-0.010831505060195923,-0.9984299540519714,0.05028711259365082,[0. 0. 0. 0. 0. 0. 0. 0. 0.],0.18310546875,-0.79345703125,-0.06103515625,[0. 0. 0. 0. 0. 0. 0. 0. 0.],-0.04345703125,0.02392578125,1.00634765625,[0. 0. 0. 0. 0. 0. 0. 0. 0.]
3.172114372253418,0.02289699949324131,-0.010974361561238766,-0.998414158821106,0.05024449899792671,[0. 0. 0. 0. 0. 0. 0. 0. 0.],-0.3662109375,-0.91552734375,-0.3662109375,[0. 0. 0. 0. 0. 0. 0. 0. 0.],-0.044921875,0.02490234375,1.00439453125,[0. 0. 0. 0. 0. 0. 0. 0. 0.]
3.196561574935913,0.023507332429289818,-0.011738860048353672,-0.9983921051025391,0.050227757543325424,[0. 0. 0. 0. 0. 0. 0. 0. 0.],-0.18310546875,-0.42724609375,-0.1220703125,[0. 0. 0. 0. 0. 0. 0. 0. 0.],-0.0458984375,0.02587890625,1.00537109375,[0. 0. 0. 0. 0. 0. 0. 0. 0.]
3.2165119647979736,0.023691436275839806,-0.011165507137775421,-0.9983967542648315,0.05018025264143944,[0. 0. 0. 0. 0. 0. 0. 0. 0.],0.06103515625,-0.244140625,-0.18310546875,[0. 0. 0. 0. 0. 0. 0. 0. 0.],-0.04638671875,0.02490234375,1.00244140625,[0. 0. 0. 0. 0. 0. 0. 0. 0.]
3.236008882522583,0.022844014689326286,-0.010495455004274845,-0.9984256029129028,0.05014435946941376,[0. 0. 0. 0. 0. 0. 0. 0. 0.],-0.06103515625,-0.79345703125,-0.18310546875,[0. 0. 0. 0. 0. 0. 0. 0. 0.],-0.044921875,0.0234375,1.0048828125,[0. 0. 0. 0. 0. 0. 0. 0. 0.]
3.2547378540039062,0.022177696228027344,-0.010831533931195736,-0.99843829870224,0.05012001469731331,[0. 0. 0. 0. 0. 0. 0. 0. 0.],0.06103515625,-0.48828125,-0.06103515625,[0. 0. 0. 0. 0. 0. 0. 0. 0.],-0.0439453125,0.0244140625,1.0048828125,[0. 0. 0. 0. 0. 0. 0. 0. 0.]
3.2763378620147705,0.02263347990810871,-0.011016972362995148,-0.9984267950057983,0.05010503530502319,[0. 0. 0. 0. 0. 0. 0. 0. 0.],0.3662109375,-0.91552734375,-0.18310546875,[0. 0. 0. 0. 0. 0. 0. 0. 0.],-0.04443359375,0.0244140625,1.00439453125,[0. 0. 0. 0. 0. 0. 0. 0. 0.]
3.297294855117798,0.02256886661052704,-0.01146283932030201,-0.9984234571456909,0.05009831488132477,[0. 0. 0. 0. 0. 0. 0. 0. 0.],-0.18310546875,-0.67138671875,-0.1220703125,[0. 0. 0. 0. 0. 0. 0. 0. 0.],-0.04443359375,0.025390625,1.00439453125,[0. 0. 0. 0. 0. 0. 0. 0. 0.]
3.3167459964752197,0.02256372570991516,-0.01160997524857521,-0.9984230995178223,0.05007576942443848,[0. 0. 0. 0. 0. 0. 0. 0. 0.],-0.30517578125,-0.732421875,-0.1220703125,[0. 0. 0. 0. 0. 0. 0. 0. 0.],-0.0439453125,0.0263671875,1.00341796875,[0. 0. 0. 0. 0. 0. 0. 0. 0.]
3.3362741470336914,0.023518025875091553,-0.01145413238555193,-0.9984049797058105,0.050032321363687515,[0. 0. 0. 0. 0. 0. 0. 0. 0.],0.1220703125,-0.42724609375,-0.06103515625,[0. 0. 0. 0. 0. 0. 0. 0. 0.],-0.0458984375,0.025390625,1.00390625,[0. 0. 0. 0. 0. 0. 0. 0. 0.]
3.356105327606201,0.02272196114063263,-0.011087377555668354,-0.9984290599822998,0.05000195652246475,[0. 0. 0. 0. 0. 0. 0. 0. 0.],0.42724609375,-0.732421875,-0.18310546875,[0. 0. 0. 0. 0. 0. 0. 0. 0.],-0.044921875,0.02490234375,1.00830078125,[0. 0. 0. 0. 0. 0. 0. 0. 0.]
3.377600908279419,0.022828754037618637,-0.010606622323393822,-0.9984346628189087,0.04994545876979828,[0. 0. 0. 0. 0. 0. 0. 0. 0.],-0.18310546875,-1.03759765625,-0.18310546875,[0. 0. 0. 0. 0. 0. 0. 0. 0.],-0.044921875,0.0234375,1.00341796875,[0. 0. 0. 0. 0. 0. 0. 0. 0.]
3.3961215019226074,0.023165525868535042,-0.01095641776919365,-0.99842369556427,0.04993407800793648,[0. 0. 0. 0. 0. 0. 0. 0. 0.],-0.48828125,-0.6103515625,-0.18310546875,[0. 0. 0. 0. 0. 0. 0. 0. 0.],-0.04541015625,0.02392578125,1.0029296875,[0. 0. 0. 0. 0. 0. 0. 0. 0.]
3.416179656982422,0.022948112338781357,-0.011065208353102207,-0.9984287619590759,0.04990936070680618,[0. 0. 0. 0. 0. 0. 0. 0. 0.],-0.06103515625,-0.06103515625,-0.1220703125,[0. 0. 0. 0. 0. 0. 0. 0. 0.],-0.044921875,0.0244140625,1.00390625,[0. 0. 0. 0. 0. 0. 0. 0. 0.]
3.4345884323120117,0.022574957460165024,-0.011940745636820793,-0.998427152633667,0.049911659210920334,[0. 0. 0. 0. 0. 0. 0. 0. 0.],0.1220703125,-0.54931640625,0.06103515625,[0. 0. 0. 0. 0. 0. 0. 0. 0.],-0.0439453125,0.0263671875,1.0029296875,[0. 0. 0. 0. 0. 0. 0. 0. 0.]
3.45638370513916,0.02227056585252285,-0.01192772202193737,-0.998436450958252,0.049865785986185074,[0. 0. 0. 0. 0. 0. 0. 0. 0.],0.0,-1.15966796875,-0.3662109375,[0. 0. 0. 0. 0. 0. 0. 0. 0.],-0.04345703125,0.0244140625,1.00439453125,[0. 0. 0. 0. 0. 0. 0. 0. 0.]
3.476253032684326,0.02213197574019432,-0.011015382595360279,-0.9984525442123413,0.049814630299806595,[0. 0. 0. 0. 0. 0. 0. 0. 0.],-0.06103515625,-0.91552734375,-0.244140625,[0. 0. 0. 0. 0. 0. 0. 0. 0.],-0.0439453125,0.02392578125,1.00341796875,[0. 0. 0. 0. 0. 0. 0. 0. 0.]
3.4964675903320312,0.02135610580444336,-0.011613660492002964,-0.9984631538391113,0.04980484023690224,[0. 0. 0. 0. 0. 0. 0. 0. 0.],0.06103515625,-0.3662109375,-0.18310546875,[0. 0. 0. 0. 0. 0. 0. 0. 0.],-0.0419921875,0.025390625,1.0048828125,[0. 0. 0. 0. 0. 0. 0. 0. 0.]
3.5161612033843994,0.022395674139261246,-0.010543826036155224,-0.9984554052352905,0.049741026014089584,[0. 0. 0. 0. 0. 0. 0. 0. 0.],-0.3662109375,-0.42724609375,-0.1220703125,[0. 0. 0. 0. 0. 0. 0. 0. 0.],-0.0439453125,0.0234375,1.00390625,[0. 0. 0. 0. 0. 0. 0. 0. 0.]
3.5360820293426514,0.022853020578622818,-0.010731272399425507,-0.9984449744224548,0.04970095679163933,[0. 0. 0. 0. 0. 0. 0. 0. 0.],0.0,-0.79345703125,-0.18310546875,[0. 0. 0. 0. 0. 0. 0. 0. 0.],-0.044921875,0.0234375,1.00439453125,[0. 0. 0. 0. 0. 0. 0. 0. 0.]
3.55623722076416,0.022886119782924652,-0.011040647514164448,-0.9984424114227295,0.04967064410448074,[0. 0. 0. 0. 0. 0. 0. 0. 0.],0.244140625,-0.67138671875,-0.244140625,[0. 0. 0. 0. 0. 0. 0. 0. 0.],-0.044921875,0.02490234375,1.005859375,[0. 0. 0. 0. 0. 0. 0. 0. 0.]
3.5758774280548096,0.02349947951734066,-0.011680729687213898,-0.998421847820282,0.04965183511376381,[0. 0. 0. 0. 0. 0. 0. 0. 0.],0.06103515625,-0.732421875,-0.18310546875,[0. 0. 0. 0. 0. 0. 0. 0. 0.],-0.04541015625,0.025390625,1.00341796875,[0. 0. 0. 0. 0. 0. 0. 0. 0.]
3.5984463691711426,0.023484842851758003,-0.011529965326189995,-0.9984256625175476,0.049617867916822433,[0. 0. 0. 0. 0. 0. 0. 0. 0.],-0.54931640625,-0.54931640625,-0.244140625,[0. 0. 0. 0. 0. 0. 0. 0. 0.],-0.0458984375,0.025390625,1.0029296875,[0. 0. 0. 0. 0. 0. 0. 0. 0.]
3.6161551475524902,0.022962726652622223,-0.01085981447249651,-0.9984475374221802,0.049571916460990906,[0. 0. 0. 0. 0. 0. 0. 0. 0.],-0.244140625,-0.54931640625,-0.18310546875,[0. 0. 0. 0. 0. 0. 0. 0. 0.],-0.044921875,0.0244140625,1.00390625,[0. 0. 0. 0. 0. 0. 0. 0. 0.]
3.6363134384155273,0.022565597668290138,-0.011808633804321289,-0.9984460473060608,0.04956803470849991,[0. 0. 0. 0. 0. 0. 0. 0. 0.],0.244140625,-0.6103515625,-0.18310546875,[0. 0. 0. 0. 0. 0. 0. 0. 0.],-0.04443359375,0.0263671875,1.0048828125,[0. 0. 0. 0. 0. 0. 0. 0. 0.]
3.656006097793579,0.022403443232178688,-0.011318613775074482,-0.9984568953514099,0.04953631013631821,[0. 0. 0. 0. 0. 0. 0. 0. 0.],-0.1220703125,-0.91552734375,-0.18310546875,[0. 0. 0. 0. 0. 0. 0. 0. 0.],-0.0439453125,0.0244140625,1.005859375,[0. 0. 0. 0. 0. 0. 0. 0. 0.]
3.673377275466919,0.02309812791645527,-0.01139803696423769,-0.9984418749809265,0.04950213432312012,[0. 0. 0. 0. 0. 0. 0. 0. 0.],-0.42724609375,-0.8544921875,-0.1220703125,[0. 0. 0. 0. 0. 0. 0. 0. 0.],-0.04443359375,0.02490234375,1.001953125,[0. 0. 0. 0. 0. 0. 0. 0. 0.]
3.6962039470672607,0.02269495278596878,-0.011618943884968758,-0.9984485507011414,0.04950079694390297,[0. 0. 0. 0. 0. 0. 0. 0. 0.],-0.06103515625,-0.1220703125,0.0,[0. 0. 0. 0. 0. 0. 0. 0. 0.],-0.04443359375,0.02587890625,1.001953125,[0. 0. 0. 0. 0. 0. 0. 0. 0.]
3.716045618057251,0.023093385621905327,-0.012163490056991577,-0.9984336495399475,0.049489252269268036,[0. 0. 0. 0. 0. 0. 0. 0. 0.],-0.30517578125,-0.3662109375,-0.06103515625,[0. 0. 0. 0. 0. 0. 0. 0. 0.],-0.044921875,0.0263671875,1.0048828125,[0. 0. 0. 0. 0. 0. 0. 0. 0.]
3.7375738620758057,0.023182827979326248,-0.0120066087692976,-0.9984359741210938,0.04943731427192688,[0. 0. 0. 0. 0. 0. 0. 0. 0.],-0.48828125,-0.48828125,-0.1220703125,[0. 0. 0. 0. 0. 0. 0. 0. 0.],-0.0458984375,0.0263671875,1.001953125,[0. 0. 0. 0. 0. 0. 0. 0. 0.]
3.756749391555786,0.02248838171362877,-0.010910023003816605,-0.9984668493270874,0.04938963055610657,[0. 0. 0. 0. 0. 0. 0. 0. 0.],0.244140625,-0.8544921875,-0.30517578125,[0. 0. 0. 0. 0. 0. 0. 0. 0.],-0.0439453125,0.02392578125,1.005859375,[0. 0. 0. 0. 0. 0. 0. 0. 0.]
3.779762029647827,0.022962093353271484,-0.010757303796708584,-0.9984596967697144,0.04934867098927498,[0. 0. 0. 0. 0. 0. 0. 0. 0.],0.18310546875,-0.79345703125,-0.18310546875,[0. 0. 0. 0. 0. 0. 0. 0. 0.],-0.044921875,0.0244140625,1.00537109375,[0. 0. 0. 0. 0. 0. 0. 0. 0.]
3.7992305755615234,0.0232121292501688,-0.011292223818600178,-0.9984493255615234,0.04932236298918724,[0. 0. 0. 0. 0. 0. 0. 0. 0.],-0.48828125,-0.67138671875,-0.244140625,[0. 0. 0. 0. 0. 0. 0. 0. 0.],-0.04541015625,0.02490234375,1.0029296875,[0. 0. 0. 0. 0. 0. 0. 0. 0.]
3.8167598247528076,0.022393176332116127,-0.011470840312540531,-0.9984664916992188,0.04931271821260452,[0. 0. 0. 0. 0. 0. 0. 0. 0.],-0.42724609375,-0.48828125,-0.06103515625,[0. 0. 0. 0. 0. 0. 0. 0. 0.],-0.0439453125,0.025390625,1.0029296875,[0. 0. 0. 0. 0. 0. 0. 0. 0.]
3.8363733291625977,0.022216828539967537,-0.011273479089140892,-0.9984748959541321,0.04926765337586403,[0. 0. 0. 0. 0. 0. 0. 0. 0.],0.06103515625,-0.3662109375,-0.1220703125,[0. 0. 0. 0. 0. 0. 0. 0. 0.],-0.04345703125,0.0244140625,1.00390625,[0. 0. 0. 0. 0. 0. 0. 0. 0.]
3.8611624240875244,0.022324418649077415,-0.010696160607039928,-0.9984817504882812,0.04920806735754013,[0. 0. 0. 0. 0. 0. 0. 0. 0.],0.244140625,-0.79345703125,-0.18310546875,[0. 0. 0. 0. 0. 0. 0. 0. 0.],-0.0439453125,0.02392578125,1.0048828125,[0. 0. 0. 0. 0. 0. 0. 0. 0.]
3.884709119796753,0.023033279925584793,-0.012023079209029675,-0.9984511733055115,0.0491965189576149,[0. 0. 0. 0. 0. 0. 0. 0. 0.],-0.18310546875,-1.03759765625,-0.18310546875,[0. 0. 0. 0. 0. 0. 0. 0. 0.],-0.04541015625,0.02685546875,1.0048828125,[0. 0. 0. 0. 0. 0. 0. 0. 0.]
3.8979716300964355,0.022832611575722694,-0.010103262029588223,-0.9984796643257141,0.049143657088279724,[0. 0. 0. 0. 0. 0. 0. 0. 0.],-8.4228515625,0.48828125,-0.18310546875,[0. 0. 0. 0. 0. 0. 0. 0. 0.],-0.04150390625,-0.0537109375,0.9482421875,[0. 0. 0. 0. 0. 0. 0. 0. 0.]
3.916144609451294,0.023035258054733276,-0.006058122031390667,-0.9985077977180481,0.04914155602455139,[0. 0. 0. 0. 0. 0. 0. 0. 0.],-10.986328125,-1.5869140625,-4.08935546875,[0. 0. 0. 0. 0. 0. 0. 0. 0.],-0.01220703125,-0.3837890625,1.0166015625,[0. 0. 0. 0. 0. 0. 0. 0. 0.]
3.9363114833831787,0.02350601740181446,-0.004340543877333403,-0.9985434412956238,0.048369769006967545,[0. 0. 0. 0. 0. 0. 0. 0. 0.],1.0986328125,3.72314453125,-6.16455078125,[0. 0. 0. 0. 0. 0. 0. 0. 0.],-0.03759765625,-0.24853515625,1.10107421875,[0. 0. 0. 0. 0. 0. 0. 0. 0.]
3.9560091495513916,0.023619571700692177,-0.0025150319561362267,-0.9986306428909302,0.04661300778388977,[0. 0. 0. 0. 0. 0. 0. 0. 0.],-2.62451171875,1.708984375,-9.21630859375,[0. 0. 0. 0. 0. 0. 0. 0. 0.],-0.08984375,-0.28759765625,0.990234375,[0. 0. 0. 0. 0. 0. 0. 0. 0.]
3.971642017364502,0.023907240480184555,-0.0008041011169552803,-0.9987133145332336,0.04471684992313385,[0. 0. 0. 0. 0. 0. 0. 0. 0.],-2.5634765625,2.01416015625,-11.8408203125,[0. 0. 0. 0. 0. 0. 0. 0. 0.],-0.09716796875,-0.287109375,0.970703125,[0. 0. 0. 0. 0. 0. 0. 0. 0.]
3.9965710639953613,0.023557275533676147,0.0013024852378293872,-0.9988420605659485,0.04192931205034256,[0. 0. 0. 0. 0. 0. 0. 0. 0.],-2.38037109375,-5.67626953125,-20.8740234375,[0. 0. 0. 0. 0. 0. 0. 0. 0.],-0.06494140625,-0.26708984375,0.98486328125,[0. 0. 0. 0. 0. 0. 0. 0. 0.]
4.016330718994141,0.02309228666126728,0.0033886469900608063,-0.9990108013153076,0.03785039111971855,[0. 0. 0. 0. 0. 0. 0. 0. 0.],-1.708984375,-1.03759765625,-25.45166015625,[0. 0. 0. 0. 0. 0. 0. 0. 0.],-0.05419921875,-0.26318359375,0.9736328125,[0. 0. 0. 0. 0. 0. 0. 0. 0.]
4.036233425140381,0.022980235517024994,0.005573867820203304,-0.9991797804832458,0.03287186101078987,[0. 0. 0. 0. 0. 0. 0. 0. 0.],-2.9296875,-3.5400390625,-31.005859375,[0. 0. 0. 0. 0. 0. 0. 0. 0.],-0.08154296875,-0.2705078125,0.9560546875,[0. 0. 0. 0. 0. 0. 0. 0. 0.]
4.0563530921936035,0.022336618974804878,0.00797861535102129,-0.9993583559989929,0.026838265359401703,[0. 0. 0. 0. 0. 0. 0. 0. 0.],-3.0517578125,-3.60107421875,-36.62109375,[0. 0. 0. 0. 0. 0. 0. 0. 0.],-0.0771484375,-0.26904296875,0.95849609375,[0. 0. 0. 0. 0. 0. 0. 0. 0.]
4.076006174087524,0.022801078855991364,0.010545134544372559,-0.9994773268699646,0.020345060154795647,[0. 0. 0. 0. 0. 0. 0. 0. 0.],-4.39453125,-1.953125,-40.771484375,[0. 0. 0. 0. 0. 0. 0. 0. 0.],-0.05615234375,-0.30615234375,0.990234375,[0. 0. 0. 0. 0. 0. 0. 0. 0.]
4.096154689788818,0.02331186830997467,0.013035327196121216,-0.9995530247688293,0.013436347246170044,[0. 0. 0. 0. 0. 0. 0. 0. 0.],-3.41796875,5.0048828125,-40.4052734375,[0. 0. 0. 0. 0. 0. 0. 0. 0.],-0.0615234375,-0.3154296875,0.9697265625,[0. 0. 0. 0. 0. 0. 0. 0. 0.]
4.1162824630737305,0.025235440582036972,0.015158450230956078,-0.9995458722114563,0.0064412071369588375,[0. 0. 0. 0. 0. 0. 0. 0. 0.],-2.44140625,9.6435546875,-39.36767578125,[0. 0. 0. 0. 0. 0. 0. 0. 0.],-0.06591796875,-0.33642578125,1.0078125,[0. 0. 0. 0. 0. 0. 0. 0. 0.]
4.1383373737335205,0.025000905618071556,0.01711481623351574,-0.9995406270027161,-0.0008568735793232918,[0. 0. 0. 0. 0. 0. 0. 0. 0.],-0.67138671875,1.5869140625,-39.36767578125,[0. 0. 0. 0. 0. 0. 0. 0. 0.],-0.1142578125,-0.35400390625,1.09765625,[0. 0. 0. 0. 0. 0. 0. 0. 0.]
4.156325340270996,0.02503916807472706,0.018963171169161797,-0.9994781017303467,-0.007549467030912638,[0. 0. 0. 0. 0. 0. 0. 0. 0.],0.42724609375,2.25830078125,-35.400390625,[0. 0. 0. 0. 0. 0. 0. 0. 0.],-0.076171875,-0.37353515625,1.07666015625,[0. 0. 0. 0. 0. 0. 0. 0. 0.]
4.178819417953491,0.024203449487686157,0.02039533108472824,-0.9994150996208191,-0.012952806428074837,[0. 0. 0. 0. 0. 0. 0. 0. 0.],2.38037109375,-13.7939453125,-28.38134765625,[0. 0. 0. 0. 0. 0. 0. 0. 0.],-0.11083984375,-0.341796875,0.90576171875,[0. 0. 0. 0. 0. 0. 0. 0. 0.]
4.197258234024048,0.02430903911590576,0.02180485799908638,-0.9993329048156738,-0.01635243371129036,[0. 0. 0. 0. 0. 0. 0. 0. 0.],2.74658203125,5.126953125,-14.83154296875,[0. 0. 0. 0. 0. 0. 0. 0. 0.],-0.03515625,-0.34033203125,0.90283203125,[0. 0. 0. 0. 0. 0. 0. 0. 0.]
4.216055631637573,0.02541942708194256,0.02329530194401741,-0.9992430806159973,-0.018015146255493164,[0. 0. 0. 0. 0. 0. 0. 0. 0.],-3.84521484375,11.962890625,-5.67626953125,[0. 0. 0. 0. 0. 0. 0. 0. 0.],-0.03369140625,-0.27978515625,0.89208984375,[0. 0. 0. 0. 0. 0. 0. 0. 0.]
4.238333702087402,0.023752959445118904,0.02645980939269066,-0.9991912245750427,-0.018778547644615173,[0. 0. 0. 0. 0. 0. 0. 0. 0.],-2.62451171875,-10.3759765625,-0.8544921875,[0. 0. 0. 0. 0. 0. 0. 0. 0.],-0.13134765625,-0.35400390625,1.0927734375,[0. 0. 0. 0. 0. 0. 0. 0. 0.]
4.2561354637146,0.023557275533676147,0.02787352353334427,-0.9991565942764282,-0.018818460404872894,[0. 0. 0. 0. 0. 0. 0. 0. 0.],-1.89208984375,-4.82177734375,-1.708984375,[0. 0. 0. 0. 0. 0. 0. 0. 0.],-0.02978515625,-0.357421875,1.1298828125,[0. 0. 0. 0. 0. 0. 0. 0. 0.]
4.276255130767822,0.024005940183997154,0.029144398868083954,-0.9991058111190796,-0.01902374066412449,[0. 0. 0. 0. 0. 0. 0. 0. 0.],1.64794921875,4.39453125,-1.708984375,[0. 0. 0. 0. 0. 0. 0. 0. 0.],-0.0048828125,-0.30712890625,0.9794921875,[0. 0. 0. 0. 0. 0. 0. 0. 0.]
4.296021461486816,0.026346879079937935,0.03090139664709568,-0.9989809393882751,-0.019698431715369225,[0. 0. 0. 0. 0. 0. 0. 0. 0.],-4.0283203125,21.05712890625,-5.37109375,[0. 0. 0. 0. 0. 0. 0. 0. 0.],-0.02490234375,-0.271484375,0.86328125,[0. 0. 0. 0. 0. 0. 0. 0. 0.]
4.311798095703125,0.027285998687148094,0.03199858218431473,-0.9988642930984497,-0.02240201085805893,[0. 0. 0. 0. 0. 0. 0. 0. 0.],6.103515625,0.9765625,-21.240234375,[0. 0. 0. 0. 0. 0. 0. 0. 0.],-0.10595703125,-0.3408203125,1.09716796875,[0. 0. 0. 0. 0. 0. 0. 0. 0.]
4.336553573608398,0.02855728380382061,0.031163252890110016,-0.9987156987190247,-0.02793399803340435,[0. 0. 0. 0. 0. 0. 0. 0. 0.],14.6484375,12.75634765625,-36.68212890625,[0. 0. 0. 0. 0. 0. 0. 0. 0.],-0.072265625,-0.29833984375,1.12939453125,[0. 0. 0. 0. 0. 0. 0. 0. 0.]
4.35386323928833,0.030225805938243866,0.030225012451410294,-0.998448371887207,-0.03569125011563301,[0. 0. 0. 0. 0. 0. 0. 0. 0.],5.92041015625,2.38037109375,-48.03466796875,[0. 0. 0. 0. 0. 0. 0. 0. 0.],-0.2626953125,-0.115234375,0.91357421875,[0. 0. 0. 0. 0. 0. 0. 0. 0.]
4.376076698303223,0.03276508301496506,0.029561901465058327,-0.9980093836784363,-0.04505392163991928,[0. 0. 0. 0. 0. 0. 0. 0. 0.],8.72802734375,9.1552734375,-58.53271484375,[0. 0. 0. 0. 0. 0. 0. 0. 0.],-0.21435546875,-0.0888671875,0.98095703125,[0. 0. 0. 0. 0. 0. 0. 0. 0.]
4.399450063705444,0.03796865791082382,0.03021487034857273,-0.9972454309463501,-0.05609925091266632,[0. 0. 0. 0. 0. 0. 0. 0. 0.],-3.72314453125,26.611328125,-66.7724609375,[0. 0. 0. 0. 0. 0. 0. 0. 0.],-0.1865234375,-0.1005859375,0.85693359375,[0. 0. 0. 0. 0. 0. 0. 0. 0.]
4.419161319732666,0.03830089047551155,0.03125765547156334,-0.9964114427566528,-0.0687052384018898,[0. 0. 0. 0. 0. 0. 0. 0. 0.],-0.06103515625,-16.05224609375,-72.69287109375,[0. 0. 0. 0. 0. 0. 0. 0. 0.],-0.4482421875,-0.13427734375,0.978515625,[0. 0. 0. 0. 0. 0. 0. 0. 0.]
4.439938545227051,0.040125031024217606,0.03094935044646263,-0.9950152039527893,-0.08588963001966476,[0. 0. 0. 0. 0. 0. 0. 0. 0.],7.26318359375,14.6484375,-80.9326171875,[0. 0. 0. 0. 0. 0. 0. 0. 0.],-0.1669921875,-0.06591796875,1.08837890625,[0. 0. 0. 0. 0. 0. 0. 0. 0.]
4.451315402984619,0.041228264570236206,0.02991609275341034,-0.9939548373222351,-0.097258061170578,[0. 0. 0. 0. 0. 0. 0. 0. 0.],6.16455078125,-3.0517578125,-90.8203125,[0. 0. 0. 0. 0. 0. 0. 0. 0.],-0.23388671875,-0.02001953125,0.9189453125,[0. 0. 0. 0. 0. 0. 0. 0. 0.]
4.477876901626587,0.044885896146297455,0.03151601180434227,-0.9916484355926514,-0.11672736704349518,[0. 0. 0. 0. 0. 0. 0. 0. 0.],-8.9111328125,17.63916015625,-89.05029296875,[0. 0. 0. 0. 0. 0. 0. 0. 0.],-0.1923828125,-0.087890625,0.9443359375,[0. 0. 0. 0. 0. 0. 0. 0. 0.]
4.496565818786621,0.04564135521650314,0.03146997094154358,-0.9902098178863525,-0.12810580432415009,[0. 0. 0. 0. 0. 0. 0. 0. 0.],6.34765625,-5.0048828125,-87.158203125,[0. 0. 0. 0. 0. 0. 0. 0. 0.],-0.22607421875,-0.0517578125,1.2119140625,[0. 0. 0. 0. 0. 0. 0. 0. 0.]
4.5177319049835205,0.04503658413887024,0.029021354392170906,-0.9878261089324951,-0.14604471623897552,[0. 0. 0. 0. 0. 0. 0. 0. 0.],10.92529296875,-3.0517578125,-79.16259765625,[0. 0. 0. 0. 0. 0. 0. 0. 0.],-0.1787109375,0.033203125,1.09521484375,[0. 0. 0. 0. 0. 0. 0. 0. 0.]
4.535994052886963,0.04464586079120636,0.027656732127070427,-0.9864470362663269,-0.15544788539409637,[0. 0. 0. 0. 0. 0. 0. 0. 0.],7.50732421875,-4.7607421875,-69.091796875,[0. 0. 0. 0. 0. 0. 0. 0. 0.],-0.18701171875,0.0517578125,0.94384765625,[0. 0. 0. 0. 0. 0. 0. 0. 0.]
4.5640339851379395,0.04303230717778206,0.02622833661735058,-0.9842411875724792,-0.16949814558029175,[0. 0. 0. 0. 0. 0. 0. 0. 0.],-2.0751953125,-9.8876953125,-42.29736328125,[0. 0. 0. 0. 0. 0. 0. 0. 0.],-0.2265625,0.07177734375,0.89013671875,[0. 0. 0. 0. 0. 0. 0. 0. 0.]
4.576749801635742,0.04365283250808716,0.0246039517223835,-0.983476459980011,-0.17396286129951477,[0. 0. 0. 0. 0. 0. 0. 0. 0.],7.568359375,8.544921875,-31.43310546875,[0. 0. 0. 0. 0. 0. 0. 0. 0.],-0.0703125,0.06640625,1.0849609375,[0. 0. 0. 0. 0. 0. 0. 0. 0.]
4.59624719619751,0.04316819831728935,0.021517110988497734,-0.9829872846603394,-0.17722731828689575,[0. 0. 0. 0. 0. 0. 0. 0. 0.],16.17431640625,-7.32421875,-21.3623046875,[0. 0. 0. 0. 0. 0. 0. 0. 0.],-0.11865234375,0.17578125,1.06201171875,[0. 0. 0. 0. 0. 0. 0. 0. 0.]
4.616363286972046,0.04035528376698494,0.018389549106359482,-0.9826574325561523,-0.18004947900772095,[0. 0. 0. 0. 0. 0. 0. 0. 0.],10.43701171875,-15.07568359375,-16.7236328125,[0. 0. 0. 0. 0. 0. 0. 0. 0.],-0.1455078125,0.31640625,1.01953125,[0. 0. 0. 0. 0. 0. 0. 0. 0.]
4.633647680282593,0.038998860865831375,0.016169043257832527,-0.9822762608528137,-0.1826225072145462,[0. 0. 0. 0. 0. 0. 0. 0. 0.],5.2490234375,-3.35693359375,-15.0146484375,[0. 0. 0. 0. 0. 0. 0. 0. 0.],-0.05908203125,0.3115234375,0.9384765625,[0. 0. 0. 0. 0. 0. 0. 0. 0.]
4.654855966567993,0.03890448808670044,0.014464857056736946,-0.9818459749221802,-0.18508337438106537,[0. 0. 0. 0. 0. 0. 0. 0. 0.],-2.197265625,5.31005859375,-15.19775390625,[0. 0. 0. 0. 0. 0. 0. 0. 0.],-0.119140625,0.32568359375,0.95947265625,[0. 0. 0. 0. 0. 0. 0. 0. 0.]
4.676665782928467,0.03935926407575607,0.013077461160719395,-0.9811619520187378,-0.18868257105350494,[0. 0. 0. 0. 0. 0. 0. 0. 0.],2.25830078125,-0.79345703125,-26.30615234375,[0. 0. 0. 0. 0. 0. 0. 0. 0.],-0.16552734375,0.33984375,1.02001953125,[0. 0. 0. 0. 0. 0. 0. 0. 0.]
4.691451787948608,0.039592090994119644,0.010143529623746872,-0.980004072189331,-0.19473488628864288,[0. 0. 0. 0. 0. 0. 0. 0. 0.],10.31494140625,6.8359375,-40.4052734375,[0. 0. 0. 0. 0. 0. 0. 0. 0.],-0.13134765625,0.34228515625,1.06396484375,[0. 0. 0. 0. 0. 0. 0. 0. 0.]
4.716273069381714,0.04084889963269234,0.007516743149608374,-0.9783222079277039,-0.20288091897964478,[0. 0. 0. 0. 0. 0. 0. 0. 0.],4.08935546875,8.1787109375,-51.81884765625,[0. 0. 0. 0. 0. 0. 0. 0. 0.],-0.1298828125,0.3857421875,0.99755859375,[0. 0. 0. 0. 0. 0. 0. 0. 0.]
4.736088037490845,0.04162036255002022,0.006032935809344053,-0.9761767387390137,-0.21286222338676453,[0. 0. 0. 0. 0. 0. 0. 0. 0.],1.89208984375,2.44140625,-63.65966796875,[0. 0. 0. 0. 0. 0. 0. 0. 0.],-0.15673828125,0.37744140625,1.0419921875,[0. 0. 0. 0. 0. 0. 0. 0. 0.]
4.756131887435913,0.04190150648355484,0.004821402486413717,-0.9735522866249084,-0.22453734278678894,[0. 0. 0. 0. 0. 0. 0. 0. 0.],-1.220703125,2.0751953125,-72.75390625,[0. 0. 0. 0. 0. 0. 0. 0. 0.],-0.1826171875,0.37890625,1.00439453125,[0. 0. 0. 0. 0. 0. 0. 0. 0.]
4.776083946228027,0.043252285569906235,0.003708518808707595,-0.9706668853759766,-0.2364768385887146,[0. 0. 0. 0. 0. 0. 0. 0. 0.],1.77001953125,1.28173828125,-70.6787109375,[0. 0. 0. 0. 0. 0. 0. 0. 0.],-0.3369140625,0.23291015625,1.04638671875,[0. 0. 0. 0. 0. 0. 0. 0. 0.]
4.796125650405884,0.04408017545938492,0.0029988621827214956,-0.9677979350090027,-0.2478208690881729,[0. 0. 0. 0. 0. 0. 0. 0. 0.],-0.06103515625,0.8544921875,-66.34521484375,[0. 0. 0. 0. 0. 0. 0. 0. 0.],-0.35302734375,0.13525390625,1.03271484375,[0. 0. 0. 0. 0. 0. 0. 0. 0.]
4.81629204750061,0.043301671743392944,0.001282834797166288,-0.9649143218994141,-0.25896650552749634,[0. 0. 0. 0. 0. 0. 0. 0. 0.],8.11767578125,-5.615234375,-65.49072265625,[0. 0. 0. 0. 0. 0. 0. 0. 0.],-0.18115234375,0.16552734375,1.0478515625,[0. 0. 0. 0. 0. 0. 0. 0. 0.]
4.83686900138855,0.04272777959704399,-0.0010356309358030558,-0.9619763493537903,-0.26976802945137024,[0. 0. 0. 0. 0. 0. 0. 0. 0.],8.7890625,1.40380859375,-63.53759765625,[0. 0. 0. 0. 0. 0. 0. 0. 0.],-0.08984375,0.19482421875,0.92529296875,[0. 0. 0. 0. 0. 0. 0. 0. 0.]
4.856693744659424,0.04221956804394722,-0.002724612131714821,-0.9590234160423279,-0.28015047311782837,[0. 0. 0. 0. 0. 0. 0. 0. 0.],-1.77001953125,0.54931640625,-60.97412109375,[0. 0. 0. 0. 0. 0. 0. 0. 0.],-0.13232421875,0.2587890625,0.9443359375,[0. 0. 0. 0. 0. 0. 0. 0. 0.]
4.876521348953247,0.042146146297454834,-0.0036711394786834717,-0.9560183882713318,-0.2902398109436035,[0. 0. 0. 0. 0. 0. 0. 0. 0.],-0.79345703125,-1.708984375,-60.60791015625,[0. 0. 0. 0. 0. 0. 0. 0. 0.],-0.12744140625,0.24658203125,1.06201171875,[0. 0. 0. 0. 0. 0. 0. 0. 0.]
4.896035432815552,0.04141848906874657,-0.005320108961313963,-0.9530434012413025,-0.29994073510169983,[0. 0. 0. 0. 0. 0. 0. 0. 0.],7.9345703125,-0.732421875,-57.80029296875,[0. 0. 0. 0. 0. 0. 0. 0. 0.],-0.11572265625,0.20751953125,1.08349609375,[0. 0. 0. 0. 0. 0. 0. 0. 0.]
4.915913820266724,0.041273925453424454,-0.007844489999115467,-0.9500992894172668,-0.3091058135032654,[0. 0. 0. 0. 0. 0. 0. 0. 0.],7.080078125,5.67626953125,-53.5888671875,[0. 0. 0. 0. 0. 0. 0. 0. 0.],-0.10205078125,0.21826171875,0.95361328125,[0. 0. 0. 0. 0. 0. 0. 0. 0.]
4.936079263687134,0.040273554623126984,-0.010007968172430992,-0.9472751021385193,-0.31772279739379883,[0. 0. 0. 0. 0. 0. 0. 0. 0.],1.52587890625,-1.40380859375,-50.47607421875,[0. 0. 0. 0. 0. 0. 0. 0. 0.],-0.130859375,0.33154296875,0.884765625,[0. 0. 0. 0. 0. 0. 0. 0. 0.]
4.952901840209961,0.04066048935055733,-0.01092767994850874,-0.94448322057724,-0.32585087418556213,[0. 0. 0. 0. 0. 0. 0. 0. 0.],-2.86865234375,0.6103515625,-49.98779296875,[0. 0. 0. 0. 0. 0. 0. 0. 0.],-0.095703125,0.3505859375,1.01513671875,[0. 0. 0. 0. 0. 0. 0. 0. 0.]
4.976095199584961,0.04049363732337952,-0.011864466592669487,-0.9418231248855591,-0.3334499001502991,[0. 0. 0. 0. 0. 0. 0. 0. 0.],-0.42724609375,-0.30517578125,-45.41015625,[0. 0. 0. 0. 0. 0. 0. 0. 0.],-0.1259765625,0.30810546875,1.0947265625,[0. 0. 0. 0. 0. 0. 0. 0. 0.]
4.996472120285034,0.04031051695346832,-0.013042534701526165,-0.9394645690917969,-0.34001654386520386,[0. 0. 0. 0. 0. 0. 0. 0. 0.],-3.2958984375,1.5869140625,-36.7431640625,[0. 0. 0. 0. 0. 0. 0. 0. 0.],-0.14208984375,0.2060546875,1.00244140625,[0. 0. 0. 0. 0. 0. 0. 0. 0.]
5.019046068191528,0.040523819625377655,-0.014485129155218601,-0.9368289709091187,-0.34713050723075867,[0. 0. 0. 0. 0. 0. 0. 0. 0.],4.150390625,-4.69970703125,-33.87451171875,[0. 0. 0. 0. 0. 0. 0. 0. 0.],-0.12841796875,0.06396484375,0.9951171875,[0. 0. 0. 0. 0. 0. 0. 0. 0.]
5.036030530929565,0.039971478283405304,-0.015973106026649475,-0.9352979063987732,-0.3512336313724518,[0. 0. 0. 0. 0. 0. 0. 0. 0.],5.126953125,-1.64794921875,-33.935546875,[0. 0. 0. 0. 0. 0. 0. 0. 0.],-0.0927734375,0.09521484375,1.04736328125,[0. 0. 0. 0. 0. 0. 0. 0. 0.]
5.056049346923828,0.03931710124015808,-0.01767871156334877,-0.9332112669944763,-0.35673293471336365,[0. 0. 0. 0. 0. 0. 0. 0. 0.],0.18310546875,1.3427734375,-33.69140625,[0. 0. 0. 0. 0. 0. 0. 0. 0.],-0.0654296875,0.12744140625,1.00927734375,[0. 0. 0. 0. 0. 0. 0. 0. 0.]
5.07663893699646,0.04015277326107025,-0.017236661165952682,-0.9311372637748718,-0.36204150319099426,[0. 0. 0. 0. 0. 0. 0. 0. 0.],-11.04736328125,4.8828125,-32.5927734375,[0. 0. 0. 0. 0. 0. 0. 0. 0.],-0.09716796875,-0.03369140625,0.95556640625,[0. 0. 0. 0. 0. 0. 0. 0. 0.]
5.096109867095947,0.04141870513558388,-0.01435588113963604,-0.9289956092834473,-0.3674853444099426,[0. 0. 0. 0. 0. 0. 0. 0. 0.],-8.9111328125,-2.99072265625,-33.50830078125,[0. 0. 0. 0. 0. 0. 0. 0. 0.],-0.13134765625,-0.1552734375,0.98291015625,[0. 0. 0. 0. 0. 0. 0. 0. 0.]
5.111237049102783,0.04286258667707443,-0.010959681123495102,-0.9268510937690735,-0.37281325459480286,[0. 0. 0. 0. 0. 0. 0. 0. 0.],-7.4462890625,-3.11279296875,-32.28759765625,[0. 0. 0. 0. 0. 0. 0. 0. 0.],-0.12109375,-0.23681640625,0.92626953125,[0. 0. 0. 0. 0. 0. 0. 0. 0.]
5.136211395263672,0.043274614959955215,-0.00812224019318819,-0.9249200820922852,-0.3776032626628876,[0. 0. 0. 0. 0. 0. 0. 0. 0.],-1.0986328125,-9.82666015625,-28.4423828125,[0. 0. 0. 0. 0. 0. 0. 0. 0.],-0.08740234375,-0.25537109375,1.04638671875,[0. 0. 0. 0. 0. 0. 0. 0. 0.]
5.151787519454956,0.042879194021224976,-0.005655280314385891,-0.9234187006950378,-0.3813493251800537,[0. 0. 0. 0. 0. 0. 0. 0. 0.],-2.8076171875,-3.47900390625,-20.5078125,[0. 0. 0. 0. 0. 0. 0. 0. 0.],-0.02392578125,-0.1923828125,0.9912109375,[0. 0. 0. 0. 0. 0. 0. 0. 0.]
5.176597356796265,0.042823731899261475,-0.0025474827270954847,-0.9222491979598999,-0.38420847058296204,[0. 0. 0. 0. 0. 0. 0. 0. 0.],-9.3994140625,-0.244140625,-15.7470703125,[0. 0. 0. 0. 0. 0. 0. 0. 0.],-0.00390625,-0.16162109375,0.916015625,[0. 0. 0. 0. 0. 0. 0. 0. 0.]
5.200347900390625,0.04217005521059036,0.00046182508231140673,-0.921499490737915,-0.3860832154750824,[0. 0. 0. 0. 0. 0. 0. 0. 0.],-0.06103515625,-9.8876953125,-8.48388671875,[0. 0. 0. 0. 0. 0. 0. 0. 0.],-0.0517578125,-0.18701171875,1.09326171875,[0. 0. 0. 0. 0. 0. 0. 0. 0.]
5.216726303100586,0.04123493283987045,0.00261605903506279,-0.9212576150894165,-0.3867522180080414,[0. 0. 0. 0. 0. 0. 0. 0. 0.],-0.30517578125,-3.72314453125,-1.89208984375,[0. 0. 0. 0. 0. 0. 0. 0. 0.],-0.017578125,-0.1455078125,1.05126953125,[0. 0. 0. 0. 0. 0. 0. 0. 0.]
5.236155033111572,0.0409640409052372,0.004138085525482893,-0.9211644530296326,-0.3869894742965698,[0. 0. 0. 0. 0. 0. 0. 0. 0.],0.91552734375,2.01416015625,-0.91552734375,[0. 0. 0. 0. 0. 0. 0. 0. 0.],-0.00146484375,-0.12158203125,1.00341796875,[0. 0. 0. 0. 0. 0. 0. 0. 0.]
5.256227970123291,0.040969882160425186,0.005408992059528828,-0.9210852384567261,-0.3871616721153259,[0. 0. 0. 0. 0. 0. 0. 0. 0.],1.5869140625,-1.220703125,-0.30517578125,[0. 0. 0. 0. 0. 0. 0. 0. 0.],-0.0732421875,-0.10693359375,0.9716796875,[0. 0. 0. 0. 0. 0. 0. 0. 0.]
5.276040077209473,0.04119737073779106,0.007059705909341574,-0.9210425019264221,-0.3872128129005432,[0. 0. 0. 0. 0. 0. 0. 0. 0.],-3.173828125,-9.3994140625,-1.220703125,[0. 0. 0. 0. 0. 0. 0. 0. 0.],-0.08349609375,-0.0615234375,0.94580078125,[0. 0. 0. 0. 0. 0. 0. 0. 0.]
5.296460390090942,0.03974052518606186,0.008315352723002434,-0.9208189249038696,-0.3878713846206665,[0. 0. 0. 0. 0. 0. 0. 0. 0.],0.6103515625,-1.5869140625,-7.01904296875,[0. 0. 0. 0. 0. 0. 0. 0. 0.],0.0439453125,-0.07568359375,1.13037109375,[0. 0. 0. 0. 0. 0. 0. 0. 0.]
5.312196969985962,0.03810495883226395,0.009242722764611244,-0.9204245209693909,-0.3889492154121399,[0. 0. 0. 0. 0. 0. 0. 0. 0.],0.18310546875,-3.2958984375,-7.6904296875,[0. 0. 0. 0. 0. 0. 0. 0. 0.],-0.02490234375,-0.0546875,1.015625,[0. 0. 0. 0. 0. 0. 0. 0. 0.]
5.336306571960449,0.03711988031864166,0.010185371153056622,-0.919996976852417,-0.3900308310985565,[0. 0. 0. 0. 0. 0. 0. 0. 0.],2.38037109375,2.50244140625,-5.9814453125,[0. 0. 0. 0. 0. 0. 0. 0. 0.],-0.03564453125,-0.05908203125,0.97021484375,[0. 0. 0. 0. 0. 0. 0. 0. 0.]
5.358389616012573,0.037495896220207214,0.010750390589237213,-0.9195091128349304,-0.39112845063209534,[0. 0. 0. 0. 0. 0. 0. 0. 0.],-0.06103515625,-7.080078125,-6.28662109375,[0. 0. 0. 0. 0. 0. 0. 0. 0.],-0.0732421875,-0.04150390625,0.94921875,[0. 0. 0. 0. 0. 0. 0. 0. 0.]
5.3761303424835205,0.036608628928661346,0.010554575361311436,-0.9192685484886169,-0.39178282022476196,[0. 0. 0. 0. 0. 0. 0. 0. 0.],-3.35693359375,3.72314453125,-5.615234375,[0. 0. 0. 0. 0. 0. 0. 0. 0.],-0.01806640625,-0.03125,0.9658203125,[0. 0. 0. 0. 0. 0. 0. 0. 0.]
5.39516544342041,0.034927982836961746,0.011103585362434387,-0.91871577501297,-0.39321520924568176,[0. 0. 0. 0. 0. 0. 0. 0. 0.],-2.99072265625,0.18310546875,-6.89697265625,[0. 0. 0. 0. 0. 0. 0. 0. 0.],-0.052734375,-0.0361328125,1.09326171875,[0. 0. 0. 0. 0. 0. 0. 0. 0.]
5.416093349456787,0.035466477274894714,0.010575911030173302,-0.9184533953666687,-0.3937939405441284,[0. 0. 0. 0. 0. 0. 0. 0. 0.],1.3427734375,-4.150390625,-4.5166015625,[0. 0. 0. 0. 0. 0. 0. 0. 0.],-0.130859375,-0.04736328125,1.05419921875,[0. 0. 0. 0. 0. 0. 0. 0. 0.]
5.438090562820435,0.03635396063327789,0.009464464150369167,-0.9181437492370605,-0.3944627046585083,[0. 0. 0. 0. 0. 0. 0. 0. 0.],4.638671875,2.50244140625,-4.638671875,[0. 0. 0. 0. 0. 0. 0. 0. 0.],-0.0615234375,-0.04443359375,0.98681640625,[0. 0. 0. 0. 0. 0. 0. 0. 0.]
5.456299543380737,0.03444933146238327,0.00903614517301321,-0.9178019762039185,-0.39543813467025757,[0. 0. 0. 0. 0. 0. 0. 0. 0.],0.732421875,0.67138671875,-6.7138671875,[0. 0. 0. 0. 0. 0. 0. 0. 0.],-0.02392578125,-0.03271484375,0.951171875,[0. 0. 0. 0. 0. 0. 0. 0. 0.]
5.483093023300171,0.034093841910362244,0.012148648500442505,-0.9171680808067322,-0.39685365557670593,[0. 0. 0. 0. 0. 0. 0. 0. 0.],-2.9296875,0.18310546875,-6.04248046875,[0. 0. 0. 0. 0. 0. 0. 0. 0.],-0.02978515625,-0.05029296875,1.00048828125,[0. 0. 0. 0. 0. 0. 0. 0. 0.]
5.497622489929199,0.033923402428627014,0.013161762617528439,-0.9169430732727051,-0.39735549688339233,[0. 0. 0. 0. 0. 0. 0. 0. 0.],-1.15966796875,-2.5634765625,-6.591796875,[0. 0. 0. 0. 0. 0. 0. 0. 0.],-0.044921875,-0.0732421875,1.00244140625,[0. 0. 0. 0. 0. 0. 0. 0. 0.]
5.516100883483887,0.03265596181154251,0.014345087110996246,-0.9164206385612488,-0.3986239433288574,[0. 0. 0. 0. 0. 0. 0. 0. 0.],-2.50244140625,0.3662109375,-7.32421875,[0. 0. 0. 0. 0. 0. 0. 0. 0.],-0.03173828125,-0.0380859375,0.91943359375,[0. 0. 0. 0. 0. 0. 0. 0. 0.]
5.536459922790527,0.03214274346828461,0.013693084008991718,-0.9159749150276184,-0.39971160888671875,[0. 0. 0. 0. 0. 0. 0. 0. 0.],-5.615234375,-6.103515625,-7.568359375,[0. 0. 0. 0. 0. 0. 0. 0. 0.],-0.064453125,-0.03857421875,1.05126953125,[0. 0. 0. 0. 0. 0. 0. 0. 0.]
5.556305170059204,0.03306523710489273,0.016007032245397568,-0.9154481291770935,-0.400755912065506,[0. 0. 0. 0. 0. 0. 0. 0. 0.],-2.38037109375,-3.23486328125,-8.60595703125,[0. 0. 0. 0. 0. 0. 0. 0. 0.],-0.04931640625,-0.14208984375,1.1484375,[0. 0. 0. 0. 0. 0. 0. 0. 0.]
5.57602334022522,0.03354090824723244,0.016617335379123688,-0.9149805903434753,-0.40175801515579224,[0. 0. 0. 0. 0. 0. 0. 0. 0.],6.77490234375,-0.48828125,-5.79833984375,[0. 0. 0. 0. 0. 0. 0. 0. 0.],-0.0634765625,-0.08544921875,1.0419921875,[0. 0. 0. 0. 0. 0. 0. 0. 0.]
5.5965540409088135,0.033869419246912,0.015462647192180157,-0.9146533012390137,-0.40252092480659485,[0. 0. 0. 0. 0. 0. 0. 0. 0.],1.220703125,-3.72314453125,-5.55419921875,[0. 0. 0. 0. 0. 0. 0. 0. 0.],-0.0908203125,-0.02783203125,0.91943359375,[0. 0. 0. 0. 0. 0. 0. 0. 0.]
5.616306781768799,0.031883079558610916,0.014664072543382645,-0.9141700863838196,-0.40380892157554626,[0. 0. 0. 0. 0. 0. 0. 0. 0.],1.220703125,-3.7841796875,-9.1552734375,[0. 0. 0. 0. 0. 0. 0. 0. 0.],-0.00927734375,-0.02734375,1.001953125,[0. 0. 0. 0. 0. 0. 0. 0. 0.]
5.636342763900757,0.029677612707018852,0.014671347104012966,-0.9135549068450928,-0.40536579489707947,[0. 0. 0. 0. 0. 0. 0. 0. 0.],4.150390625,1.708984375,-9.58251953125,[0. 0. 0. 0. 0. 0. 0. 0. 0.],-0.00439453125,-0.052734375,1.0693359375,[0. 0. 0. 0. 0. 0. 0. 0. 0.]
5.660948276519775,0.028255507349967957,0.013798966072499752,-0.9129665493965149,-0.406821072101593,[0. 0. 0. 0. 0. 0. 0. 0. 0.],5.55419921875,1.15966796875,-7.6904296875,[0. 0. 0. 0. 0. 0. 0. 0. 0.],-0.03466796875,-0.037109375,0.9736328125,[0. 0. 0. 0. 0. 0. 0. 0. 0.]
5.674609661102295,0.028422659263014793,0.012037976644933224,-0.9124208092689514,-0.40808773040771484,[0. 0. 0. 0. 0. 0. 0. 0. 0.],-1.03759765625,-0.732421875,-8.30078125,[0. 0. 0. 0. 0. 0. 0. 0. 0.],-0.06640625,-0.0078125,0.93603515625,[0. 0. 0. 0. 0. 0. 0. 0. 0.]
5.696191787719727,0.027897516265511513,0.010312199592590332,-0.9118192791938782,-0.4095132648944855,[0. 0. 0. 0. 0. 0. 0. 0. 0.],6.04248046875,-6.89697265625,-9.70458984375,[0. 0. 0. 0. 0. 0. 0. 0. 0.],-0.080078125,-0.02294921875,1.09326171875,[0. 0. 0. 0. 0. 0. 0. 0. 0.]
5.716129779815674,0.02816185913980007,0.008604031056165695,-0.9112101197242737,-0.41088810563087463,[0. 0. 0. 0. 0. 0. 0. 0. 0.],-0.06103515625,4.94384765625,-8.11767578125,[0. 0. 0. 0. 0. 0. 0. 0. 0.],-0.0517578125,-0.00634765625,1.005859375,[0. 0. 0. 0. 0. 0. 0. 0. 0.]
5.735933780670166,0.028621044009923935,0.006317485589534044,-0.9106529951095581,-0.41213107109069824,[0. 0. 0. 0. 0. 0. 0. 0. 0.],7.75146484375,-0.732421875,-6.8359375,[0. 0. 0. 0. 0. 0. 0. 0. 0.],-0.078125,-0.03369140625,1.00732421875,[0. 0. 0. 0. 0. 0. 0. 0. 0.]
5.752363443374634,0.029099049046635628,0.004831109195947647,-0.9101539254188538,-0.4132188558578491,[0. 0. 0. 0. 0. 0. 0. 0. 0.],-3.47900390625,4.5166015625,-7.01904296875,[0. 0. 0. 0. 0. 0. 0. 0. 0.],-0.05517578125,0.02294921875,0.8544921875,[0. 0. 0. 0. 0. 0. 0. 0. 0.]
5.776005506515503,0.030016759410500526,0.005346554797142744,-0.9096453189849854,-0.41426533460617065,[0. 0. 0. 0. 0. 0. 0. 0. 0.],-10.1318359375,-0.732421875,-7.080078125,[0. 0. 0. 0. 0. 0. 0. 0. 0.],-0.06982421875,-0.05322265625,0.86572265625,[0. 0. 0. 0. 0. 0. 0. 0. 0.]
5.796304941177368,0.030565038323402405,0.006387454457581043,-0.9092221260070801,-0.4151386320590973,[0. 0. 0. 0. 0. 0. 0. 0. 0.],7.080078125,-7.8125,-5.37109375,[0. 0. 0. 0. 0. 0. 0. 0. 0.],-0.1240234375,-0.08349609375,1.109375,[0. 0. 0. 0. 0. 0. 0. 0. 0.]
5.811916351318359,0.030141999945044518,0.005491051822900772,-0.9089229106903076,-0.41583701968193054,[0. 0. 0. 0. 0. 0. 0. 0. 0.],5.55419921875,-10.009765625,-3.35693359375,[0. 0. 0. 0. 0. 0. 0. 0. 0.],-0.099609375,-0.0087890625,1.1083984375,[0. 0. 0. 0. 0. 0. 0. 0. 0.]
5.8370444774627686,0.029108621180057526,0.004246775526553392,-0.9087212681770325,-0.41636568307876587,[0. 0. 0. 0. 0. 0. 0. 0. 0.],-0.91552734375,-1.46484375,-3.72314453125,[0. 0. 0. 0. 0. 0. 0. 0. 0.],-0.0439453125,0.01171875,1.05224609375,[0. 0. 0. 0. 0. 0. 0. 0. 0.]
5.856002330780029,0.028873920440673828,0.002743985503911972,-0.9086271524429321,-0.41659995913505554,[0. 0. 0. 0. 0. 0. 0. 0. 0.],5.126953125,-1.40380859375,-0.79345703125,[0. 0. 0. 0. 0. 0. 0. 0. 0.],-0.06884765625,-0.0244140625,0.994140625,[0. 0. 0. 0. 0. 0. 0. 0. 0.]
5.88020658493042,0.029385721310973167,0.001544400816783309,-0.9085193276405334,-0.416805624961853,[0. 0. 0. 0. 0. 0. 0. 0. 0.],-4.0283203125,-6.28662109375,-1.03759765625,[0. 0. 0. 0. 0. 0. 0. 0. 0.],-0.07666015625,-0.033203125,0.9375,[0. 0. 0. 0. 0. 0. 0. 0. 0.]
5.89626669883728,0.029602017253637314,0.0036188955418765545,-0.9084094762802124,-0.41701656579971313,[0. 0. 0. 0. 0. 0. 0. 0. 0.],-6.28662109375,-7.50732421875,-2.62451171875,[0. 0. 0. 0. 0. 0. 0. 0. 0.],-0.04052734375,-0.12939453125,0.95166015625,[0. 0. 0. 0. 0. 0. 0. 0. 0.]
5.917529344558716,0.03018859215080738,0.005619507282972336,-0.9080968499183655,-0.4176330268383026,[0. 0. 0. 0. 0. 0. 0. 0. 0.],-0.30517578125,8.60595703125,-3.84521484375,[0. 0. 0. 0. 0. 0. 0. 0. 0.],0.072265625,-0.20703125,1.00927734375,[0. 0. 0. 0. 0. 0. 0. 0. 0.]
5.936496019363403,0.0310535691678524,0.007291316986083984,-0.9077883362770081,-0.4182140827178955,[0. 0. 0. 0. 0. 0. 0. 0. 0.],-2.50244140625,-3.2958984375,-2.3193359375,[0. 0. 0. 0. 0. 0. 0. 0. 0.],-0.07177734375,-0.232421875,0.9853515625,[0. 0. 0. 0. 0. 0. 0. 0. 0.]
5.955902099609375,0.030734172090888023,0.009533237665891647,-0.9077104926109314,-0.4183613061904907,[0. 0. 0. 0. 0. 0. 0. 0. 0.],-1.40380859375,-10.31494140625,-1.708984375,[0. 0. 0. 0. 0. 0. 0. 0. 0.],-0.1025390625,-0.24609375,0.9892578125,[0. 0. 0. 0. 0. 0. 0. 0. 0.]
5.976006984710693,0.03204391524195671,0.01155179925262928,-0.9074819684028625,-0.4187079071998596,[0. 0. 0. 0. 0. 0. 0. 0. 0.],-6.04248046875,9.46044921875,-2.5634765625,[0. 0. 0. 0. 0. 0. 0. 0. 0.],0.0859375,-0.24560546875,1.0107421875,[0. 0. 0. 0. 0. 0. 0. 0. 0.]
5.992048978805542,0.03244006261229515,0.014416978694498539,-0.9075884819030762,-0.4183574318885803,[0. 0. 0. 0. 0. 0. 0. 0. 0.],-7.62939453125,-13.48876953125,6.04248046875,[0. 0. 0. 0. 0. 0. 0. 0. 0.],-0.08154296875,-0.24658203125,0.83447265625,[0. 0. 0. 0. 0. 0. 0. 0. 0.]
6.016101121902466,0.03193272650241852,0.0190061554312706,-0.9091231226921082,-0.41486650705337524,[0. 0. 0. 0. 0. 0. 0. 0. 0.],-13.61083984375,-23.193359375,27.7099609375,[0. 0. 0. 0. 0. 0. 0. 0. 0.],-0.03857421875,-0.30078125,0.98193359375,[0. 0. 0. 0. 0. 0. 0. 0. 0.]
6.036173582077026,0.028685901314020157,0.02285184897482395,-0.911952018737793,-0.40865451097488403,[0. 0. 0. 0. 0. 0. 0. 0. 0.],-1.5869140625,-24.10888671875,45.5322265625,[0. 0. 0. 0. 0. 0. 0. 0. 0.],0.0400390625,-0.353515625,1.1298828125,[0. 0. 0. 0. 0. 0. 0. 0. 0.]
6.0560524463653564,0.026434553787112236,0.02545497566461563,-0.9159864783287048,-0.3995274007320404,[0. 0. 0. 0. 0. 0. 0. 0. 0.],-3.47900390625,-8.9111328125,62.6220703125,[0. 0. 0. 0. 0. 0. 0. 0. 0.],0.16455078125,-0.279296875,1.10498046875,[0. 0. 0. 0. 0. 0. 0. 0. 0.]
6.0761637687683105,0.026463013142347336,0.026644067838788033,-0.9210087060928345,-0.38772788643836975,[0. 0. 0. 0. 0. 0. 0. 0. 0.],-1.40380859375,6.2255859375,78.30810546875,[0. 0. 0. 0. 0. 0. 0. 0. 0.],0.18408203125,-0.275390625,1.0595703125,[0. 0. 0. 0. 0. 0. 0. 0. 0.]
6.091173887252808,0.024893537163734436,0.02744620107114315,-0.9268094897270203,-0.37369948625564575,[0. 0. 0. 0. 0. 0. 0. 0. 0.],8.36181640625,-38.0859375,89.90478515625,[0. 0. 0. 0. 0. 0. 0. 0. 0.],-0.00341796875,-0.29345703125,0.9814453125,[0. 0. 0. 0. 0. 0. 0. 0. 0.]
6.116212606430054,0.022228501737117767,0.029011879116296768,-0.9335536360740662,-0.3565694987773895,[0. 0. 0. 0. 0. 0. 0. 0. 0.],-0.244140625,-3.23486328125,109.92431640625,[0. 0. 0. 0. 0. 0. 0. 0. 0.],0.21142578125,-0.20556640625,0.97021484375,[0. 0. 0. 0. 0. 0. 0. 0. 0.]
6.1361613273620605,0.022793477401137352,0.030014505609869957,-0.9406883716583252,-0.3371720016002655,[0. 0. 0. 0. 0. 0. 0. 0. 0.],-5.9814453125,-8.36181640625,123.35205078125,[0. 0. 0. 0. 0. 0. 0. 0. 0.],0.1767578125,-0.16845703125,0.7880859375,[0. 0. 0. 0. 0. 0. 0. 0. 0.]
6.156545639038086,0.01907329261302948,0.0335267074406147,-0.947998583316803,-0.31592872738838196,[0. 0. 0. 0. 0. 0. 0. 0. 0.],-7.50732421875,-20.01953125,133.1787109375,[0. 0. 0. 0. 0. 0. 0. 0. 0.],0.12548828125,-0.2587890625,0.9619140625,[0. 0. 0. 0. 0. 0. 0. 0. 0.]
6.176626920700073,0.017959902063012123,0.035568125545978546,-0.9552711844444275,-0.2930349111557007,[0. 0. 0. 0. 0. 0. 0. 0. 0.],-3.41796875,4.94384765625,141.7236328125,[0. 0. 0. 0. 0. 0. 0. 0. 0.],0.3994140625,-0.32666015625,1.1640625,[0. 0. 0. 0. 0. 0. 0. 0. 0.]
6.197458267211914,0.016932224854826927,0.035475216805934906,-0.9623426795005798,-0.2689824402332306,[0. 0. 0. 0. 0. 0. 0. 0. 0.],11.5966796875,-22.3388671875,144.83642578125,[0. 0. 0. 0. 0. 0. 0. 0. 0.],0.22607421875,-0.3515625,1.11083984375,[0. 0. 0. 0. 0. 0. 0. 0. 0.]
6.217649221420288,0.013718393631279469,0.03541949763894081,-0.9692129492759705,-0.24327656626701355,[0. 0. 0. 0. 0. 0. 0. 0. 0.],5.55419921875,-6.34765625,157.5927734375,[0. 0. 0. 0. 0. 0. 0. 0. 0.],0.3046875,-0.263671875,1.01123046875,[0. 0. 0. 0. 0. 0. 0. 0. 0.]
6.236630439758301,0.01560191810131073,0.03562013432383537,-0.9757044911384583,-0.21561221778392792,[0. 0. 0. 0. 0. 0. 0. 0. 0.],-5.18798828125,1.3427734375,166.44287109375,[0. 0. 0. 0. 0. 0. 0. 0. 0.],0.27685546875,-0.1884765625,0.7998046875,[0. 0. 0. 0. 0. 0. 0. 0. 0.]
6.256920576095581,0.00984183419495821,0.03821124508976936,-0.9816412329673767,-0.1866111308336258,[0. 0. 0. 0. 0. 0. 0. 0. 0.],0.1220703125,-36.376953125,171.81396484375,[0. 0. 0. 0. 0. 0. 0. 0. 0.],0.12646484375,-0.2880859375,0.859375,[0. 0. 0. 0. 0. 0. 0. 0. 0.]
6.2712085247039795,0.009216842241585255,0.03948664665222168,-0.9868856072425842,-0.15624567866325378,[0. 0. 0. 0. 0. 0. 0. 0. 0.],-0.67138671875,10.7421875,179.6875,[0. 0. 0. 0. 0. 0. 0. 0. 0.],0.484375,-0.341796875,1.10595703125,[0. 0. 0. 0. 0. 0. 0. 0. 0.]
6.292795896530151,0.006354405544698238,0.038472142070531845,-0.991407573223114,-0.12486287206411362,[0. 0. 0. 0. 0. 0. 0. 0. 0.],9.27734375,-27.52685546875,181.5185546875,[0. 0. 0. 0. 0. 0. 0. 0. 0.],0.31103515625,-0.35986328125,1.171875,[0. 0. 0. 0. 0. 0. 0. 0. 0.]
6.319625377655029,0.005513694602996111,0.03818255290389061,-0.9950183629989624,-0.09192521870136261,[0. 0. 0. 0. 0. 0. 0. 0. 0.],-3.60107421875,17.2119140625,194.091796875,[0. 0. 0. 0. 0. 0. 0. 0. 0.],0.44873046875,-0.22265625,0.8828125,[0. 0. 0. 0. 0. 0. 0. 0. 0.]
6.331358909606934,0.003469834104180336,0.03841765224933624,-0.9975730180740356,-0.05796722695231438,[0. 0. 0. 0. 0. 0. 0. 0. 0.],10.1318359375,-44.00634765625,193.29833984375,[0. 0. 0. 0. 0. 0. 0. 0. 0.],0.1962890625,-0.31103515625,0.8828125,[0. 0. 0. 0. 0. 0. 0. 0. 0.]
6.358412504196167,-0.0003725172718986869,0.04004441201686859,-0.9991041421890259,-0.013686868362128735,[0. 0. 0. 0. 0. 0. 0. 0. 0.],-2.62451171875,0.91552734375,204.77294921875,[0. 0. 0. 0. 0. 0. 0. 0. 0.],0.46484375,-0.30908203125,0.9560546875,[0. 0. 0. 0. 0. 0. 0. 0. 0.]
6.376298666000366,-0.0005003705155104399,0.0396818071603775,-0.9991258382797241,0.013140598312020302,[0. 0. 0. 0. 0. 0. 0. 0. 0.],11.1083984375,-3.662109375,205.9326171875,[0. 0. 0. 0. 0. 0. 0. 0. 0.],0.4697265625,-0.41259765625,1.177734375,[0. 0. 0. 0. 0. 0. 0. 0. 0.]
6.396517753601074,-0.002648109570145607,0.038107458502054214,-0.9980353713035583,0.049661267548799515,[0. 0. 0. 0. 0. 0. 0. 0. 0.],14.58740234375,-30.2734375,207.94677734375,[0. 0. 0. 0. 0. 0. 0. 0. 0.],0.3310546875,-0.35986328125,0.9521484375,[0. 0. 0. 0. 0. 0. 0. 0. 0.]
6.416240692138672,-0.006550144404172897,0.035952769219875336,-0.9955667853355408,0.08666720241308212,[0. 0. 0. 0. 0. 0. 0. 0. 0.],16.357421875,-26.9775390625,211.85302734375,[0. 0. 0. 0. 0. 0. 0. 0. 0.],0.48388671875,-0.29248046875,1.013671875,[0. 0. 0. 0. 0. 0. 0. 0. 0.]
6.437374591827393,-0.011196094565093517,0.03447605296969414,-0.9916016459465027,0.1241459846496582,[0. 0. 0. 0. 0. 0. 0. 0. 0.],4.69970703125,-28.25927734375,215.63720703125,[0. 0. 0. 0. 0. 0. 0. 0. 0.],0.4599609375,-0.18017578125,0.80517578125,[0. 0. 0. 0. 0. 0. 0. 0. 0.]
6.456160306930542,-0.012808079831302166,0.03350072354078293,-0.9861900806427002,0.16168759763240814,[0. 0. 0. 0. 0. 0. 0. 0. 0.],6.34765625,13.3056640625,221.49658203125,[0. 0. 0. 0. 0. 0. 0. 0. 0.],0.6728515625,-0.21875,0.9951171875,[0. 0. 0. 0. 0. 0. 0. 0. 0.]
6.477977514266968,-0.013726296834647655,0.030877506360411644,-0.9778935313224792,0.20635534822940826,[0. 0. 0. 0. 0. 0. 0. 0. 0.],20.6298828125,-33.14208984375,204.833984375,[0. 0. 0. 0. 0. 0. 0. 0. 0.],0.51513671875,-0.32470703125,1.01806640625,[0. 0. 0. 0. 0. 0. 0. 0. 0.]
6.496849060058594,-0.015223736874759197,0.029634831473231316,-0.9718751311302185,0.23312829434871674,[0. 0. 0. 0. 0. 0. 0. 0. 0.],14.46533203125,-2.50244140625,211.48681640625,[0. 0. 0. 0. 0. 0. 0. 0. 0.],0.64404296875,-0.21435546875,0.9501953125,[0. 0. 0. 0. 0. 0. 0. 0. 0.]
6.517031908035278,-0.015829406678676605,0.029563652351498604,-0.9628317952156067,0.26801180839538574,[0. 0. 0. 0. 0. 0. 0. 0. 0.],1.46484375,-10.80322265625,205.2001953125,[0. 0. 0. 0. 0. 0. 0. 0. 0.],0.576171875,-0.20849609375,0.8642578125,[0. 0. 0. 0. 0. 0. 0. 0. 0.]
6.5312488079071045,-0.018719399347901344,0.02849116362631321,-0.9527560472488403,0.30181747674942017,[0. 0. 0. 0. 0. 0. 0. 0. 0.],2.86865234375,-6.89697265625,202.08740234375,[0. 0. 0. 0. 0. 0. 0. 0. 0.],0.5068359375,-0.24609375,0.8154296875,[0. 0. 0. 0. 0. 0. 0. 0. 0.]
6.552937746047974,-0.020534368231892586,0.02815830335021019,-0.9388262033462524,0.34262341260910034,[0. 0. 0. 0. 0. 0. 0. 0. 0.],10.25390625,-20.3857421875,190.12451171875,[0. 0. 0. 0. 0. 0. 0. 0. 0.],0.6591796875,-0.31787109375,1.0859375,[0. 0. 0. 0. 0. 0. 0. 0. 0.]
6.576232671737671,-0.021286217495799065,0.026650406420230865,-0.9301066398620605,0.36570271849632263,[0. 0. 0. 0. 0. 0. 0. 0. 0.],11.77978515625,-4.33349609375,187.1337890625,[0. 0. 0. 0. 0. 0. 0. 0. 0.],0.755859375,-0.310546875,1.1591796875,[0. 0. 0. 0. 0. 0. 0. 0. 0.]
6.5960893630981445,-0.02278745546936989,0.02477438934147358,-0.9179018139839172,0.39537733793258667,[0. 0. 0. 0. 0. 0. 0. 0. 0.],10.009765625,-17.578125,183.28857421875,[0. 0. 0. 0. 0. 0. 0. 0. 0.],0.6416015625,-0.23486328125,0.97509765625,[0. 0. 0. 0. 0. 0. 0. 0. 0.]
6.616076469421387,-0.022816862910985947,0.024844469502568245,-0.9050107002258301,0.4240492284297943,[0. 0. 0. 0. 0. 0. 0. 0. 0.],7.6904296875,-10.55908203125,175.9033203125,[0. 0. 0. 0. 0. 0. 0. 0. 0.],0.64892578125,-0.22705078125,0.93896484375,[0. 0. 0. 0. 0. 0. 0. 0. 0.]
6.63644552230835,-0.025486083701252937,0.022311780601739883,-0.89158034324646,0.4515939950942993,[0. 0. 0. 0. 0. 0. 0. 0. 0.],4.638671875,-7.62939453125,176.6357421875,[0. 0. 0. 0. 0. 0. 0. 0. 0.],0.5458984375,-0.2138671875,0.86474609375,[0. 0. 0. 0. 0. 0. 0. 0. 0.]
6.656822919845581,-0.02648894116282463,0.02359042502939701,-0.8770155906677246,0.47915077209472656,[0. 0. 0. 0. 0. 0. 0. 0. 0.],-9.8876953125,2.13623046875,179.99267578125,[0. 0. 0. 0. 0. 0. 0. 0. 0.],0.55126953125,-0.13427734375,0.7138671875,[0. 0. 0. 0. 0. 0. 0. 0. 0.]
6.676342248916626,-0.02924412116408348,0.023349445313215256,-0.8622872829437256,0.5050350427627563,[0. 0. 0. 0. 0. 0. 0. 0. 0.],2.62451171875,-15.07568359375,163.6962890625,[0. 0. 0. 0. 0. 0. 0. 0. 0.],0.71923828125,-0.283203125,1.150390625,[0. 0. 0. 0. 0. 0. 0. 0. 0.]
6.697684049606323,-0.02955000102519989,0.02064230479300022,-0.8480852842330933,0.528632402420044,[0. 0. 0. 0. 0. 0. 0. 0. 0.],22.03369140625,-10.25390625,154.4189453125,[0. 0. 0. 0. 0. 0. 0. 0. 0.],0.81494140625,-0.25,1.21435546875,[0. 0. 0. 0. 0. 0. 0. 0. 0.]
6.712020635604858,-0.030508574098348618,0.01781325787305832,-0.8338748216629028,0.550821840763092,[0. 0. 0. 0. 0. 0. 0. 0. 0.],7.568359375,-13.7939453125,150.634765625,[0. 0. 0. 0. 0. 0. 0. 0. 0.],0.66357421875,-0.12841796875,0.93701171875,[0. 0. 0. 0. 0. 0. 0. 0. 0.]
6.731794834136963,-0.03170810639858246,0.01727820560336113,-0.8191200494766235,0.5724844336509705,[0. 0. 0. 0. 0. 0. 0. 0. 0.],-1.15966796875,12.5732421875,150.146484375,[0. 0. 0. 0. 0. 0. 0. 0. 0.],0.6904296875,-0.11083984375,0.87548828125,[0. 0. 0. 0. 0. 0. 0. 0. 0.]
6.756484508514404,-0.03076823428273201,0.0177665576338768,-0.8045688271522522,0.5927956104278564,[0. 0. 0. 0. 0. 0. 0. 0. 0.],6.53076171875,-4.82177734375,139.83154296875,[0. 0. 0. 0. 0. 0. 0. 0. 0.],0.6318359375,-0.16455078125,1.00830078125,[0. 0. 0. 0. 0. 0. 0. 0. 0.]
6.776942014694214,-0.03352874144911766,0.014708503149449825,-0.7900752425193787,0.6119154691696167,[0. 0. 0. 0. 0. 0. 0. 0. 0.],3.23486328125,-16.78466796875,138.3056640625,[0. 0. 0. 0. 0. 0. 0. 0. 0.],0.52392578125,-0.1171875,0.82958984375,[0. 0. 0. 0. 0. 0. 0. 0. 0.]
6.797347784042358,-0.03503482788801193,0.014370429329574108,-0.7752125263214111,0.6305645704269409,[0. 0. 0. 0. 0. 0. 0. 0. 0.],-0.06103515625,-4.150390625,135.7421875,[0. 0. 0. 0. 0. 0. 0. 0. 0.],0.623046875,-0.0751953125,0.83154296875,[0. 0. 0. 0. 0. 0. 0. 0. 0.]
6.816614866256714,-0.03555920720100403,0.013819766230881214,-0.7607495784759521,0.6479233503341675,[0. 0. 0. 0. 0. 0. 0. 0. 0.],7.14111328125,-3.72314453125,125.79345703125,[0. 0. 0. 0. 0. 0. 0. 0. 0.],0.7099609375,-0.1201171875,1.0087890625,[0. 0. 0. 0. 0. 0. 0. 0. 0.]
6.836468935012817,-0.03615787252783775,0.01095603872090578,-0.7471891641616821,0.663536787033081,[0. 0. 0. 0. 0. 0. 0. 0. 0.],15.80810546875,-15.68603515625,115.478515625,[0. 0. 0. 0. 0. 0. 0. 0. 0.],0.77734375,-0.1064453125,1.1884765625,[0. 0. 0. 0. 0. 0. 0. 0. 0.]
6.85136342048645,-0.03617076948285103,0.008256277069449425,-0.7341011166572571,0.6780259013175964,[0. 0. 0. 0. 0. 0. 0. 0. 0.],12.87841796875,-1.03759765625,109.06982421875,[0. 0. 0. 0. 0. 0. 0. 0. 0.],0.7861328125,-0.02783203125,1.0810546875,[0. 0. 0. 0. 0. 0. 0. 0. 0.]
6.876559734344482,-0.03516671061515808,0.006462850607931614,-0.7215951085090637,0.6913914084434509,[0. 0. 0. 0. 0. 0. 0. 0. 0.],14.892578125,-2.3193359375,102.5390625,[0. 0. 0. 0. 0. 0. 0. 0. 0.],0.66064453125,-0.029296875,0.9794921875,[0. 0. 0. 0. 0. 0. 0. 0. 0.]
6.897607088088989,-0.034896764904260635,0.003673288505524397,-0.7093294262886047,0.7040031552314758,[0. 0. 0. 0. 0. 0. 0. 0. 0.],13.00048828125,-8.36181640625,100.03662109375,[0. 0. 0. 0. 0. 0. 0. 0. 0.],0.55322265625,-0.01513671875,0.8681640625,[0. 0. 0. 0. 0. 0. 0. 0. 0.]
6.9163658618927,-0.03480861708521843,0.0017543245339766145,-0.6973574161529541,0.7158756256103516,[0. 0. 0. 0. 0. 0. 0. 0. 0.],7.8125,5.55419921875,92.529296875,[0. 0. 0. 0. 0. 0. 0. 0. 0.],0.65576171875,0.02001953125,0.896484375,[0. 0. 0. 0. 0. 0. 0. 0. 0.]
6.936256170272827,-0.033287111669778824,0.0010759021388366818,-0.6877002120018005,0.7252305746078491,[0. 0. 0. 0. 0. 0. 0. 0. 0.],10.009765625,3.7841796875,65.36865234375,[0. 0. 0. 0. 0. 0. 0. 0. 0.],0.693359375,0.07080078125,1.0234375,[0. 0. 0. 0. 0. 0. 0. 0. 0.]
6.956707239151001,-0.03235740587115288,-0.0003474863769952208,-0.6815480589866638,0.7310576438903809,[0. 0. 0. 0. 0. 0. 0. 0. 0.],7.6904296875,3.96728515625,38.0859375,[0. 0. 0. 0. 0. 0. 0. 0. 0.],0.63427734375,0.10498046875,1.0009765625,[0. 0. 0. 0. 0. 0. 0. 0. 0.]
6.97605562210083,-0.031010033562779427,-0.0017986198654398322,-0.6789580583572388,0.7335197925567627,[0. 0. 0. 0. 0. 0. 0. 0. 0.],9.27734375,1.220703125,8.48388671875,[0. 0. 0. 0. 0. 0. 0. 0. 0.],0.5390625,0.13037109375,0.9306640625,[0. 0. 0. 0. 0. 0. 0. 0. 0.]
6.995863914489746,-0.03063182160258293,-0.0036492273211479187,-0.6804095506668091,0.7321824431419373,[0. 0. 0. 0. 0. 0. 0. 0. 0.],4.69970703125,5.126953125,-22.52197265625,[0. 0. 0. 0. 0. 0. 0. 0. 0.],0.53662109375,0.1982421875,0.96533203125,[0. 0. 0. 0. 0. 0. 0. 0. 0.]
7.016054630279541,-0.029365599155426025,-0.004069001413881779,-0.6856967806816101,0.7272832989692688,[0. 0. 0. 0. 0. 0. 0. 0. 0.],2.74658203125,11.29150390625,-50.47607421875,[0. 0. 0. 0. 0. 0. 0. 0. 0.],0.451171875,0.2763671875,0.994140625,[0. 0. 0. 0. 0. 0. 0. 0. 0.]
7.036056280136108,-0.02677096799015999,-0.0054503995925188065,-0.693473756313324,0.7199637293815613,[0. 0. 0. 0. 0. 0. 0. 0. 0.],12.939453125,10.07080078125,-64.0869140625,[0. 0. 0. 0. 0. 0. 0. 0. 0.],0.234375,0.2626953125,1.02490234375,[0. 0. 0. 0. 0. 0. 0. 0. 0.]
7.0560619831085205,-0.022930340841412544,-0.005193337798118591,-0.7018874287605286,0.7118998169898987,[0. 0. 0. 0. 0. 0. 0. 0. 0.],1.77001953125,22.03369140625,-67.44384765625,[0. 0. 0. 0. 0. 0. 0. 0. 0.],0.078125,0.3310546875,0.9169921875,[0. 0. 0. 0. 0. 0. 0. 0. 0.]
7.076154708862305,-0.019876884296536446,-0.004437616560608149,-0.7103150486946106,0.7035892605781555,[0. 0. 0. 0. 0. 0. 0. 0. 0.],0.06103515625,9.82666015625,-67.3828125,[0. 0. 0. 0. 0. 0. 0. 0. 0.],-0.0673828125,0.3359375,1.00439453125,[0. 0. 0. 0. 0. 0. 0. 0. 0.]
7.0962653160095215,-0.016550980508327484,-0.004945380613207817,-0.7186267971992493,0.6951814889907837,[0. 0. 0. 0. 0. 0. 0. 0. 0.],7.080078125,11.23046875,-67.3828125,[0. 0. 0. 0. 0. 0. 0. 0. 0.],-0.0498046875,0.31787109375,1.109375,[0. 0. 0. 0. 0. 0. 0. 0. 0.]
7.116023540496826,-0.013325064443051815,-0.005398775916546583,-0.7267271876335144,0.6867757439613342,[0. 0. 0. 0. 0. 0. 0. 0. 0.],2.197265625,10.31494140625,-66.10107421875,[0. 0. 0. 0. 0. 0. 0. 0. 0.],-0.07177734375,0.33642578125,0.98291015625,[0. 0. 0. 0. 0. 0. 0. 0. 0.]
7.13638162612915,-0.011143761686980724,-0.0057807439006865025,-0.7344616651535034,0.6785342693328857,[0. 0. 0. 0. 0. 0. 0. 0. 0.],1.3427734375,2.685546875,-64.39208984375,[0. 0. 0. 0. 0. 0. 0. 0. 0.],-0.10595703125,0.33251953125,0.96728515625,[0. 0. 0. 0. 0. 0. 0. 0. 0.]
7.156118631362915,-0.009337031282484531,-0.006345402915030718,-0.7417960166931152,0.6705307364463806,[0. 0. 0. 0. 0. 0. 0. 0. 0.],1.40380859375,2.0751953125,-61.03515625,[0. 0. 0. 0. 0. 0. 0. 0. 0.],-0.1005859375,0.3134765625,0.986328125,[0. 0. 0. 0. 0. 0. 0. 0. 0.]
7.176384449005127,-0.007584074046462774,-0.007346523460000753,-0.7485311627388,0.6630155444145203,[0. 0. 0. 0. 0. 0. 0. 0. 0.],2.74658203125,0.3662109375,-55.6640625,[0. 0. 0. 0. 0. 0. 0. 0. 0.],-0.10888671875,0.30322265625,0.97998046875,[0. 0. 0. 0. 0. 0. 0. 0. 0.]
7.196115016937256,-0.0059380424208939075,-0.008393317461013794,-0.754591166973114,0.6561148166656494,[0. 0. 0. 0. 0. 0. 0. 0. 0.],0.9765625,0.06103515625,-50.6591796875,[0. 0. 0. 0. 0. 0. 0. 0. 0.],-0.09619140625,0.31982421875,1.0087890625,[0. 0. 0. 0. 0. 0. 0. 0. 0.]
7.216600179672241,-0.004419259261339903,-0.009185179136693478,-0.7599790096282959,0.6498676538467407,[0. 0. 0. 0. 0. 0. 0. 0. 0.],-0.18310546875,0.30517578125,-44.98291015625,[0. 0. 0. 0. 0. 0. 0. 0. 0.],-0.095703125,0.333984375,1.0185546875,[0. 0. 0. 0. 0. 0. 0. 0. 0.]
7.236576080322266,-0.0031644224654883146,-0.009992311708629131,-0.7648152112960815,0.6441645622253418,[0. 0. 0. 0. 0. 0. 0. 0. 0.],-0.06103515625,0.48828125,-41.07666015625,[0. 0. 0. 0. 0. 0. 0. 0. 0.],-0.072265625,0.3330078125,1.00390625,[0. 0. 0. 0. 0. 0. 0. 0. 0.]
7.256753206253052,-0.0018965346971526742,-0.010774620808660984,-0.7691620588302612,0.6389602422714233,[0. 0. 0. 0. 0. 0. 0. 0. 0.],-0.42724609375,-0.06103515625,-37.7197265625,[0. 0. 0. 0. 0. 0. 0. 0. 0.],-0.0498046875,0.310546875,1.0244140625,[0. 0. 0. 0. 0. 0. 0. 0. 0.]
7.286994934082031,0.0007317785639315844,-0.012387643568217754,-0.7743763327598572,0.6326037645339966,[0. 0. 0. 0. 0. 0. 0. 0. 0.],3.11279296875,-0.79345703125,-30.33447265625,[0. 0. 0. 0. 0. 0. 0. 0. 0.],-0.041015625,0.2939453125,1.0,[0. 0. 0. 0. 0. 0. 0. 0. 0.]
7.292848587036133,0.001342762028798461,-0.013014968484640121,-0.7758602499961853,0.6307691335678101,[0. 0. 0. 0. 0. 0. 0. 0. 0.],-0.06103515625,0.48828125,-25.81787109375,[0. 0. 0. 0. 0. 0. 0. 0. 0.],-0.02001953125,0.306640625,0.95703125,[0. 0. 0. 0. 0. 0. 0. 0. 0.]
7.317407131195068,0.0020932673942297697,-0.014062292873859406,-0.7787641286849976,0.6271557807922363,[0. 0. 0. 0. 0. 0. 0. 0. 0.],-2.50244140625,-2.197265625,-25.87890625,[0. 0. 0. 0. 0. 0. 0. 0. 0.],0.013671875,0.3154296875,1.00634765625,[0. 0. 0. 0. 0. 0. 0. 0. 0.]
7.3315510749816895,0.0027920256834477186,-0.014609389938414097,-0.7815151214599609,0.6237089037895203,[0. 0. 0. 0. 0. 0. 0. 0. 0.],-6.77490234375,3.23486328125,-25.45166015625,[0. 0. 0. 0. 0. 0. 0. 0. 0.],0.0263671875,0.23388671875,1.0146484375,[0. 0. 0. 0. 0. 0. 0. 0. 0.]
7.3563454151153564,0.002885151654481888,-0.01455333549529314,-0.7843972444534302,0.6200814843177795,[0. 0. 0. 0. 0. 0. 0. 0. 0.],-5.615234375,4.150390625,-28.564453125,[0. 0. 0. 0. 0. 0. 0. 0. 0.],0.03369140625,0.046875,1.02001953125,[0. 0. 0. 0. 0. 0. 0. 0. 0.]
7.376327753067017,0.004997475538402796,-0.013474748469889164,-0.786929190158844,0.616875946521759,[0. 0. 0. 0. 0. 0. 0. 0. 0.],-2.38037109375,4.8828125,-21.728515625,[0. 0. 0. 0. 0. 0. 0. 0. 0.],-0.10107421875,0.0634765625,1.03662109375,[0. 0. 0. 0. 0. 0. 0. 0. 0.]
7.397054195404053,0.006010155193507671,-0.010915802791714668,-0.7890115976333618,0.614251971244812,[0. 0. 0. 0. 0. 0. 0. 0. 0.],-8.72802734375,8.056640625,-18.00537109375,[0. 0. 0. 0. 0. 0. 0. 0. 0.],-0.1025390625,-0.08349609375,0.9794921875,[0. 0. 0. 0. 0. 0. 0. 0. 0.]
7.416879177093506,0.006287307478487492,-0.007290066685527563,-0.791002631187439,0.611737072467804,[0. 0. 0. 0. 0. 0. 0. 0. 0.],-8.544921875,8.97216796875,-18.24951171875,[0. 0. 0. 0. 0. 0. 0. 0. 0.],-0.0966796875,-0.115234375,0.98974609375,[0. 0. 0. 0. 0. 0. 0. 0. 0.]
7.436240911483765,0.00617628451436758,-0.003481930587440729,-0.7930991053581238,0.6090513467788696,[0. 0. 0. 0. 0. 0. 0. 0. 0.],-8.60595703125,6.77490234375,-19.22607421875,[0. 0. 0. 0. 0. 0. 0. 0. 0.],-0.11328125,-0.16650390625,0.953125,[0. 0. 0. 0. 0. 0. 0. 0. 0.]
7.457399129867554,0.0054030646570026875,-0.0003795917727984488,-0.7953828573226929,0.6060832142829895,[0. 0. 0. 0. 0. 0. 0. 0. 0.],-7.38525390625,2.685546875,-22.03369140625,[0. 0. 0. 0. 0. 0. 0. 0. 0.],-0.076171875,-0.17626953125,0.9716796875,[0. 0. 0. 0. 0. 0. 0. 0. 0.]
7.476350545883179,0.004204953089356422,0.0032961093820631504,-0.798151969909668,0.6024324297904968,[0. 0. 0. 0. 0. 0. 0. 0. 0.],-9.8876953125,6.04248046875,-28.6865234375,[0. 0. 0. 0. 0. 0. 0. 0. 0.],-0.01416015625,-0.26806640625,0.98486328125,[0. 0. 0. 0. 0. 0. 0. 0. 0.]
7.496638298034668,0.0036880318075418472,0.006116986740380526,-0.8015193343162537,0.5979262590408325,[0. 0. 0. 0. 0. 0. 0. 0. 0.],-2.86865234375,5.55419921875,-34.85107421875,[0. 0. 0. 0. 0. 0. 0. 0. 0.],-0.02001953125,-0.33203125,1.12744140625,[0. 0. 0. 0. 0. 0. 0. 0. 0.]
7.516865968704224,0.0035401403438299894,0.007923189550638199,-0.8053011298179626,0.5928025245666504,[0. 0. 0. 0. 0. 0. 0. 0. 0.],0.48828125,7.14111328125,-36.1328125,[0. 0. 0. 0. 0. 0. 0. 0. 0.],-0.111328125,-0.2744140625,1.052734375,[0. 0. 0. 0. 0. 0. 0. 0. 0.]
7.536371469497681,0.0035873132292181253,0.009227044880390167,-0.8092753887176514,0.5873460173606873,[0. 0. 0. 0. 0. 0. 0. 0. 0.],1.52587890625,2.8076171875,-37.2314453125,[0. 0. 0. 0. 0. 0. 0. 0. 0.],-0.1572265625,-0.20166015625,0.98388671875,[0. 0. 0. 0. 0. 0. 0. 0. 0.]
7.557311058044434,0.0036408635787665844,0.011381380259990692,-0.813443124294281,0.5815216898918152,[0. 0. 0. 0. 0. 0. 0. 0. 0.],-0.54931640625,-0.91552734375,-43.39599609375,[0. 0. 0. 0. 0. 0. 0. 0. 0.],-0.11865234375,-0.18212890625,0.91796875,[0. 0. 0. 0. 0. 0. 0. 0. 0.]
7.576141357421875,0.0033348617143929005,0.013551875948905945,-0.8176795840263367,0.5755045413970947,[0. 0. 0. 0. 0. 0. 0. 0. 0.],-0.9765625,-2.74658203125,-43.0908203125,[0. 0. 0. 0. 0. 0. 0. 0. 0.],-0.15625,-0.19775390625,0.96435546875,[0. 0. 0. 0. 0. 0. 0. 0. 0.]
7.5961151123046875,0.003039679257199168,0.015206558629870415,-0.8221350908279419,0.5690813064575195,[0. 0. 0. 0. 0. 0. 0. 0. 0.],0.54931640625,2.197265625,-46.20361328125,[0. 0. 0. 0. 0. 0. 0. 0. 0.],-0.087890625,-0.19775390625,0.95751953125,[0. 0. 0. 0. 0. 0. 0. 0. 0.]
7.616046190261841,0.0022229456808418036,0.017068803310394287,-0.8269240856170654,0.5620501041412354,[0. 0. 0. 0. 0. 0. 0. 0. 0.],-6.2255859375,4.0283203125,-48.583984375,[0. 0. 0. 0. 0. 0. 0. 0. 0.],-0.09130859375,-0.13916015625,0.94091796875,[0. 0. 0. 0. 0. 0. 0. 0. 0.]
7.636111736297607,0.002102874917909503,0.020535867661237717,-0.8318489789962769,0.5546180009841919,[0. 0. 0. 0. 0. 0. 0. 0. 0.],-5.126953125,4.7607421875,-52.67333984375,[0. 0. 0. 0. 0. 0. 0. 0. 0.],-0.0869140625,-0.140625,1.041015625,[0. 0. 0. 0. 0. 0. 0. 0. 0.]
7.656033992767334,0.0022986787371337414,0.023848654702305794,-0.83689945936203,0.5468321442604065,[0. 0. 0. 0. 0. 0. 0. 0. 0.],-5.06591796875,-0.79345703125,-55.96923828125,[0. 0. 0. 0. 0. 0. 0. 0. 0.],-0.12109375,-0.146484375,1.04541015625,[0. 0. 0. 0. 0. 0. 0. 0. 0.]
7.677706003189087,0.002899506129324436,0.02573886327445507,-0.8419654369354248,0.5389094948768616,[0. 0. 0. 0. 0. 0. 0. 0. 0.],-1.220703125,1.5869140625,-55.96923828125,[0. 0. 0. 0. 0. 0. 0. 0. 0.],-0.13720703125,-0.13671875,1.08154296875,[0. 0. 0. 0. 0. 0. 0. 0. 0.]
7.696606874465942,0.0037822071462869644,0.02700972743332386,-0.8471823930740356,0.5306017398834229,[0. 0. 0. 0. 0. 0. 0. 0. 0.],0.91552734375,0.42724609375,-57.92236328125,[0. 0. 0. 0. 0. 0. 0. 0. 0.],-0.115234375,-0.10400390625,1.05810546875,[0. 0. 0. 0. 0. 0. 0. 0. 0.]
7.716101169586182,0.004616910591721535,0.028313040733337402,-0.8525044918060303,0.5219321250915527,[0. 0. 0. 0. 0. 0. 0. 0. 0.],-1.89208984375,1.220703125,-59.326171875,[0. 0. 0. 0. 0. 0. 0. 0. 0.],-0.1728515625,-0.07080078125,0.9384765625,[0. 0. 0. 0. 0. 0. 0. 0. 0.]
7.7381250858306885,0.006129242014139891,0.030293313786387444,-0.8592177033424377,0.5106757879257202,[0. 0. 0. 0. 0. 0. 0. 0. 0.],4.8828125,2.99072265625,-60.05859375,[0. 0. 0. 0. 0. 0. 0. 0. 0.],-0.14453125,-0.11865234375,1.01708984375,[0. 0. 0. 0. 0. 0. 0. 0. 0.]
7.756173372268677,0.007025493774563074,0.03066127747297287,-0.8632204532623291,0.503846287727356,[0. 0. 0. 0. 0. 0. 0. 0. 0.],7.01904296875,-1.64794921875,-61.21826171875,[0. 0. 0. 0. 0. 0. 0. 0. 0.],-0.14794921875,-0.10400390625,0.99267578125,[0. 0. 0. 0. 0. 0. 0. 0. 0.]
7.775789260864258,0.008464271202683449,0.03162575140595436,-0.8685883283615112,0.4944518506526947,[0. 0. 0. 0. 0. 0. 0. 0. 0.],-1.953125,1.40380859375,-63.41552734375,[0. 0. 0. 0. 0. 0. 0. 0. 0.],-0.1279296875,-0.02734375,0.982421875,[0. 0. 0. 0. 0. 0. 0. 0. 0.]
7.796061038970947,0.00997354369610548,0.03272310644388199,-0.8742305636405945,0.4843043088912964,[0. 0. 0. 0. 0. 0. 0. 0. 0.],1.3427734375,3.72314453125,-67.68798828125,[0. 0. 0. 0. 0. 0. 0. 0. 0.],-0.1123046875,-0.0556640625,1.06689453125,[0. 0. 0. 0. 0. 0. 0. 0. 0.]
7.816333532333374,0.011788514442741871,0.03415396064519882,-0.8797858953475952,0.473995178937912,[0. 0. 0. 0. 0. 0. 0. 0. 0.],2.5634765625,4.45556640625,-66.650390625,[0. 0. 0. 0. 0. 0. 0. 0. 0.],-0.16455078125,-0.07666015625,0.92333984375,[0. 0. 0. 0. 0. 0. 0. 0. 0.]
7.836349248886108,0.013266060501337051,0.034920744597911835,-0.8851369619369507,0.4638287127017975,[0. 0. 0. 0. 0. 0. 0. 0. 0.],4.33349609375,-1.708984375,-65.85693359375,[0. 0. 0. 0. 0. 0. 0. 0. 0.],-0.1591796875,-0.0537109375,1.02392578125,[0. 0. 0. 0. 0. 0. 0. 0. 0.]
7.855984926223755,0.014648946933448315,0.03483162447810173,-0.8902789354324341,0.4538455009460449,[0. 0. 0. 0. 0. 0. 0. 0. 0.],1.15966796875,2.5634765625,-62.07275390625,[0. 0. 0. 0. 0. 0. 0. 0. 0.],-0.10107421875,-0.0400390625,1.0869140625,[0. 0. 0. 0. 0. 0. 0. 0. 0.]
7.876183748245239,0.015895171090960503,0.0355764701962471,-0.8948264718055725,0.4447101950645447,[0. 0. 0. 0. 0. 0. 0. 0. 0.],0.3662109375,-1.46484375,-56.640625,[0. 0. 0. 0. 0. 0. 0. 0. 0.],-0.12744140625,-0.06689453125,0.93603515625,[0. 0. 0. 0. 0. 0. 0. 0. 0.]
7.8960957527160645,0.015683650970458984,0.03662211075425148,-0.8986574411392212,0.436838299036026,[0. 0. 0. 0. 0. 0. 0. 0. 0.],-3.5400390625,-8.6669921875,-46.08154296875,[0. 0. 0. 0. 0. 0. 0. 0. 0.],-0.12841796875,-0.06396484375,0.84033203125,[0. 0. 0. 0. 0. 0. 0. 0. 0.]
7.916163921356201,0.014613077975809574,0.03800015151500702,-0.9016228318214417,0.4306029975414276,[0. 0. 0. 0. 0. 0. 0. 0. 0.],-6.77490234375,0.8544921875,-34.423828125,[0. 0. 0. 0. 0. 0. 0. 0. 0.],-0.02490234375,-0.05615234375,0.94384765625,[0. 0. 0. 0. 0. 0. 0. 0. 0.]
7.936753273010254,0.01272650994360447,0.038843244314193726,-0.9036172032356262,0.42638638615608215,[0. 0. 0. 0. 0. 0. 0. 0. 0.],1.708984375,-13.671875,-20.3857421875,[0. 0. 0. 0. 0. 0. 0. 0. 0.],-0.1025390625,-0.0869140625,1.060546875,[0. 0. 0. 0. 0. 0. 0. 0. 0.]
7.955932855606079,0.01166768278926611,0.03722020611166954,-0.90471351146698,0.42423099279403687,[0. 0. 0. 0. 0. 0. 0. 0. 0.],7.2021484375,-2.99072265625,-10.8642578125,[0. 0. 0. 0. 0. 0. 0. 0. 0.],-0.0107421875,-0.04541015625,1.15673828125,[0. 0. 0. 0. 0. 0. 0. 0. 0.]
7.976093769073486,0.011192684061825275,0.035091765224933624,-0.9052422642707825,0.4232964813709259,[0. 0. 0. 0. 0. 0. 0. 0. 0.],-0.54931640625,-5.92041015625,-3.84521484375,[0. 0. 0. 0. 0. 0. 0. 0. 0.],-0.04052734375,0.03173828125,1.0234375,[0. 0. 0. 0. 0. 0. 0. 0. 0.]
7.991537570953369,0.011399484239518642,0.03397400304675102,-0.9054821729660034,0.42286860942840576,[0. 0. 0. 0. 0. 0. 0. 0. 0.],-0.732421875,4.7607421875,-3.23486328125,[0. 0. 0. 0. 0. 0. 0. 0. 0.],0.001953125,0.013671875,1.04248046875,[0. 0. 0. 0. 0. 0. 0. 0. 0.]
8.016542673110962,0.011916670016944408,0.03220203518867493,-0.9057372212409973,0.42244675755500793,[0. 0. 0. 0. 0. 0. 0. 0. 0.],6.34765625,3.7841796875,-2.25830078125,[0. 0. 0. 0. 0. 0. 0. 0. 0.],-0.03466796875,-0.02001953125,1.013671875,[0. 0. 0. 0. 0. 0. 0. 0. 0.]
8.038433074951172,0.01306899357587099,0.030318012461066246,-0.9060303568840027,0.4219229221343994,[0. 0. 0. 0. 0. 0. 0. 0. 0.],-0.67138671875,-8.544921875,-3.7841796875,[0. 0. 0. 0. 0. 0. 0. 0. 0.],-0.095703125,0.041015625,0.89501953125,[0. 0. 0. 0. 0. 0. 0. 0. 0.]
8.05609679222107,0.012636080384254456,0.02888518199324608,-0.9063700437545776,0.4213067591190338,[0. 0. 0. 0. 0. 0. 0. 0. 0.],-1.3427734375,-4.21142578125,-7.01904296875,[0. 0. 0. 0. 0. 0. 0. 0. 0.],-0.0087890625,0.0224609375,1.00927734375,[0. 0. 0. 0. 0. 0. 0. 0. 0.]
8.076259136199951,0.01261140126734972,0.02783803455531597,-0.9069514274597168,0.42012524604797363,[0. 0. 0. 0. 0. 0. 0. 0. 0.],2.62451171875,8.7890625,-7.38525390625,[0. 0. 0. 0. 0. 0. 0. 0. 0.],0.05224609375,-0.0048828125,1.0634765625,[0. 0. 0. 0. 0. 0. 0. 0. 0.]
8.096927642822266,0.013504796661436558,0.026547029614448547,-0.907296895980835,0.41943439841270447,[0. 0. 0. 0. 0. 0. 0. 0. 0.],0.732421875,-8.48388671875,-2.86865234375,[0. 0. 0. 0. 0. 0. 0. 0. 0.],-0.126953125,0.0185546875,0.91796875,[0. 0. 0. 0. 0. 0. 0. 0. 0.]
8.1160728931427,0.01372557319700718,0.025123415514826775,-0.9074832797050476,0.41911184787750244,[0. 0. 0. 0. 0. 0. 0. 0. 0.],1.953125,-1.52587890625,-3.41796875,[0. 0. 0. 0. 0. 0. 0. 0. 0.],-0.0302734375,0.01611328125,1.08984375,[0. 0. 0. 0. 0. 0. 0. 0. 0.]
8.13835620880127,0.01416781172156334,0.02380353957414627,-0.9078812003135681,0.4183114171028137,[0. 0. 0. 0. 0. 0. 0. 0. 0.],-0.1220703125,7.2021484375,-4.7607421875,[0. 0. 0. 0. 0. 0. 0. 0. 0.],0.0107421875,0.03369140625,1.0869140625,[0. 0. 0. 0. 0. 0. 0. 0. 0.]
8.156262159347534,0.015259102918207645,0.023155061528086662,-0.9082081317901611,0.41759902238845825,[0. 0. 0. 0. 0. 0. 0. 0. 0.],-2.3193359375,-2.25830078125,-4.2724609375,[0. 0. 0. 0. 0. 0. 0. 0. 0.],-0.10302734375,0.0283203125,0.90185546875,[0. 0. 0. 0. 0. 0. 0. 0. 0.]
8.17654824256897,0.016045106574892998,0.0228235125541687,-0.9084430932998657,0.41707658767700195,[0. 0. 0. 0. 0. 0. 0. 0. 0.],-5.06591796875,-3.96728515625,-4.45556640625,[0. 0. 0. 0. 0. 0. 0. 0. 0.],-0.0634765625,0.01220703125,0.85009765625,[0. 0. 0. 0. 0. 0. 0. 0. 0.]
8.196269989013672,0.016387877985835075,0.022970523685216904,-0.9087194800376892,0.4164527654647827,[0. 0. 0. 0. 0. 0. 0. 0. 0.],-8.7890625,9.94873046875,-4.69970703125,[0. 0. 0. 0. 0. 0. 0. 0. 0.],-0.005859375,0.0302734375,0.931640625,[0. 0. 0. 0. 0. 0. 0. 0. 0.]
8.217011213302612,0.016340890899300575,0.022790251299738884,-0.9088791012763977,0.41611596941947937,[0. 0. 0. 0. 0. 0. 0. 0. 0.],1.3427734375,-15.19775390625,-1.5869140625,[0. 0. 0. 0. 0. 0. 0. 0. 0.],-0.15380859375,-0.01953125,1.11279296875,[0. 0. 0. 0. 0. 0. 0. 0. 0.]
8.23611831665039,0.016555482521653175,0.020729953423142433,-0.9091029763221741,0.41572579741477966,[0. 0. 0. 0. 0. 0. 0. 0. 0.],9.765625,-3.0517578125,-2.5634765625,[0. 0. 0. 0. 0. 0. 0. 0. 0.],-0.021484375,0.00146484375,1.16845703125,[0. 0. 0. 0. 0. 0. 0. 0. 0.]
8.258210897445679,0.016009638085961342,0.018516549840569496,-0.909365713596344,0.4152768552303314,[0. 0. 0. 0. 0. 0. 0. 0. 0.],-1.89208984375,-3.72314453125,-2.685546875,[0. 0. 0. 0. 0. 0. 0. 0. 0.],-0.0166015625,0.0771484375,0.99462890625,[0. 0. 0. 0. 0. 0. 0. 0. 0.]
8.277140855789185,0.015904773026704788,0.01752375066280365,-0.9096530079841614,0.41469433903694153,[0. 0. 0. 0. 0. 0. 0. 0. 0.],-0.3662109375,2.25830078125,-3.96728515625,[0. 0. 0. 0. 0. 0. 0. 0. 0.],0.01123046875,0.0322265625,1.044921875,[0. 0. 0. 0. 0. 0. 0. 0. 0.]
8.298113107681274,0.01562528684735298,0.015862947329878807,-0.9099252820014954,0.4141741991043091,[0. 0. 0. 0. 0. 0. 0. 0. 0.],4.5166015625,4.33349609375,-2.74658203125,[0. 0. 0. 0. 0. 0. 0. 0. 0.],-0.02587890625,-0.00439453125,0.9970703125,[0. 0. 0. 0. 0. 0. 0. 0. 0.]
8.316760540008545,0.016743989661335945,0.014186724089086056,-0.910070538520813,0.4138719141483307,[0. 0. 0. 0. 0. 0. 0. 0. 0.],0.3662109375,-8.4228515625,-2.13623046875,[0. 0. 0. 0. 0. 0. 0. 0. 0.],-0.09033203125,0.04345703125,0.9208984375,[0. 0. 0. 0. 0. 0. 0. 0. 0.]
8.336267709732056,0.01631910726428032,0.012422856874763966,-0.9104407429695129,0.41313084959983826,[0. 0. 0. 0. 0. 0. 0. 0. 0.],-0.244140625,1.953125,-6.40869140625,[0. 0. 0. 0. 0. 0. 0. 0. 0.],0.0361328125,0.03466796875,1.04052734375,[0. 0. 0. 0. 0. 0. 0. 0. 0.]
8.356774806976318,0.015964575111865997,0.011508094146847725,-0.9109252095222473,0.4121019244194031,[0. 0. 0. 0. 0. 0. 0. 0. 0.],2.685546875,3.7841796875,-6.4697265625,[0. 0. 0. 0. 0. 0. 0. 0. 0.],0.0107421875,0.00341796875,1.01513671875,[0. 0. 0. 0. 0. 0. 0. 0. 0.]
8.376088857650757,0.016172515228390694,0.010302256792783737,-0.9111699461936951,0.41158440709114075,[0. 0. 0. 0. 0. 0. 0. 0. 0.],1.46484375,-14.95361328125,-2.8076171875,[0. 0. 0. 0. 0. 0. 0. 0. 0.],-0.12744140625,0.0263671875,0.97607421875,[0. 0. 0. 0. 0. 0. 0. 0. 0.]
8.39618730545044,0.015406722202897072,0.007998200133442879,-0.9111948609352112,0.41160985827445984,[0. 0. 0. 0. 0. 0. 0. 0. 0.],6.4697265625,-3.47900390625,2.9296875,[0. 0. 0. 0. 0. 0. 0. 0. 0.],0.052734375,0.01806640625,1.1279296875,[0. 0. 0. 0. 0. 0. 0. 0. 0.]
8.417233943939209,0.013310929760336876,0.0056366752833127975,-0.9102559089660645,0.41379374265670776,[0. 0. 0. 0. 0. 0. 0. 0. 0.],2.685546875,-5.859375,19.53125,[0. 0. 0. 0. 0. 0. 0. 0. 0.],0.03662109375,0.03759765625,0.9912109375,[0. 0. 0. 0. 0. 0. 0. 0. 0.]
8.436158895492554,0.011617442592978477,0.003960005007684231,-0.9083316922187805,0.4180706739425659,[0. 0. 0. 0. 0. 0. 0. 0. 0.],2.3193359375,-6.77490234375,31.6162109375,[0. 0. 0. 0. 0. 0. 0. 0. 0.],0.05712890625,0.02685546875,0.90234375,[0. 0. 0. 0. 0. 0. 0. 0. 0.]
8.45621132850647,0.009011972695589066,0.001858323928900063,-0.9054423570632935,0.42436960339546204,[0. 0. 0. 0. 0. 0. 0. 0. 0.],-4.33349609375,-9.033203125,44.86083984375,[0. 0. 0. 0. 0. 0. 0. 0. 0.],0.0244140625,0.041015625,0.8681640625,[0. 0. 0. 0. 0. 0. 0. 0. 0.]
8.478158950805664,0.006036078557372093,0.0006551777478307486,-0.9002729654312134,0.4352836608886719,[0. 0. 0. 0. 0. 0. 0. 0. 0.],-4.2724609375,-11.04736328125,62.07275390625,[0. 0. 0. 0. 0. 0. 0. 0. 0.],0.07568359375,0.04541015625,1.0009765625,[0. 0. 0. 0. 0. 0. 0. 0. 0.]
8.49861192703247,0.0028731883503496647,-0.001845590420998633,-0.8951696753501892,0.445712685585022,[0. 0. 0. 0. 0. 0. 0. 0. 0.],4.82177734375,-9.765625,68.4814453125,[0. 0. 0. 0. 0. 0. 0. 0. 0.],0.111328125,0.01611328125,1.1318359375,[0. 0. 0. 0. 0. 0. 0. 0. 0.]
8.51685643196106,0.0012958411825820804,-0.0034054922871291637,-0.8909426927566528,0.45410123467445374,[0. 0. 0. 0. 0. 0. 0. 0. 0.],2.50244140625,-6.40869140625,72.8759765625,[0. 0. 0. 0. 0. 0. 0. 0. 0.],0.15478515625,0.064453125,1.07421875,[0. 0. 0. 0. 0. 0. 0. 0. 0.]
8.536627769470215,-5.864751074113883e-05,-0.00484172347933054,-0.8851128816604614,0.4653513729572296,[0. 0. 0. 0. 0. 0. 0. 0. 0.],0.3662109375,-1.64794921875,72.08251953125,[0. 0. 0. 0. 0. 0. 0. 0. 0.],0.19775390625,0.06884765625,1.05810546875,[0. 0. 0. 0. 0. 0. 0. 0. 0.]
8.5517258644104,-0.002118215197697282,-0.006056633777916431,-0.8791664838790894,0.476471483707428,[0. 0. 0. 0. 0. 0. 0. 0. 0.],-3.0517578125,-3.84521484375,72.44873046875,[0. 0. 0. 0. 0. 0. 0. 0. 0.],0.123046875,0.0458984375,0.98486328125,[0. 0. 0. 0. 0. 0. 0. 0. 0.]
8.576717138290405,-0.0038321407046169043,-0.00748505350202322,-0.8730835318565369,0.4874981939792633,[0. 0. 0. 0. 0. 0. 0. 0. 0.],5.615234375,-1.77001953125,72.3876953125,[0. 0. 0. 0. 0. 0. 0. 0. 0.],0.1357421875,-0.0048828125,1.0166015625,[0. 0. 0. 0. 0. 0. 0. 0. 0.]
8.596571683883667,-0.004720166325569153,-0.00937455240637064,-0.8667704463005066,0.49859699606895447,[0. 0. 0. 0. 0. 0. 0. 0. 0.],8.85009765625,1.46484375,72.75390625,[0. 0. 0. 0. 0. 0. 0. 0. 0.],0.13818359375,0.005859375,0.94140625,[0. 0. 0. 0. 0. 0. 0. 0. 0.]
8.61725640296936,-0.00656932545825839,-0.011782962828874588,-0.8603282570838928,0.5095619559288025,[0. 0. 0. 0. 0. 0. 0. 0. 0.],-4.33349609375,-11.53564453125,73.91357421875,[0. 0. 0. 0. 0. 0. 0. 0. 0.],0.05712890625,0.0771484375,0.9228515625,[0. 0. 0. 0. 0. 0. 0. 0. 0.]
8.631484985351562,-0.009308799169957638,-0.013138921931385994,-0.8536344170570374,0.5206238627433777,[0. 0. 0. 0. 0. 0. 0. 0. 0.],-3.23486328125,-4.94384765625,73.05908203125,[0. 0. 0. 0. 0. 0. 0. 0. 0.],0.17333984375,0.037109375,1.04931640625,[0. 0. 0. 0. 0. 0. 0. 0. 0.]
8.656159162521362,-0.010341349057853222,-0.013949600048363209,-0.8468765020370483,0.5315061807632446,[0. 0. 0. 0. 0. 0. 0. 0. 0.],5.37109375,5.0048828125,73.486328125,[0. 0. 0. 0. 0. 0. 0. 0. 0.],0.234375,-0.00244140625,1.10791015625,[0. 0. 0. 0. 0. 0. 0. 0. 0.]
8.677082777023315,-0.010803177952766418,-0.015261366963386536,-0.8397535085678101,0.5426458120346069,[0. 0. 0. 0. 0. 0. 0. 0. 0.],0.732421875,-3.41796875,76.171875,[0. 0. 0. 0. 0. 0. 0. 0. 0.],0.080078125,0.0458984375,0.92529296875,[0. 0. 0. 0. 0. 0. 0. 0. 0.]
8.69627857208252,-0.012739655561745167,-0.017428316175937653,-0.8323681950569153,0.5538024306297302,[0. 0. 0. 0. 0. 0. 0. 0. 0.],-10.7421875,-25.69580078125,77.81982421875,[0. 0. 0. 0. 0. 0. 0. 0. 0.],-0.0146484375,0.099609375,0.92138671875,[0. 0. 0. 0. 0. 0. 0. 0. 0.]
8.716460704803467,-0.017164263874292374,-0.01746206171810627,-0.8251583576202393,0.5643705725669861,[0. 0. 0. 0. 0. 0. 0. 0. 0.],-21.6064453125,-12.14599609375,70.80078125,[0. 0. 0. 0. 0. 0. 0. 0. 0.],0.21240234375,0.06689453125,1.033203125,[0. 0. 0. 0. 0. 0. 0. 0. 0.]
8.736146450042725,-0.021197834983468056,-0.017720265313982964,-0.818261444568634,0.5741820335388184,[0. 0. 0. 0. 0. 0. 0. 0. 0.],-0.3662109375,-8.48388671875,68.115234375,[0. 0. 0. 0. 0. 0. 0. 0. 0.],0.21484375,-0.056640625,1.14404296875,[0. 0. 0. 0. 0. 0. 0. 0. 0.]
8.75771689414978,-0.02030113711953163,-0.017975149676203728,-0.8112401366233826,0.5840840339660645,[0. 0. 0. 0. 0. 0. 0. 0. 0.],1.28173828125,24.0478515625,69.9462890625,[0. 0. 0. 0. 0. 0. 0. 0. 0.],0.28271484375,0.0849609375,0.95947265625,[0. 0. 0. 0. 0. 0. 0. 0. 0.]
8.776250839233398,-0.021075217053294182,-0.0173430647701025,-0.8037024736404419,0.5944051742553711,[0. 0. 0. 0. 0. 0. 0. 0. 0.],-3.60107421875,-8.1787109375,76.11083984375,[0. 0. 0. 0. 0. 0. 0. 0. 0.],0.05859375,0.00830078125,0.9677734375,[0. 0. 0. 0. 0. 0. 0. 0. 0.]
8.797221422195435,-0.02318892441689968,-0.017364898696541786,-0.7957475185394287,0.6049352288246155,[0. 0. 0. 0. 0. 0. 0. 0. 0.],3.7841796875,1.3427734375,74.76806640625,[0. 0. 0. 0. 0. 0. 0. 0. 0.],0.19921875,-0.01513671875,1.0400390625,[0. 0. 0. 0. 0. 0. 0. 0. 0.]
8.816227436065674,-0.024747781455516815,-0.019061321392655373,-0.7878658175468445,0.615054190158844,[0. 0. 0. 0. 0. 0. 0. 0. 0.],8.056640625,-4.57763671875,72.3876953125,[0. 0. 0. 0. 0. 0. 0. 0. 0.],0.13525390625,-0.0009765625,1.056640625,[0. 0. 0. 0. 0. 0. 0. 0. 0.]
8.836493492126465,-0.026444613933563232,-0.02137196995317936,-0.7800893783569336,0.624743640422821,[0. 0. 0. 0. 0. 0. 0. 0. 0.],5.2490234375,-6.40869140625,70.12939453125,[0. 0. 0. 0. 0. 0. 0. 0. 0.],0.14453125,0.0068359375,1.02490234375,[0. 0. 0. 0. 0. 0. 0. 0. 0.]
8.856886625289917,-0.02823774702847004,-0.023888129740953445,-0.7723023891448975,0.634177565574646,[0. 0. 0. 0. 0. 0. 0. 0. 0.],3.23486328125,-9.94873046875,69.7021484375,[0. 0. 0. 0. 0. 0. 0. 0. 0.],0.15673828125,0.02490234375,0.98388671875,[0. 0. 0. 0. 0. 0. 0. 0. 0.]
8.87814974784851,-0.030622094869613647,-0.026164520531892776,-0.7643903493881226,0.6434944272041321,[0. 0. 0. 0. 0. 0. 0. 0. 0.],0.67138671875,-3.662109375,70.37353515625,[0. 0. 0. 0. 0. 0. 0. 0. 0.],0.166015625,0.025390625,0.9501953125,[0. 0. 0. 0. 0. 0. 0. 0. 0.]
8.898301601409912,-0.030670035630464554,-0.026493873447179794,-0.7564892768859863,0.6527491807937622,[0. 0. 0. 0. 0. 0. 0. 0. 0.],5.06591796875,10.498046875,70.00732421875,[0. 0. 0. 0. 0. 0. 0. 0. 0.],0.23193359375,0.00439453125,1.10693359375,[0. 0. 0. 0. 0. 0. 0. 0. 0.]
8.916190385818481,-0.03177148476243019,-0.02573680318892002,-0.748085081577301,0.6623421311378479,[0. 0. 0. 0. 0. 0. 0. 0. 0.],-7.38525390625,-4.0283203125,74.40185546875,[0. 0. 0. 0. 0. 0. 0. 0. 0.],0.05615234375,-0.0439453125,0.88427734375,[0. 0. 0. 0. 0. 0. 0. 0. 0.]
8.936010122299194,-0.03606783598661423,-0.024316392838954926,-0.7393036484718323,0.6719658374786377,[0. 0. 0. 0. 0. 0. 0. 0. 0.],-8.23974609375,-20.69091796875,74.21875,[0. 0. 0. 0. 0. 0. 0. 0. 0.],0.07373046875,-0.15771484375,0.89697265625,[0. 0. 0. 0. 0. 0. 0. 0. 0.]
8.956360578536987,-0.03994385898113251,-0.022955432534217834,-0.7305065393447876,0.6813499331474304,[0. 0. 0. 0. 0. 0. 0. 0. 0.],-10.31494140625,4.21142578125,74.52392578125,[0. 0. 0. 0. 0. 0. 0. 0. 0.],0.28955078125,-0.16552734375,0.998046875,[0. 0. 0. 0. 0. 0. 0. 0. 0.]
8.976670503616333,-0.04342954605817795,-0.021759316325187683,-0.7212997078895569,0.6909176707267761,[0. 0. 0. 0. 0. 0. 0. 0. 0.],-1.0986328125,-11.16943359375,77.880859375,[0. 0. 0. 0. 0. 0. 0. 0. 0.],0.1201171875,-0.23583984375,0.97802734375,[0. 0. 0. 0. 0. 0. 0. 0. 0.]
8.996053695678711,-0.045382287353277206,-0.021860651671886444,-0.7116047143936157,0.7007719874382019,[0. 0. 0. 0. 0. 0. 0. 0. 0.],10.25390625,4.150390625,76.59912109375,[0. 0. 0. 0. 0. 0. 0. 0. 0.],0.21435546875,-0.3017578125,1.28759765625,[0. 0. 0. 0. 0. 0. 0. 0. 0.]
9.01610779762268,-0.044151339679956436,-0.02382495626807213,-0.7014980912208557,0.7109034061431885,[0. 0. 0. 0. 0. 0. 0. 0. 0.],26.30615234375,-16.357421875,83.31298828125,[0. 0. 0. 0. 0. 0. 0. 0. 0.],0.11376953125,-0.30322265625,1.41845703125,[0. 0. 0. 0. 0. 0. 0. 0. 0.]
9.036144018173218,-0.04693322256207466,-0.026437396183609962,-0.6904364824295044,0.7213846445083618,[0. 0. 0. 0. 0. 0. 0. 0. 0.],0.79345703125,-13.00048828125,88.9892578125,[0. 0. 0. 0. 0. 0. 0. 0. 0.],0.17138671875,-0.18017578125,0.61279296875,[0. 0. 0. 0. 0. 0. 0. 0. 0.]
9.056116580963135,-0.049506302922964096,-0.023788418620824814,-0.6786097884178162,0.7324424386024475,[0. 0. 0. 0. 0. 0. 0. 0. 0.],-13.3056640625,8.36181640625,93.68896484375,[0. 0. 0. 0. 0. 0. 0. 0. 0.],0.31884765625,-0.185546875,0.61279296875,[0. 0. 0. 0. 0. 0. 0. 0. 0.]
9.076082706451416,-0.05393483489751816,-0.023509860038757324,-0.666461706161499,0.7432140707969666,[0. 0. 0. 0. 0. 0. 0. 0. 0.],-1.64794921875,-25.5126953125,93.75,[0. 0. 0. 0. 0. 0. 0. 0. 0.],0.1455078125,-0.38330078125,0.92236328125,[0. 0. 0. 0. 0. 0. 0. 0. 0.]
9.096457242965698,-0.058480050414800644,-0.024074066430330276,-0.6539230346679688,0.7539132237434387,[0. 0. 0. 0. 0. 0. 0. 0. 0.],0.54931640625,-15.56396484375,93.07861328125,[0. 0. 0. 0. 0. 0. 0. 0. 0.],0.3525390625,-0.388671875,1.05126953125,[0. 0. 0. 0. 0. 0. 0. 0. 0.]
9.11653470993042,-0.05973733216524124,-0.02388855069875717,-0.6414366364479065,0.764473557472229,[0. 0. 0. 0. 0. 0. 0. 0. 0.],10.31494140625,8.544921875,93.8720703125,[0. 0. 0. 0. 0. 0. 0. 0. 0.],0.517578125,-0.404296875,1.212890625,[0. 0. 0. 0. 0. 0. 0. 0. 0.]
9.136143684387207,-0.06084280088543892,-0.023652788251638412,-0.6282485723495483,0.7752693295478821,[0. 0. 0. 0. 0. 0. 0. 0. 0.],-3.2958984375,-19.83642578125,99.12109375,[0. 0. 0. 0. 0. 0. 0. 0. 0.],0.17724609375,-0.3310546875,0.9169921875,[0. 0. 0. 0. 0. 0. 0. 0. 0.]
9.156137228012085,-0.0653899759054184,-0.023386456072330475,-0.6131139993667603,0.7869361639022827,[0. 0. 0. 0. 0. 0. 0. 0. 0.],-7.50732421875,-5.37109375,117.1875,[0. 0. 0. 0. 0. 0. 0. 0. 0.],0.115234375,-0.36328125,0.857421875,[0. 0. 0. 0. 0. 0. 0. 0. 0.]
9.176107406616211,-0.06796751916408539,-0.02212519198656082,-0.5965166687965393,0.7994115948677063,[0. 0. 0. 0. 0. 0. 0. 0. 0.],4.8828125,-4.21142578125,123.9013671875,[0. 0. 0. 0. 0. 0. 0. 0. 0.],0.2919921875,-0.42578125,0.99853515625,[0. 0. 0. 0. 0. 0. 0. 0. 0.]
9.196283340454102,-0.06922969222068787,-0.020562784746289253,-0.5787325501441956,0.8123134970664978,[0. 0. 0. 0. 0. 0. 0. 0. 0.],5.859375,-4.2724609375,126.40380859375,[0. 0. 0. 0. 0. 0. 0. 0. 0.],0.42578125,-0.37353515625,0.99462890625,[0. 0. 0. 0. 0. 0. 0. 0. 0.]
9.216159105300903,-0.07025536149740219,-0.021990623325109482,-0.5603705644607544,0.8249639272689819,[0. 0. 0. 0. 0. 0. 0. 0. 0.],14.16015625,-12.02392578125,128.47900390625,[0. 0. 0. 0. 0. 0. 0. 0. 0.],0.40185546875,-0.40087890625,1.07958984375,[0. 0. 0. 0. 0. 0. 0. 0. 0.]
9.236039876937866,-0.07201280444860458,-0.023417839780449867,-0.540433943271637,0.8379719853401184,[0. 0. 0. 0. 0. 0. 0. 0. 0.],5.2490234375,-1.52587890625,138.73291015625,[0. 0. 0. 0. 0. 0. 0. 0. 0.],0.40771484375,-0.3251953125,0.92626953125,[0. 0. 0. 0. 0. 0. 0. 0. 0.]
