time,orientation.x,orientation.y,orientation.z,orientation.w,orientation_covariance,angular_velocity.x,angular_velocity.y,angular_velocity.z,angular_velocity_covariance,linear_acceleration.x,linear_acceleration.y,linear_acceleration.z,linear_acceleration_covariance
0.16262435913085938,0.0012256631162017584,0.02400827594101429,0.7139591574668884,0.6997746229171753,[0. 0. 0. 0. 0. 0. 0. 0. 0.],-0.244140625,-0.54931640625,-0.18310546875,[0. 0. 0. 0. 0. 0. 0. 0. 0.],-0.03173828125,0.03662109375,1.001953125,[0. 0. 0. 0. 0. 0. 0. 0. 0.]
0.18275213241577148,0.0019021978368982673,0.02340892143547535,0.7139570713043213,0.6997954845428467,[0. 0. 0. 0. 0. 0. 0. 0. 0.],-0.18310546875,-0.8544921875,-0.18310546875,[0. 0. 0. 0. 0. 0. 0. 0. 0.],-0.0302734375,0.0361328125,1.00341796875,[0. 0. 0. 0. 0. 0. 0. 0. 0.]
0.20268964767456055,0.0017555210506543517,0.022919509559869766,0.7139503359794617,0.6998189687728882,[0. 0. 0. 0. 0. 0. 0. 0. 0.],0.42724609375,-0.67138671875,0.06103515625,[0. 0. 0. 0. 0. 0. 0. 0. 0.],-0.02978515625,0.03564453125,1.0048828125,[0. 0. 0. 0. 0. 0. 0. 0. 0.]
0.2226712703704834,0.001913157757371664,0.02349068783223629,0.713921844959259,0.6998286247253418,[0. 0. 0. 0. 0. 0. 0. 0. 0.],-0.06103515625,-0.54931640625,-0.3662109375,[0. 0. 0. 0. 0. 0. 0. 0. 0.],-0.02978515625,0.0361328125,1.00244140625,[0. 0. 0. 0. 0. 0. 0. 0. 0.]
0.2427384853363037,0.0024372986517846584,0.023411711677908897,0.7139192223548889,0.6998323798179626,[0. 0. 0. 0. 0. 0. 0. 0. 0.],-0.42724609375,-0.8544921875,-0.244140625,[0. 0. 0. 0. 0. 0. 0. 0. 0.],-0.02978515625,0.037109375,1.00341796875,[0. 0. 0. 0. 0. 0. 0. 0. 0.]
0.25813913345336914,0.0024865069426596165,0.02332785539329052,0.7139016389846802,0.6998530030250549,[0. 0. 0. 0. 0. 0. 0. 0. 0.],-0.18310546875,-0.6103515625,-0.18310546875,[0. 0. 0. 0. 0. 0. 0. 0. 0.],-0.029296875,0.037109375,1.0048828125,[0. 0. 0. 0. 0. 0. 0. 0. 0.]
0.2828102111816406,0.0015615314478054643,0.02392497844994068,0.7138531804084778,0.6998848915100098,[0. 0. 0. 0. 0. 0. 0. 0. 0.],0.3662109375,-0.54931640625,-0.1220703125,[0. 0. 0. 0. 0. 0. 0. 0. 0.],-0.0322265625,0.0361328125,1.0029296875,[0. 0. 0. 0. 0. 0. 0. 0. 0.]
0.30395078659057617,0.0018978866282850504,0.023634523153305054,0.713842511177063,0.69990473985672,[0. 0. 0. 0. 0. 0. 0. 0. 0.],-0.1220703125,-0.9765625,-0.18310546875,[0. 0. 0. 0. 0. 0. 0. 0. 0.],-0.03076171875,0.03662109375,1.00244140625,[0. 0. 0. 0. 0. 0. 0. 0. 0.]
0.31864237785339355,0.0022088494151830673,0.02325635589659214,0.7138314247131348,0.6999278664588928,[0. 0. 0. 0. 0. 0. 0. 0. 0.],-0.54931640625,-0.8544921875,-0.30517578125,[0. 0. 0. 0. 0. 0. 0. 0. 0.],-0.029296875,0.037109375,1.0009765625,[0. 0. 0. 0. 0. 0. 0. 0. 0.]
0.3409576416015625,0.0019466516096144915,0.023551354184746742,0.7138024568557739,0.6999483704566956,[0. 0. 0. 0. 0. 0. 0. 0. 0.],-0.3662109375,-0.42724609375,-0.18310546875,[0. 0. 0. 0. 0. 0. 0. 0. 0.],-0.03076171875,0.03662109375,1.0029296875,[0. 0. 0. 0. 0. 0. 0. 0. 0.]
0.3627176284790039,0.00189442269038409,0.023725830018520355,0.7137804627418518,0.6999650597572327,[0. 0. 0. 0. 0. 0. 0. 0. 0.],0.06103515625,-0.3662109375,0.0,[0. 0. 0. 0. 0. 0. 0. 0. 0.],-0.0302734375,0.0361328125,1.00341796875,[0. 0. 0. 0. 0. 0. 0. 0. 0.]
0.38277244567871094,0.0013238716637715697,0.023886460810899734,0.713760256767273,0.6999814510345459,[0. 0. 0. 0. 0. 0. 0. 0. 0.],0.06103515625,-0.8544921875,0.1220703125,[0. 0. 0. 0. 0. 0. 0. 0. 0.],-0.03125,0.03662109375,1.0029296875,[0. 0. 0. 0. 0. 0. 0. 0. 0.]
0.40312981605529785,0.002358765807002783,0.02325938083231449,0.7137648463249207,0.6999951601028442,[0. 0. 0. 0. 0. 0. 0. 0. 0.],-0.06103515625,-1.03759765625,-0.244140625,[0. 0. 0. 0. 0. 0. 0. 0. 0.],-0.029296875,0.037109375,1.0029296875,[0. 0. 0. 0. 0. 0. 0. 0. 0.]
0.42337799072265625,0.0023506623692810535,0.0232744999229908,0.7137362360954285,0.700023889541626,[0. 0. 0. 0. 0. 0. 0. 0. 0.],-0.18310546875,-0.3662109375,-0.3662109375,[0. 0. 0. 0. 0. 0. 0. 0. 0.],-0.029296875,0.03662109375,1.00146484375,[0. 0. 0. 0. 0. 0. 0. 0. 0.]
0.44284534454345703,0.0015754977939650416,0.023139726370573044,0.7137097120285034,0.7000576257705688,[0. 0. 0. 0. 0. 0. 0. 0. 0.],-0.18310546875,-0.42724609375,-0.06103515625,[0. 0. 0. 0. 0. 0. 0. 0. 0.],-0.0302734375,0.03564453125,1.001953125,[0. 0. 0. 0. 0. 0. 0. 0. 0.]
0.4628462791442871,0.0013161276001483202,0.023586373776197433,0.7136687636375427,0.7000848650932312,[0. 0. 0. 0. 0. 0. 0. 0. 0.],-0.244140625,-0.67138671875,-0.06103515625,[0. 0. 0. 0. 0. 0. 0. 0. 0.],-0.03076171875,0.03515625,1.00439453125,[0. 0. 0. 0. 0. 0. 0. 0. 0.]
0.483154296875,0.0023039334919303656,0.02354413829743862,0.7136639356613159,0.7000887393951416,[0. 0. 0. 0. 0. 0. 0. 0. 0.],0.18310546875,-0.67138671875,-0.06103515625,[0. 0. 0. 0. 0. 0. 0. 0. 0.],-0.02978515625,0.037109375,1.00244140625,[0. 0. 0. 0. 0. 0. 0. 0. 0.]
0.5046448707580566,0.002200205810368061,0.023784831166267395,0.7136292457580566,0.7001162767410278,[0. 0. 0. 0. 0. 0. 0. 0. 0.],0.18310546875,-0.67138671875,-0.244140625,[0. 0. 0. 0. 0. 0. 0. 0. 0.],-0.0302734375,0.037109375,1.00146484375,[0. 0. 0. 0. 0. 0. 0. 0. 0.]
0.5235574245452881,0.002067978261038661,0.02348232828080654,0.7136209011077881,0.700135350227356,[0. 0. 0. 0. 0. 0. 0. 0. 0.],-0.42724609375,-0.67138671875,-0.244140625,[0. 0. 0. 0. 0. 0. 0. 0. 0.],-0.0302734375,0.03662109375,1.00244140625,[0. 0. 0. 0. 0. 0. 0. 0. 0.]
0.5426890850067139,0.002863703528419137,0.02324935793876648,0.7136140465736389,0.7001473903656006,[0. 0. 0. 0. 0. 0. 0. 0. 0.],-0.48828125,-0.54931640625,-0.30517578125,[0. 0. 0. 0. 0. 0. 0. 0. 0.],-0.02880859375,0.037109375,1.00146484375,[0. 0. 0. 0. 0. 0. 0. 0. 0.]
0.5631611347198486,0.001997436862438917,0.02354222536087036,0.7135708928108215,0.7001845240592957,[0. 0. 0. 0. 0. 0. 0. 0. 0.],0.0,-0.30517578125,-0.18310546875,[0. 0. 0. 0. 0. 0. 0. 0. 0.],-0.0302734375,0.0361328125,1.001953125,[0. 0. 0. 0. 0. 0. 0. 0. 0.]
0.5827233791351318,0.0018492992967367172,0.023262232542037964,0.7135617136955261,0.7002035975456238,[0. 0. 0. 0. 0. 0. 0. 0. 0.],0.06103515625,-0.6103515625,0.1220703125,[0. 0. 0. 0. 0. 0. 0. 0. 0.],-0.02978515625,0.03662109375,1.0048828125,[0. 0. 0. 0. 0. 0. 0. 0. 0.]
0.6026887893676758,0.0016275807283818722,0.02390846237540245,0.7135258913040161,0.7002190351486206,[0. 0. 0. 0. 0. 0. 0. 0. 0.],-0.06103515625,-1.03759765625,-0.06103515625,[0. 0. 0. 0. 0. 0. 0. 0. 0.],-0.03125,0.037109375,1.00439453125,[0. 0. 0. 0. 0. 0. 0. 0. 0.]
0.6227006912231445,0.002251745667308569,0.02366938255727291,0.713522732257843,0.7002286314964294,[0. 0. 0. 0. 0. 0. 0. 0. 0.],-0.244140625,-0.79345703125,-0.18310546875,[0. 0. 0. 0. 0. 0. 0. 0. 0.],-0.0302734375,0.03759765625,1.0029296875,[0. 0. 0. 0. 0. 0. 0. 0. 0.]
0.6429152488708496,0.002351867500692606,0.023650627583265305,0.7135030031204224,0.7002489566802979,[0. 0. 0. 0. 0. 0. 0. 0. 0.],-0.06103515625,-0.244140625,-0.18310546875,[0. 0. 0. 0. 0. 0. 0. 0. 0.],-0.02978515625,0.037109375,1.0009765625,[0. 0. 0. 0. 0. 0. 0. 0. 0.]
0.6627304553985596,0.0015012217918410897,0.023687997832894325,0.7134677767753601,0.7002859115600586,[0. 0. 0. 0. 0. 0. 0. 0. 0.],-0.18310546875,-0.67138671875,-0.18310546875,[0. 0. 0. 0. 0. 0. 0. 0. 0.],-0.03125,0.0361328125,1.0029296875,[0. 0. 0. 0. 0. 0. 0. 0. 0.]
0.682753324508667,0.0016025229124352336,0.02373400516808033,0.7134491801261902,0.7003030776977539,[0. 0. 0. 0. 0. 0. 0. 0. 0.],0.0,-0.8544921875,-0.1220703125,[0. 0. 0. 0. 0. 0. 0. 0. 0.],-0.03125,0.0361328125,1.00341796875,[0. 0. 0. 0. 0. 0. 0. 0. 0.]
0.7027180194854736,0.00136637466493994,0.02294158935546875,0.7134407758712769,0.70033860206604,[0. 0. 0. 0. 0. 0. 0. 0. 0.],0.244140625,-0.732421875,-0.06103515625,[0. 0. 0. 0. 0. 0. 0. 0. 0.],-0.0302734375,0.03466796875,1.00341796875,[0. 0. 0. 0. 0. 0. 0. 0. 0.]
0.7228031158447266,0.0031522507779300213,0.023038258776068687,0.713455319404602,0.7003147602081299,[0. 0. 0. 0. 0. 0. 0. 0. 0.],-0.06103515625,-0.3662109375,-0.18310546875,[0. 0. 0. 0. 0. 0. 0. 0. 0.],-0.02783203125,0.03759765625,1.00341796875,[0. 0. 0. 0. 0. 0. 0. 0. 0.]
0.7426815032958984,0.0018507057102397084,0.023764610290527344,0.7134041786193848,0.7003472447395325,[0. 0. 0. 0. 0. 0. 0. 0. 0.],-0.54931640625,-0.732421875,-0.18310546875,[0. 0. 0. 0. 0. 0. 0. 0. 0.],-0.0322265625,0.037109375,1.00146484375,[0. 0. 0. 0. 0. 0. 0. 0. 0.]
0.7628602981567383,0.0015439586713910103,0.023367198184132576,0.713388204574585,0.7003777623176575,[0. 0. 0. 0. 0. 0. 0. 0. 0.],0.0,-0.6103515625,-0.06103515625,[0. 0. 0. 0. 0. 0. 0. 0. 0.],-0.0302734375,0.03564453125,1.0029296875,[0. 0. 0. 0. 0. 0. 0. 0. 0.]
0.7825360298156738,0.0023998976685106754,0.023135773837566376,0.7133840918540955,0.700387179851532,[0. 0. 0. 0. 0. 0. 0. 0. 0.],0.30517578125,-0.6103515625,-0.06103515625,[0. 0. 0. 0. 0. 0. 0. 0. 0.],-0.02978515625,0.03662109375,1.00390625,[0. 0. 0. 0. 0. 0. 0. 0. 0.]
0.8028414249420166,0.0017470093443989754,0.02387569472193718,0.7133437991142273,0.7004052996635437,[0. 0. 0. 0. 0. 0. 0. 0. 0.],-0.06103515625,-0.8544921875,-0.18310546875,[0. 0. 0. 0. 0. 0. 0. 0. 0.],-0.03125,0.03662109375,1.001953125,[0. 0. 0. 0. 0. 0. 0. 0. 0.]
0.823521614074707,0.0021901491563767195,0.02335178665816784,0.7133373618125916,0.700428307056427,[0. 0. 0. 0. 0. 0. 0. 0. 0.],-0.54931640625,-0.732421875,-0.244140625,[0. 0. 0. 0. 0. 0. 0. 0. 0.],-0.029296875,0.03662109375,1.00390625,[0. 0. 0. 0. 0. 0. 0. 0. 0.]
0.842620849609375,0.0014044962590560317,0.02300322614610195,0.713312566280365,0.7004671692848206,[0. 0. 0. 0. 0. 0. 0. 0. 0.],-0.06103515625,-0.244140625,-0.06103515625,[0. 0. 0. 0. 0. 0. 0. 0. 0.],-0.02978515625,0.03466796875,1.0,[0. 0. 0. 0. 0. 0. 0. 0. 0.]
0.8628230094909668,0.0010250627528876066,0.023967469111084938,0.7132679224014282,0.7004808187484741,[0. 0. 0. 0. 0. 0. 0. 0. 0.],0.42724609375,-0.3662109375,-0.06103515625,[0. 0. 0. 0. 0. 0. 0. 0. 0.],-0.0322265625,0.03564453125,1.00244140625,[0. 0. 0. 0. 0. 0. 0. 0. 0.]
0.8845012187957764,0.002075181808322668,0.02291817031800747,0.7132711410522461,0.7005103826522827,[0. 0. 0. 0. 0. 0. 0. 0. 0.],-0.1220703125,-0.9765625,-0.30517578125,[0. 0. 0. 0. 0. 0. 0. 0. 0.],-0.029296875,0.03564453125,1.0029296875,[0. 0. 0. 0. 0. 0. 0. 0. 0.]
0.902735710144043,0.001786255044862628,0.02350536175072193,0.7132298946380615,0.7005336880683899,[0. 0. 0. 0. 0. 0. 0. 0. 0.],-0.18310546875,-1.03759765625,-0.18310546875,[0. 0. 0. 0. 0. 0. 0. 0. 0.],-0.03076171875,0.0361328125,1.0029296875,[0. 0. 0. 0. 0. 0. 0. 0. 0.]
0.9228353500366211,0.001663590082898736,0.02390286512672901,0.7132036089897156,0.7005473375320435,[0. 0. 0. 0. 0. 0. 0. 0. 0.],-0.06103515625,-0.3662109375,-0.18310546875,[0. 0. 0. 0. 0. 0. 0. 0. 0.],-0.03125,0.03662109375,1.00146484375,[0. 0. 0. 0. 0. 0. 0. 0. 0.]
0.9377782344818115,0.001949370838701725,0.023815538734197617,0.713201105594635,0.7005521655082703,[0. 0. 0. 0. 0. 0. 0. 0. 0.],-0.18310546875,-0.30517578125,0.06103515625,[0. 0. 0. 0. 0. 0. 0. 0. 0.],-0.03076171875,0.037109375,1.001953125,[0. 0. 0. 0. 0. 0. 0. 0. 0.]
0.9579360485076904,0.001955816987901926,0.023538196459412575,0.713184654712677,0.7005781531333923,[0. 0. 0. 0. 0. 0. 0. 0. 0.],-0.06103515625,-0.8544921875,0.0,[0. 0. 0. 0. 0. 0. 0. 0. 0.],-0.03076171875,0.03662109375,1.00390625,[0. 0. 0. 0. 0. 0. 0. 0. 0.]
0.9805045127868652,0.0015820389380678535,0.023636138066649437,0.7131527066230774,0.7006083726882935,[0. 0. 0. 0. 0. 0. 0. 0. 0.],0.18310546875,-0.79345703125,-0.06103515625,[0. 0. 0. 0. 0. 0. 0. 0. 0.],-0.03076171875,0.0361328125,1.0009765625,[0. 0. 0. 0. 0. 0. 0. 0. 0.]
1.0036461353302002,0.0021599135361611843,0.02360627055168152,0.713142991065979,0.700617790222168,[0. 0. 0. 0. 0. 0. 0. 0. 0.],0.1220703125,-0.732421875,0.0,[0. 0. 0. 0. 0. 0. 0. 0. 0.],-0.0302734375,0.037109375,1.00048828125,[0. 0. 0. 0. 0. 0. 0. 0. 0.]
1.0180039405822754,0.0030964924953877926,0.0237285103648901,0.713133692741394,0.700619637966156,[0. 0. 0. 0. 0. 0. 0. 0. 0.],-0.30517578125,-0.91552734375,-0.244140625,[0. 0. 0. 0. 0. 0. 0. 0. 0.],-0.029296875,0.03857421875,1.00146484375,[0. 0. 0. 0. 0. 0. 0. 0. 0.]
1.0377600193023682,0.003121352754533291,0.023210788145661354,0.713121771812439,0.700648844242096,[0. 0. 0. 0. 0. 0. 0. 0. 0.],-0.30517578125,-0.732421875,-0.244140625,[0. 0. 0. 0. 0. 0. 0. 0. 0.],-0.0283203125,0.03759765625,1.00146484375,[0. 0. 0. 0. 0. 0. 0. 0. 0.]
1.062974214553833,0.002252067904919386,0.02330482006072998,0.7130846381187439,0.7006869316101074,[0. 0. 0. 0. 0. 0. 0. 0. 0.],0.18310546875,-0.3662109375,-0.1220703125,[0. 0. 0. 0. 0. 0. 0. 0. 0.],-0.029296875,0.0361328125,1.00341796875,[0. 0. 0. 0. 0. 0. 0. 0. 0.]
1.0829651355743408,0.0023765445221215487,0.023599544540047646,0.7130561470985413,0.7007057070732117,[0. 0. 0. 0. 0. 0. 0. 0. 0.],0.30517578125,-0.732421875,0.0,[0. 0. 0. 0. 0. 0. 0. 0. 0.],-0.0302734375,0.03662109375,1.00537109375,[0. 0. 0. 0. 0. 0. 0. 0. 0.]
1.1029582023620605,0.001538124750368297,0.02323315106332302,0.7130236625671387,0.700753390789032,[0. 0. 0. 0. 0. 0. 0. 0. 0.],-0.244140625,-1.0986328125,-0.244140625,[0. 0. 0. 0. 0. 0. 0. 0. 0.],-0.03076171875,0.03515625,1.00341796875,[0. 0. 0. 0. 0. 0. 0. 0. 0.]
1.122800350189209,0.002540105953812599,0.023566460236907005,0.7130134701728821,0.7007496356964111,[0. 0. 0. 0. 0. 0. 0. 0. 0.],0.0,-0.48828125,-0.3662109375,[0. 0. 0. 0. 0. 0. 0. 0. 0.],-0.029296875,0.03759765625,1.0,[0. 0. 0. 0. 0. 0. 0. 0. 0.]
1.142690658569336,0.0024847490713000298,0.023702438920736313,0.7129920125007629,0.7007670402526855,[0. 0. 0. 0. 0. 0. 0. 0. 0.],0.1220703125,-0.30517578125,-0.30517578125,[0. 0. 0. 0. 0. 0. 0. 0. 0.],-0.02978515625,0.03759765625,1.001953125,[0. 0. 0. 0. 0. 0. 0. 0. 0.]
1.1704895496368408,0.0026515363715589046,0.0233754999935627,0.7129765152931213,0.7007931470870972,[0. 0. 0. 0. 0. 0. 0. 0. 0.],-0.67138671875,-0.732421875,-0.18310546875,[0. 0. 0. 0. 0. 0. 0. 0. 0.],-0.029296875,0.037109375,1.00146484375,[0. 0. 0. 0. 0. 0. 0. 0. 0.]
1.1831445693969727,0.0024964618496596813,0.02306319959461689,0.7129690051078796,0.7008118033409119,[0. 0. 0. 0. 0. 0. 0. 0. 0.],0.1220703125,-0.91552734375,-0.1220703125,[0. 0. 0. 0. 0. 0. 0. 0. 0.],-0.02880859375,0.03662109375,1.00341796875,[0. 0. 0. 0. 0. 0. 0. 0. 0.]
1.2038965225219727,0.0023340475745499134,0.02359088882803917,0.7129358053207397,0.700828492641449,[0. 0. 0. 0. 0. 0. 0. 0. 0.],0.06103515625,-0.67138671875,-0.244140625,[0. 0. 0. 0. 0. 0. 0. 0. 0.],-0.02978515625,0.037109375,1.0029296875,[0. 0. 0. 0. 0. 0. 0. 0. 0.]
1.2227246761322021,0.001681998372077942,0.024258576333522797,0.7128999829292297,0.7008441090583801,[0. 0. 0. 0. 0. 0. 0. 0. 0.],-0.3662109375,-0.48828125,-0.244140625,[0. 0. 0. 0. 0. 0. 0. 0. 0.],-0.03125,0.03759765625,1.00341796875,[0. 0. 0. 0. 0. 0. 0. 0. 0.]
1.242816686630249,0.0021846413146704435,0.02381897158920765,0.7129037380218506,0.7008540034294128,[0. 0. 0. 0. 0. 0. 0. 0. 0.],-0.48828125,-0.6103515625,-0.1220703125,[0. 0. 0. 0. 0. 0. 0. 0. 0.],-0.0302734375,0.037109375,1.00390625,[0. 0. 0. 0. 0. 0. 0. 0. 0.]
1.2627406120300293,0.0019972457084804773,0.023301992565393448,0.7128832340240479,0.7008926272392273,[0. 0. 0. 0. 0. 0. 0. 0. 0.],0.18310546875,-0.54931640625,-0.06103515625,[0. 0. 0. 0. 0. 0. 0. 0. 0.],-0.0302734375,0.03662109375,1.00244140625,[0. 0. 0. 0. 0. 0. 0. 0. 0.]
1.2808561325073242,0.0016236883820965886,0.023806849494576454,0.712848424911499,0.7009122371673584,[0. 0. 0. 0. 0. 0. 0. 0. 0.],0.3662109375,-0.67138671875,-0.18310546875,[0. 0. 0. 0. 0. 0. 0. 0. 0.],-0.03173828125,0.03564453125,1.00390625,[0. 0. 0. 0. 0. 0. 0. 0. 0.]
1.3042488098144531,0.0017673808615654707,0.0234551839530468,0.7128307819366455,0.7009415626525879,[0. 0. 0. 0. 0. 0. 0. 0. 0.],-0.244140625,-0.91552734375,-0.244140625,[0. 0. 0. 0. 0. 0. 0. 0. 0.],-0.0302734375,0.0361328125,1.001953125,[0. 0. 0. 0. 0. 0. 0. 0. 0.]
1.3229057788848877,0.002963772276416421,0.023571601137518883,0.7128326892852783,0.7009315490722656,[0. 0. 0. 0. 0. 0. 0. 0. 0.],-0.67138671875,-0.732421875,-0.18310546875,[0. 0. 0. 0. 0. 0. 0. 0. 0.],-0.029296875,0.03759765625,1.0029296875,[0. 0. 0. 0. 0. 0. 0. 0. 0.]
1.3427886962890625,0.0032382465433329344,0.023779401555657387,0.7128123641014099,0.7009441256523132,[0. 0. 0. 0. 0. 0. 0. 0. 0.],0.0,-0.30517578125,-0.18310546875,[0. 0. 0. 0. 0. 0. 0. 0. 0.],-0.02880859375,0.03857421875,1.001953125,[0. 0. 0. 0. 0. 0. 0. 0. 0.]
1.357861042022705,0.002260705688968301,0.022778455168008804,0.7127938270568848,0.7010000348091125,[0. 0. 0. 0. 0. 0. 0. 0. 0.],0.244140625,-0.48828125,0.06103515625,[0. 0. 0. 0. 0. 0. 0. 0. 0.],-0.02978515625,0.03466796875,1.0009765625,[0. 0. 0. 0. 0. 0. 0. 0. 0.]
1.3828511238098145,0.002541878493502736,0.022539407014846802,0.7127756476402283,0.7010252475738525,[0. 0. 0. 0. 0. 0. 0. 0. 0.],0.06103515625,-1.03759765625,-0.1220703125,[0. 0. 0. 0. 0. 0. 0. 0. 0.],-0.02880859375,0.0361328125,1.001953125,[0. 0. 0. 0. 0. 0. 0. 0. 0.]
1.4038941860198975,0.003102595219388604,0.02313935197889805,0.7127500772476196,0.7010295391082764,[0. 0. 0. 0. 0. 0. 0. 0. 0.],-0.18310546875,-0.79345703125,-0.244140625,[0. 0. 0. 0. 0. 0. 0. 0. 0.],-0.0283203125,0.037109375,1.00146484375,[0. 0. 0. 0. 0. 0. 0. 0. 0.]
1.417879343032837,0.0021909878123551607,0.023715270683169365,0.7127088904380798,0.7010555267333984,[0. 0. 0. 0. 0. 0. 0. 0. 0.],-0.1220703125,-0.30517578125,-0.244140625,[0. 0. 0. 0. 0. 0. 0. 0. 0.],-0.0302734375,0.037109375,1.00146484375,[0. 0. 0. 0. 0. 0. 0. 0. 0.]
1.4387874603271484,0.003208734327927232,0.023970667272806168,0.7127068042755127,0.7010450959205627,[0. 0. 0. 0. 0. 0. 0. 0. 0.],-0.1220703125,-0.48828125,-0.06103515625,[0. 0. 0. 0. 0. 0. 0. 0. 0.],-0.02978515625,0.03857421875,1.0029296875,[0. 0. 0. 0. 0. 0. 0. 0. 0.]
1.4626836776733398,0.0020199737045913935,0.023370709270238876,0.7126740217208862,0.701103150844574,[0. 0. 0. 0. 0. 0. 0. 0. 0.],-0.3662109375,-0.67138671875,-0.1220703125,[0. 0. 0. 0. 0. 0. 0. 0. 0.],-0.02978515625,0.03662109375,1.00439453125,[0. 0. 0. 0. 0. 0. 0. 0. 0.]
1.4819746017456055,0.0017382949590682983,0.02402018941938877,0.7126296758651733,0.7011269330978394,[0. 0. 0. 0. 0. 0. 0. 0. 0.],0.1220703125,-0.30517578125,0.0,[0. 0. 0. 0. 0. 0. 0. 0. 0.],-0.03173828125,0.03662109375,1.00244140625,[0. 0. 0. 0. 0. 0. 0. 0. 0.]
1.5028023719787598,0.0014906434807926416,0.02331584505736828,0.7126180529594421,0.701163113117218,[0. 0. 0. 0. 0. 0. 0. 0. 0.],0.1220703125,-0.8544921875,-0.1220703125,[0. 0. 0. 0. 0. 0. 0. 0. 0.],-0.03076171875,0.03564453125,1.0009765625,[0. 0. 0. 0. 0. 0. 0. 0. 0.]
1.522923469543457,0.0023351414129137993,0.023218858987092972,0.7126080989837646,0.7011741995811462,[0. 0. 0. 0. 0. 0. 0. 0. 0.],-0.42724609375,-0.732421875,-0.30517578125,[0. 0. 0. 0. 0. 0. 0. 0. 0.],-0.029296875,0.03662109375,1.00146484375,[0. 0. 0. 0. 0. 0. 0. 0. 0.]
1.5430116653442383,0.0023645106703042984,0.023204507306218147,0.7125873565673828,0.7011955380439758,[0. 0. 0. 0. 0. 0. 0. 0. 0.],-0.30517578125,-0.6103515625,-0.244140625,[0. 0. 0. 0. 0. 0. 0. 0. 0.],-0.029296875,0.03662109375,1.0029296875,[0. 0. 0. 0. 0. 0. 0. 0. 0.]
1.56624174118042,0.0017696531722322106,0.023237934336066246,0.7125511169433594,0.7012331485748291,[0. 0. 0. 0. 0. 0. 0. 0. 0.],-0.1220703125,-0.244140625,-0.244140625,[0. 0. 0. 0. 0. 0. 0. 0. 0.],-0.0302734375,0.03564453125,1.001953125,[0. 0. 0. 0. 0. 0. 0. 0. 0.]
1.584146499633789,0.0016004479257389903,0.02342159114778042,0.7125266194343567,0.7012523412704468,[0. 0. 0. 0. 0. 0. 0. 0. 0.],0.06103515625,-0.732421875,0.06103515625,[0. 0. 0. 0. 0. 0. 0. 0. 0.],-0.0302734375,0.03564453125,1.00146484375,[0. 0. 0. 0. 0. 0. 0. 0. 0.]
1.6030406951904297,0.002274413127452135,0.022669797763228416,0.7125352025032043,0.701266348361969,[0. 0. 0. 0. 0. 0. 0. 0. 0.],-0.30517578125,-0.9765625,-0.1220703125,[0. 0. 0. 0. 0. 0. 0. 0. 0.],-0.029296875,0.03564453125,1.00244140625,[0. 0. 0. 0. 0. 0. 0. 0. 0.]
1.6230192184448242,0.002722343895584345,0.02353259176015854,0.7125075459480286,0.7012643814086914,[0. 0. 0. 0. 0. 0. 0. 0. 0.],-0.244140625,-0.48828125,-0.244140625,[0. 0. 0. 0. 0. 0. 0. 0. 0.],-0.029296875,0.03759765625,1.00390625,[0. 0. 0. 0. 0. 0. 0. 0. 0.]
1.6435399055480957,0.002744796220213175,0.023577574640512466,0.7124891877174377,0.7012815475463867,[0. 0. 0. 0. 0. 0. 0. 0. 0.],0.0,-0.244140625,-0.06103515625,[0. 0. 0. 0. 0. 0. 0. 0. 0.],-0.029296875,0.03759765625,1.0029296875,[0. 0. 0. 0. 0. 0. 0. 0. 0.]
1.662839412689209,0.001956949243322015,0.02326309122145176,0.7124693989753723,0.7013148665428162,[0. 0. 0. 0. 0. 0. 0. 0. 0.],-0.18310546875,-0.67138671875,0.06103515625,[0. 0. 0. 0. 0. 0. 0. 0. 0.],-0.02978515625,0.0361328125,1.0,[0. 0. 0. 0. 0. 0. 0. 0. 0.]
1.6829407215118408,0.0011416780762374401,0.023406218737363815,0.7124314904212952,0.7013502717018127,[0. 0. 0. 0. 0. 0. 0. 0. 0.],0.06103515625,-1.0986328125,-0.06103515625,[0. 0. 0. 0. 0. 0. 0. 0. 0.],-0.03125,0.03515625,1.00341796875,[0. 0. 0. 0. 0. 0. 0. 0. 0.]
1.7029590606689453,0.0017242664471268654,0.023849092423915863,0.7124143838882446,0.7013516426086426,[0. 0. 0. 0. 0. 0. 0. 0. 0.],0.0,-0.6103515625,-0.244140625,[0. 0. 0. 0. 0. 0. 0. 0. 0.],-0.03076171875,0.037109375,1.00439453125,[0. 0. 0. 0. 0. 0. 0. 0. 0.]
1.7233786582946777,0.0023621234577149153,0.023147931322455406,0.7124249935150146,0.7013624310493469,[0. 0. 0. 0. 0. 0. 0. 0. 0.],-0.3662109375,-0.48828125,-0.18310546875,[0. 0. 0. 0. 0. 0. 0. 0. 0.],-0.02978515625,0.03662109375,1.00244140625,[0. 0. 0. 0. 0. 0. 0. 0. 0.]
1.7430527210235596,0.0023234377149492502,0.023583773523569107,0.7123933434486389,0.7013802528381348,[0. 0. 0. 0. 0. 0. 0. 0. 0.],-0.48828125,-0.6103515625,-0.06103515625,[0. 0. 0. 0. 0. 0. 0. 0. 0.],-0.02978515625,0.03662109375,1.00244140625,[0. 0. 0. 0. 0. 0. 0. 0. 0.]
1.7628254890441895,0.0022236478980630636,0.023632457479834557,0.7123672366142273,0.70140540599823,[0. 0. 0. 0. 0. 0. 0. 0. 0.],0.18310546875,-0.6103515625,-0.06103515625,[0. 0. 0. 0. 0. 0. 0. 0. 0.],-0.0302734375,0.03662109375,1.00390625,[0. 0. 0. 0. 0. 0. 0. 0. 0.]
1.782996654510498,0.0021011761855334044,0.023790471255779266,0.7123246788978577,0.701443612575531,[0. 0. 0. 0. 0. 0. 0. 0. 0.],0.3662109375,-0.6103515625,-0.18310546875,[0. 0. 0. 0. 0. 0. 0. 0. 0.],-0.03076171875,0.03662109375,1.00439453125,[0. 0. 0. 0. 0. 0. 0. 0. 0.]
1.8039565086364746,0.001474169665016234,0.02332812361419201,0.7123066186904907,0.7014790773391724,[0. 0. 0. 0. 0. 0. 0. 0. 0.],-0.244140625,-0.732421875,-0.244140625,[0. 0. 0. 0. 0. 0. 0. 0. 0.],-0.03076171875,0.03564453125,1.00341796875,[0. 0. 0. 0. 0. 0. 0. 0. 0.]
1.8236439228057861,0.002071954542770982,0.02328677661716938,0.7122928500175476,0.7014930248260498,[0. 0. 0. 0. 0. 0. 0. 0. 0.],-0.42724609375,-0.732421875,-0.244140625,[0. 0. 0. 0. 0. 0. 0. 0. 0.],-0.02978515625,0.0361328125,1.00244140625,[0. 0. 0. 0. 0. 0. 0. 0. 0.]
1.8427560329437256,0.0023653144016861916,0.02426755428314209,0.7122653722763062,0.7014866471290588,[0. 0. 0. 0. 0. 0. 0. 0. 0.],0.1220703125,-0.30517578125,-0.1220703125,[0. 0. 0. 0. 0. 0. 0. 0. 0.],-0.03076171875,0.037109375,1.00244140625,[0. 0. 0. 0. 0. 0. 0. 0. 0.]
1.862884283065796,0.0019612351898103952,0.023561621084809303,0.7122510671615601,0.7015265822410583,[0. 0. 0. 0. 0. 0. 0. 0. 0.],0.48828125,-0.6103515625,0.06103515625,[0. 0. 0. 0. 0. 0. 0. 0. 0.],-0.0302734375,0.03662109375,1.00244140625,[0. 0. 0. 0. 0. 0. 0. 0. 0.]
1.877988576889038,0.001788796973414719,0.023536885157227516,0.7122206687927246,0.7015587687492371,[0. 0. 0. 0. 0. 0. 0. 0. 0.],-0.18310546875,-1.03759765625,-0.244140625,[0. 0. 0. 0. 0. 0. 0. 0. 0.],-0.03076171875,0.0361328125,1.00244140625,[0. 0. 0. 0. 0. 0. 0. 0. 0.]
1.8980891704559326,0.0017704671481624246,0.023427855223417282,0.7121960520744324,0.7015873789787292,[0. 0. 0. 0. 0. 0. 0. 0. 0.],-0.3662109375,-0.8544921875,-0.42724609375,[0. 0. 0. 0. 0. 0. 0. 0. 0.],-0.03076171875,0.03662109375,1.00341796875,[0. 0. 0. 0. 0. 0. 0. 0. 0.]
1.9183669090270996,0.002066082553938031,0.02391776256263256,0.7121775150299072,0.7015888094902039,[0. 0. 0. 0. 0. 0. 0. 0. 0.],-0.244140625,-0.54931640625,-0.244140625,[0. 0. 0. 0. 0. 0. 0. 0. 0.],-0.03076171875,0.03759765625,1.00244140625,[0. 0. 0. 0. 0. 0. 0. 0. 0.]
1.9434006214141846,0.003024153411388397,0.023710409179329872,0.7121875286102295,0.7015822529792786,[0. 0. 0. 0. 0. 0. 0. 0. 0.],-0.54931640625,-0.6103515625,-0.244140625,[0. 0. 0. 0. 0. 0. 0. 0. 0.],-0.029296875,0.0380859375,1.001953125,[0. 0. 0. 0. 0. 0. 0. 0. 0.]
1.963097095489502,0.0020080655813217163,0.023459063842892647,0.7121580839157104,0.7016242146492004,[0. 0. 0. 0. 0. 0. 0. 0. 0.],-0.1220703125,-0.67138671875,-0.06103515625,[0. 0. 0. 0. 0. 0. 0. 0. 0.],-0.03076171875,0.0361328125,1.00146484375,[0. 0. 0. 0. 0. 0. 0. 0. 0.]
1.9779253005981445,0.002208300167694688,0.023468999192118645,0.7121356129646301,0.7016461491584778,[0. 0. 0. 0. 0. 0. 0. 0. 0.],0.42724609375,-0.732421875,-0.1220703125,[0. 0. 0. 0. 0. 0. 0. 0. 0.],-0.0302734375,0.03662109375,1.0029296875,[0. 0. 0. 0. 0. 0. 0. 0. 0.]
2.0029897689819336,0.0017742938362061977,0.0231968741863966,0.7121059894561768,0.701686441898346,[0. 0. 0. 0. 0. 0. 0. 0. 0.],0.06103515625,-0.67138671875,-0.18310546875,[0. 0. 0. 0. 0. 0. 0. 0. 0.],-0.02978515625,0.03564453125,1.00390625,[0. 0. 0. 0. 0. 0. 0. 0. 0.]
2.0229270458221436,0.0025797346606850624,0.023726802319288254,0.7121002674102783,0.7016720175743103,[0. 0. 0. 0. 0. 0. 0. 0. 0.],-0.42724609375,-0.8544921875,-0.18310546875,[0. 0. 0. 0. 0. 0. 0. 0. 0.],-0.02978515625,0.03759765625,1.001953125,[0. 0. 0. 0. 0. 0. 0. 0. 0.]
2.0428147315979004,0.0023538428358733654,0.024250367656350136,0.7120657563209534,0.7016898989677429,[0. 0. 0. 0. 0. 0. 0. 0. 0.],-0.3662109375,-0.54931640625,-0.18310546875,[0. 0. 0. 0. 0. 0. 0. 0. 0.],-0.03076171875,0.03759765625,1.001953125,[0. 0. 0. 0. 0. 0. 0. 0. 0.]
2.064410448074341,0.001852459623478353,0.024129565805196762,0.7120424509048462,0.7017192840576172,[0. 0. 0. 0. 0. 0. 0. 0. 0.],-0.1220703125,-0.244140625,-0.18310546875,[0. 0. 0. 0. 0. 0. 0. 0. 0.],-0.03125,0.037109375,1.0009765625,[0. 0. 0. 0. 0. 0. 0. 0. 0.]
2.08418607711792,0.0022850532550364733,0.02340349368751049,0.712053656578064,0.7017312049865723,[0. 0. 0. 0. 0. 0. 0. 0. 0.],0.06103515625,-0.79345703125,0.06103515625,[0. 0. 0. 0. 0. 0. 0. 0. 0.],-0.02978515625,0.037109375,1.00439453125,[0. 0. 0. 0. 0. 0. 0. 0. 0.]
2.108008623123169,0.0024439652916043997,0.023318598046898842,0.7120307087898254,0.7017567753791809,[0. 0. 0. 0. 0. 0. 0. 0. 0.],0.0,-0.91552734375,-0.06103515625,[0. 0. 0. 0. 0. 0. 0. 0. 0.],-0.02978515625,0.03662109375,1.00439453125,[0. 0. 0. 0. 0. 0. 0. 0. 0.]
2.1228630542755127,0.0020190116483718157,0.023288821801543236,0.7120062112808228,0.701784074306488,[0. 0. 0. 0. 0. 0. 0. 0. 0.],-0.1220703125,-0.48828125,-0.244140625,[0. 0. 0. 0. 0. 0. 0. 0. 0.],-0.02978515625,0.0361328125,1.00146484375,[0. 0. 0. 0. 0. 0. 0. 0. 0.]
2.141080141067505,0.0021866224706172943,0.023350536823272705,0.7119951844215393,0.7017926573753357,[0. 0. 0. 0. 0. 0. 0. 0. 0.],0.0,-0.30517578125,-0.06103515625,[0. 0. 0. 0. 0. 0. 0. 0. 0.],-0.02978515625,0.037109375,1.00390625,[0. 0. 0. 0. 0. 0. 0. 0. 0.]
2.162801504135132,0.0022352945525199175,0.023378189653158188,0.7119724154472351,0.7018146514892578,[0. 0. 0. 0. 0. 0. 0. 0. 0.],-0.18310546875,-0.732421875,-0.06103515625,[0. 0. 0. 0. 0. 0. 0. 0. 0.],-0.02978515625,0.03662109375,1.0029296875,[0. 0. 0. 0. 0. 0. 0. 0. 0.]
2.184858560562134,0.0016358871944248676,0.02400527335703373,0.7119173407554626,0.7018510103225708,[0. 0. 0. 0. 0. 0. 0. 0. 0.],0.06103515625,-1.03759765625,-0.18310546875,[0. 0. 0. 0. 0. 0. 0. 0. 0.],-0.03125,0.03662109375,1.0029296875,[0. 0. 0. 0. 0. 0. 0. 0. 0.]
2.202911853790283,0.0031246053986251354,0.02458624169230461,0.7119013667106628,0.7018419504165649,[0. 0. 0. 0. 0. 0. 0. 0. 0.],0.06103515625,-0.6103515625,-0.30517578125,[0. 0. 0. 0. 0. 0. 0. 0. 0.],-0.03076171875,0.0390625,1.001953125,[0. 0. 0. 0. 0. 0. 0. 0. 0.]
2.218172788619995,0.0021299871150404215,0.023055341094732285,0.7118995785713196,0.7018995881080627,[0. 0. 0. 0. 0. 0. 0. 0. 0.],-0.3662109375,-0.42724609375,-0.1220703125,[0. 0. 0. 0. 0. 0. 0. 0. 0.],-0.029296875,0.03564453125,1.00341796875,[0. 0. 0. 0. 0. 0. 0. 0. 0.]
2.2381134033203125,0.0022200976964086294,0.02255120687186718,0.7118957042694092,0.7019195556640625,[0. 0. 0. 0. 0. 0. 0. 0. 0.],-0.42724609375,-0.6103515625,0.0,[0. 0. 0. 0. 0. 0. 0. 0. 0.],-0.02880859375,0.03515625,1.001953125,[0. 0. 0. 0. 0. 0. 0. 0. 0.]
2.2627837657928467,0.0017456024652346969,0.023971104994416237,0.7118414044380188,0.7019288539886475,[0. 0. 0. 0. 0. 0. 0. 0. 0.],0.3662109375,-0.6103515625,-0.1220703125,[0. 0. 0. 0. 0. 0. 0. 0. 0.],-0.03125,0.03662109375,1.001953125,[0. 0. 0. 0. 0. 0. 0. 0. 0.]
2.2831099033355713,0.0019127230625599623,0.023617351427674294,0.7118292450904846,0.7019528746604919,[0. 0. 0. 0. 0. 0. 0. 0. 0.],0.42724609375,-0.6103515625,-0.06103515625,[0. 0. 0. 0. 0. 0. 0. 0. 0.],-0.03076171875,0.03662109375,1.00244140625,[0. 0. 0. 0. 0. 0. 0. 0. 0.]
2.300614595413208,0.0016596540808677673,0.0233486145734787,0.7118109464645386,0.7019809484481812,[0. 0. 0. 0. 0. 0. 0. 0. 0.],-0.18310546875,-0.91552734375,-0.18310546875,[0. 0. 0. 0. 0. 0. 0. 0. 0.],-0.03076171875,0.03564453125,1.0048828125,[0. 0. 0. 0. 0. 0. 0. 0. 0.]
2.322840929031372,0.0017953913193196058,0.02288030833005905,0.7118101119995117,0.701996922492981,[0. 0. 0. 0. 0. 0. 0. 0. 0.],-0.54931640625,-0.6103515625,-0.30517578125,[0. 0. 0. 0. 0. 0. 0. 0. 0.],-0.02978515625,0.03564453125,1.00390625,[0. 0. 0. 0. 0. 0. 0. 0. 0.]
2.3385114669799805,0.002403516788035631,0.02374035120010376,0.7117775082588196,0.7019996643066406,[0. 0. 0. 0. 0. 0. 0. 0. 0.],0.1220703125,-0.42724609375,-0.1220703125,[0. 0. 0. 0. 0. 0. 0. 0. 0.],-0.03076171875,0.03759765625,1.0029296875,[0. 0. 0. 0. 0. 0. 0. 0. 0.]
2.362778425216675,0.001854593981988728,0.02364206686615944,0.7117469906806946,0.7020354270935059,[0. 0. 0. 0. 0. 0. 0. 0. 0.],0.3662109375,-0.67138671875,-0.06103515625,[0. 0. 0. 0. 0. 0. 0. 0. 0.],-0.03076171875,0.0361328125,1.00439453125,[0. 0. 0. 0. 0. 0. 0. 0. 0.]
2.380462884902954,0.0021401378326117992,0.023168427869677544,0.7117410898208618,0.7020564675331116,[0. 0. 0. 0. 0. 0. 0. 0. 0.],0.06103515625,-0.8544921875,-0.06103515625,[0. 0. 0. 0. 0. 0. 0. 0. 0.],-0.02978515625,0.0361328125,1.00390625,[0. 0. 0. 0. 0. 0. 0. 0. 0.]
2.4029645919799805,0.0018990503158420324,0.02309088222682476,0.711706280708313,0.7020950317382812,[0. 0. 0. 0. 0. 0. 0. 0. 0.],0.1220703125,-0.91552734375,-0.18310546875,[0. 0. 0. 0. 0. 0. 0. 0. 0.],-0.02978515625,0.03515625,1.00390625,[0. 0. 0. 0. 0. 0. 0. 0. 0.]
2.422950267791748,0.0025601277593523264,0.02374659851193428,0.7116736769676208,0.7021040320396423,[0. 0. 0. 0. 0. 0. 0. 0. 0.],-0.18310546875,-0.42724609375,-0.30517578125,[0. 0. 0. 0. 0. 0. 0. 0. 0.],-0.02978515625,0.037109375,1.0029296875,[0. 0. 0. 0. 0. 0. 0. 0. 0.]
2.4428093433380127,0.0023247895296663046,0.023323342204093933,0.7116695642471313,0.7021232843399048,[0. 0. 0. 0. 0. 0. 0. 0. 0.],-0.48828125,-0.48828125,-0.06103515625,[0. 0. 0. 0. 0. 0. 0. 0. 0.],-0.0302734375,0.037109375,1.0029296875,[0. 0. 0. 0. 0. 0. 0. 0. 0.]
2.4636189937591553,0.001994604943320155,0.023340286687016487,0.7116480469703674,0.702145516872406,[0. 0. 0. 0. 0. 0. 0. 0. 0.],-0.06103515625,-0.732421875,0.0,[0. 0. 0. 0. 0. 0. 0. 0. 0.],-0.0302734375,0.0361328125,1.00634765625,[0. 0. 0. 0. 0. 0. 0. 0. 0.]
2.4827234745025635,0.00278716953471303,0.023425595834851265,0.7116270065307617,0.7021613121032715,[0. 0. 0. 0. 0. 0. 0. 0. 0.],0.42724609375,-0.67138671875,-0.06103515625,[0. 0. 0. 0. 0. 0. 0. 0. 0.],-0.029296875,0.037109375,1.0048828125,[0. 0. 0. 0. 0. 0. 0. 0. 0.]
2.50468111038208,0.002201087074354291,0.02316056750714779,0.7115948796272278,0.7022048234939575,[0. 0. 0. 0. 0. 0. 0. 0. 0.],0.0,-0.54931640625,-0.1220703125,[0. 0. 0. 0. 0. 0. 0. 0. 0.],-0.029296875,0.03564453125,1.00390625,[0. 0. 0. 0. 0. 0. 0. 0. 0.]
2.52274489402771,0.0027123538311570883,0.022946828976273537,0.7115907073020935,0.7022143006324768,[0. 0. 0. 0. 0. 0. 0. 0. 0.],-0.67138671875,-0.6103515625,-0.244140625,[0. 0. 0. 0. 0. 0. 0. 0. 0.],-0.02880859375,0.037109375,1.00244140625,[0. 0. 0. 0. 0. 0. 0. 0. 0.]
2.5436673164367676,0.0013916390016674995,0.023623233661055565,0.7115399241447449,0.7022470831871033,[0. 0. 0. 0. 0. 0. 0. 0. 0.],-0.244140625,-0.42724609375,-0.1220703125,[0. 0. 0. 0. 0. 0. 0. 0. 0.],-0.03125,0.03564453125,1.00244140625,[0. 0. 0. 0. 0. 0. 0. 0. 0.]
2.5627832412719727,0.001656124135479331,0.023735184222459793,0.7115186452865601,0.7022644281387329,[0. 0. 0. 0. 0. 0. 0. 0. 0.],0.3662109375,-0.48828125,-0.1220703125,[0. 0. 0. 0. 0. 0. 0. 0. 0.],-0.03125,0.0361328125,1.0029296875,[0. 0. 0. 0. 0. 0. 0. 0. 0.]
2.582780122756958,0.0017019094666466117,0.023209482431411743,0.7115194201469421,0.70228111743927,[0. 0. 0. 0. 0. 0. 0. 0. 0.],0.06103515625,-0.8544921875,0.0,[0. 0. 0. 0. 0. 0. 0. 0. 0.],-0.0302734375,0.03564453125,1.001953125,[0. 0. 0. 0. 0. 0. 0. 0. 0.]
2.6025562286376953,0.002200943185016513,0.02404116839170456,0.7114952802658081,0.7022760510444641,[0. 0. 0. 0. 0. 0. 0. 0. 0.],-0.6103515625,-0.9765625,-0.3662109375,[0. 0. 0. 0. 0. 0. 0. 0. 0.],-0.03076171875,0.03759765625,1.00439453125,[0. 0. 0. 0. 0. 0. 0. 0. 0.]
2.6230628490448,0.001989491283893585,0.023078953847289085,0.7114861607551575,0.7023183107376099,[0. 0. 0. 0. 0. 0. 0. 0. 0.],-0.244140625,-0.42724609375,-0.244140625,[0. 0. 0. 0. 0. 0. 0. 0. 0.],-0.029296875,0.03564453125,1.001953125,[0. 0. 0. 0. 0. 0. 0. 0. 0.]
2.6428582668304443,0.0016004194039851427,0.023413339629769325,0.7114512920379639,0.7023435831069946,[0. 0. 0. 0. 0. 0. 0. 0. 0.],0.06103515625,-0.244140625,0.0,[0. 0. 0. 0. 0. 0. 0. 0. 0.],-0.03076171875,0.03564453125,1.00048828125,[0. 0. 0. 0. 0. 0. 0. 0. 0.]
2.659106492996216,0.0017524001887068152,0.023100001737475395,0.7114490270614624,0.7023558020591736,[0. 0. 0. 0. 0. 0. 0. 0. 0.],-0.06103515625,-0.8544921875,0.0,[0. 0. 0. 0. 0. 0. 0. 0. 0.],-0.02978515625,0.03564453125,1.005859375,[0. 0. 0. 0. 0. 0. 0. 0. 0.]
2.682847499847412,0.001813198090530932,0.023038802668452263,0.7114245295524597,0.702382504940033,[0. 0. 0. 0. 0. 0. 0. 0. 0.],0.0,-0.9765625,-0.18310546875,[0. 0. 0. 0. 0. 0. 0. 0. 0.],-0.02978515625,0.03564453125,1.00244140625,[0. 0. 0. 0. 0. 0. 0. 0. 0.]
2.707571506500244,0.001891250954940915,0.023730717599391937,0.711397111415863,0.7023869752883911,[0. 0. 0. 0. 0. 0. 0. 0. 0.],0.244140625,-0.67138671875,-0.244140625,[0. 0. 0. 0. 0. 0. 0. 0. 0.],-0.03125,0.03662109375,1.00341796875,[0. 0. 0. 0. 0. 0. 0. 0. 0.]
2.7227420806884766,0.0025115658063441515,0.023822152987122536,0.7113940715789795,0.7023850679397583,[0. 0. 0. 0. 0. 0. 0. 0. 0.],-0.30517578125,-0.42724609375,-0.1220703125,[0. 0. 0. 0. 0. 0. 0. 0. 0.],-0.02978515625,0.03759765625,1.00146484375,[0. 0. 0. 0. 0. 0. 0. 0. 0.]
2.7433383464813232,0.0014242843026295304,0.022841760888695717,0.7113857269287109,0.7024291753768921,[0. 0. 0. 0. 0. 0. 0. 0. 0.],-0.244140625,-0.67138671875,0.0,[0. 0. 0. 0. 0. 0. 0. 0. 0.],-0.02978515625,0.03515625,1.0048828125,[0. 0. 0. 0. 0. 0. 0. 0. 0.]
2.763665199279785,0.002415240742266178,0.023208344355225563,0.71136075258255,0.7024397253990173,[0. 0. 0. 0. 0. 0. 0. 0. 0.],0.30517578125,-0.91552734375,-0.18310546875,[0. 0. 0. 0. 0. 0. 0. 0. 0.],-0.029296875,0.03662109375,1.00390625,[0. 0. 0. 0. 0. 0. 0. 0. 0.]
2.785534143447876,0.0027834868524223566,0.023119240999221802,0.7113425135612488,0.7024597525596619,[0. 0. 0. 0. 0. 0. 0. 0. 0.],0.30517578125,-0.54931640625,-0.06103515625,[0. 0. 0. 0. 0. 0. 0. 0. 0.],-0.02880859375,0.03662109375,1.00244140625,[0. 0. 0. 0. 0. 0. 0. 0. 0.]
2.804216146469116,0.0018057978013530374,0.023305336013436317,0.7113122940063477,0.7024873495101929,[0. 0. 0. 0. 0. 0. 0. 0. 0.],-0.54931640625,-0.8544921875,-0.244140625,[0. 0. 0. 0. 0. 0. 0. 0. 0.],-0.0302734375,0.0361328125,1.0,[0. 0. 0. 0. 0. 0. 0. 0. 0.]
2.8187432289123535,0.0019568693824112415,0.02351388894021511,0.7113009691238403,0.7024915814399719,[0. 0. 0. 0. 0. 0. 0. 0. 0.],-0.48828125,-0.48828125,-0.06103515625,[0. 0. 0. 0. 0. 0. 0. 0. 0.],-0.03076171875,0.03662109375,1.00146484375,[0. 0. 0. 0. 0. 0. 0. 0. 0.]
2.8427281379699707,0.0020916915964335203,0.02320748195052147,0.7112846374511719,0.7025178074836731,[0. 0. 0. 0. 0. 0. 0. 0. 0.],0.30517578125,-0.42724609375,-0.1220703125,[0. 0. 0. 0. 0. 0. 0. 0. 0.],-0.02978515625,0.0361328125,1.00390625,[0. 0. 0. 0. 0. 0. 0. 0. 0.]
2.8636739253997803,0.0023545767180621624,0.022931672632694244,0.7112792730331421,0.7025313973426819,[0. 0. 0. 0. 0. 0. 0. 0. 0.],0.0,-0.54931640625,0.0,[0. 0. 0. 0. 0. 0. 0. 0. 0.],-0.029296875,0.0361328125,1.00537109375,[0. 0. 0. 0. 0. 0. 0. 0. 0.]
2.882904052734375,0.0020647034980356693,0.022578883916139603,0.71126389503479,0.7025593519210815,[0. 0. 0. 0. 0. 0. 0. 0. 0.],-0.1220703125,-0.9765625,0.0,[0. 0. 0. 0. 0. 0. 0. 0. 0.],-0.029296875,0.03564453125,1.0048828125,[0. 0. 0. 0. 0. 0. 0. 0. 0.]
2.9035604000091553,0.0018523898907005787,0.02364838682115078,0.7112149000167847,0.7025744915008545,[0. 0. 0. 0. 0. 0. 0. 0. 0.],-0.1220703125,-0.8544921875,-0.244140625,[0. 0. 0. 0. 0. 0. 0. 0. 0.],-0.03076171875,0.03662109375,1.00439453125,[0. 0. 0. 0. 0. 0. 0. 0. 0.]
2.9227285385131836,0.0019174442859366536,0.02381196618080139,0.7111918926239014,0.7025918960571289,[0. 0. 0. 0. 0. 0. 0. 0. 0.],-0.244140625,-0.42724609375,-0.244140625,[0. 0. 0. 0. 0. 0. 0. 0. 0.],-0.03076171875,0.037109375,1.00244140625,[0. 0. 0. 0. 0. 0. 0. 0. 0.]
2.945469856262207,0.00269295834004879,0.023484423756599426,0.7111954092979431,0.70259690284729,[0. 0. 0. 0. 0. 0. 0. 0. 0.],-0.30517578125,-0.67138671875,-0.1220703125,[0. 0. 0. 0. 0. 0. 0. 0. 0.],-0.029296875,0.03759765625,1.00439453125,[0. 0. 0. 0. 0. 0. 0. 0. 0.]
2.9583804607391357,0.0017297896556556225,0.023091083392500877,0.7111641764640808,0.7026446461677551,[0. 0. 0. 0. 0. 0. 0. 0. 0.],0.0,-0.8544921875,-0.1220703125,[0. 0. 0. 0. 0. 0. 0. 0. 0.],-0.0302734375,0.0361328125,1.00341796875,[0. 0. 0. 0. 0. 0. 0. 0. 0.]
2.9829251766204834,0.0018318964866921306,0.023038335144519806,0.7111358642578125,0.7026746869087219,[0. 0. 0. 0. 0. 0. 0. 0. 0.],0.42724609375,-0.67138671875,-0.1220703125,[0. 0. 0. 0. 0. 0. 0. 0. 0.],-0.0302734375,0.03515625,1.00244140625,[0. 0. 0. 0. 0. 0. 0. 0. 0.]
3.0028610229492188,0.0018955506384372711,0.023586411029100418,0.7111096978187561,0.7026827931404114,[0. 0. 0. 0. 0. 0. 0. 0. 0.],0.0,-0.54931640625,-0.244140625,[0. 0. 0. 0. 0. 0. 0. 0. 0.],-0.0302734375,0.0361328125,1.00341796875,[0. 0. 0. 0. 0. 0. 0. 0. 0.]
3.0231502056121826,0.0020636925473809242,0.02331376075744629,0.7110993266105652,0.7027019262313843,[0. 0. 0. 0. 0. 0. 0. 0. 0.],-0.54931640625,-0.67138671875,-0.244140625,[0. 0. 0. 0. 0. 0. 0. 0. 0.],-0.02978515625,0.03662109375,1.00244140625,[0. 0. 0. 0. 0. 0. 0. 0. 0.]
3.0450599193573,0.0019442811608314514,0.02412160113453865,0.7110520005226135,0.7027229070663452,[0. 0. 0. 0. 0. 0. 0. 0. 0.],-0.30517578125,-0.42724609375,-0.244140625,[0. 0. 0. 0. 0. 0. 0. 0. 0.],-0.03125,0.037109375,1.0009765625,[0. 0. 0. 0. 0. 0. 0. 0. 0.]
3.0579843521118164,0.003019824158400297,0.023183505982160568,0.7110732793807983,0.7027291059494019,[0. 0. 0. 0. 0. 0. 0. 0. 0.],0.48828125,-0.54931640625,-0.06103515625,[0. 0. 0. 0. 0. 0. 0. 0. 0.],-0.029296875,0.03759765625,1.00439453125,[0. 0. 0. 0. 0. 0. 0. 0. 0.]
3.0830295085906982,0.001840686541981995,0.023363981395959854,0.7110295295715332,0.7027715444564819,[0. 0. 0. 0. 0. 0. 0. 0. 0.],0.0,-0.9765625,-0.06103515625,[0. 0. 0. 0. 0. 0. 0. 0. 0.],-0.03076171875,0.03564453125,1.0029296875,[0. 0. 0. 0. 0. 0. 0. 0. 0.]
3.102917194366455,0.002453956985846162,0.023888062685728073,0.7110156416893005,0.7027660608291626,[0. 0. 0. 0. 0. 0. 0. 0. 0.],-0.48828125,-0.91552734375,-0.3662109375,[0. 0. 0. 0. 0. 0. 0. 0. 0.],-0.0302734375,0.03759765625,1.00244140625,[0. 0. 0. 0. 0. 0. 0. 0. 0.]
3.122739315032959,0.0023702518083155155,0.024725135415792465,0.7109847664833069,0.7027686834335327,[0. 0. 0. 0. 0. 0. 0. 0. 0.],-0.1220703125,-0.244140625,-0.1220703125,[0. 0. 0. 0. 0. 0. 0. 0. 0.],-0.03173828125,0.0380859375,1.00048828125,[0. 0. 0. 0. 0. 0. 0. 0. 0.]
3.143049716949463,0.001838693511672318,0.02361617609858513,0.7109804749488831,0.702812671661377,[0. 0. 0. 0. 0. 0. 0. 0. 0.],0.1220703125,-0.3662109375,-0.06103515625,[0. 0. 0. 0. 0. 0. 0. 0. 0.],-0.03125,0.0361328125,1.00341796875,[0. 0. 0. 0. 0. 0. 0. 0. 0.]
3.16288423538208,0.0014321120688691735,0.023978285491466522,0.7109501361846924,0.7028321027755737,[0. 0. 0. 0. 0. 0. 0. 0. 0.],0.1220703125,-0.8544921875,0.1220703125,[0. 0. 0. 0. 0. 0. 0. 0. 0.],-0.03173828125,0.0361328125,1.00390625,[0. 0. 0. 0. 0. 0. 0. 0. 0.]
3.178493022918701,0.0019675239454954863,0.023703210055828094,0.7109426856040955,0.7028477191925049,[0. 0. 0. 0. 0. 0. 0. 0. 0.],-0.06103515625,-1.03759765625,-0.18310546875,[0. 0. 0. 0. 0. 0. 0. 0. 0.],-0.03076171875,0.03662109375,1.0048828125,[0. 0. 0. 0. 0. 0. 0. 0. 0.]
3.203127861022949,0.00236711953766644,0.02316770702600479,0.7109259366989136,0.7028812766075134,[0. 0. 0. 0. 0. 0. 0. 0. 0.],-0.1220703125,-0.54931640625,-0.30517578125,[0. 0. 0. 0. 0. 0. 0. 0. 0.],-0.029296875,0.03662109375,1.00244140625,[0. 0. 0. 0. 0. 0. 0. 0. 0.]
3.2228171825408936,0.0020004487596452236,0.023671800270676613,0.710895836353302,0.7028961181640625,[0. 0. 0. 0. 0. 0. 0. 0. 0.],-0.18310546875,-0.42724609375,-0.18310546875,[0. 0. 0. 0. 0. 0. 0. 0. 0.],-0.03076171875,0.03662109375,1.00439453125,[0. 0. 0. 0. 0. 0. 0. 0. 0.]
3.242608070373535,0.002898572478443384,0.02401525154709816,0.7108943462371826,0.7028827667236328,[0. 0. 0. 0. 0. 0. 0. 0. 0.],-0.244140625,-0.732421875,0.0,[0. 0. 0. 0. 0. 0. 0. 0. 0.],-0.02978515625,0.03857421875,1.00390625,[0. 0. 0. 0. 0. 0. 0. 0. 0.]
3.263167381286621,0.0024573183618485928,0.02328389324247837,0.7108691930770874,0.7029344439506531,[0. 0. 0. 0. 0. 0. 0. 0. 0.],0.18310546875,-0.732421875,-0.06103515625,[0. 0. 0. 0. 0. 0. 0. 0. 0.],-0.02978515625,0.0361328125,1.001953125,[0. 0. 0. 0. 0. 0. 0. 0. 0.]
3.2831509113311768,0.0023082573898136616,0.023814737796783447,0.7108360528945923,0.7029507756233215,[0. 0. 0. 0. 0. 0. 0. 0. 0.],0.30517578125,-0.67138671875,-0.244140625,[0. 0. 0. 0. 0. 0. 0. 0. 0.],-0.0302734375,0.03759765625,1.0029296875,[0. 0. 0. 0. 0. 0. 0. 0. 0.]
3.3030736446380615,0.0027499613352119923,0.023729536682367325,0.710819661617279,0.7029687166213989,[0. 0. 0. 0. 0. 0. 0. 0. 0.],-0.42724609375,-0.732421875,-0.30517578125,[0. 0. 0. 0. 0. 0. 0. 0. 0.],-0.0302734375,0.0380859375,1.0,[0. 0. 0. 0. 0. 0. 0. 0. 0.]
3.3235132694244385,0.0029671911615878344,0.02368014119565487,0.7107982039451599,0.7029911279678345,[0. 0. 0. 0. 0. 0. 0. 0. 0.],-0.18310546875,-0.8544921875,-0.30517578125,[0. 0. 0. 0. 0. 0. 0. 0. 0.],-0.029296875,0.03759765625,1.00390625,[0. 0. 0. 0. 0. 0. 0. 0. 0.]
3.33799409866333,0.002559480955824256,0.02354183979332447,0.7107816934585571,0.7030139565467834,[0. 0. 0. 0. 0. 0. 0. 0. 0.],-0.06103515625,-0.244140625,-0.18310546875,[0. 0. 0. 0. 0. 0. 0. 0. 0.],-0.02978515625,0.03662109375,1.00390625,[0. 0. 0. 0. 0. 0. 0. 0. 0.]
3.358798027038574,0.0016162124229595065,0.02268373966217041,0.7107639312744141,0.7030629515647888,[0. 0. 0. 0. 0. 0. 0. 0. 0.],0.18310546875,-0.48828125,0.06103515625,[0. 0. 0. 0. 0. 0. 0. 0. 0.],-0.02978515625,0.03515625,1.0029296875,[0. 0. 0. 0. 0. 0. 0. 0. 0.]
3.382862091064453,0.002139768097549677,0.023758184164762497,0.7107219099998474,0.7030684947967529,[0. 0. 0. 0. 0. 0. 0. 0. 0.],0.0,-1.03759765625,-0.1220703125,[0. 0. 0. 0. 0. 0. 0. 0. 0.],-0.0302734375,0.037109375,1.00341796875,[0. 0. 0. 0. 0. 0. 0. 0. 0.]
3.4039928913116455,0.0030063169542700052,0.023135170340538025,0.710706889629364,0.703101396560669,[0. 0. 0. 0. 0. 0. 0. 0. 0.],-0.06103515625,-0.732421875,-0.3662109375,[0. 0. 0. 0. 0. 0. 0. 0. 0.],-0.02880859375,0.0380859375,1.00244140625,[0. 0. 0. 0. 0. 0. 0. 0. 0.]
3.423041820526123,0.002560043940320611,0.023752063512802124,0.7106709480285645,0.7031188011169434,[0. 0. 0. 0. 0. 0. 0. 0. 0.],-0.06103515625,-0.42724609375,-0.244140625,[0. 0. 0. 0. 0. 0. 0. 0. 0.],-0.02978515625,0.03759765625,1.00146484375,[0. 0. 0. 0. 0. 0. 0. 0. 0.]
3.4426770210266113,0.0019627977162599564,0.023042453452944756,0.7106670141220093,0.7031484842300415,[0. 0. 0. 0. 0. 0. 0. 0. 0.],-0.30517578125,-0.48828125,-0.1220703125,[0. 0. 0. 0. 0. 0. 0. 0. 0.],-0.02978515625,0.03564453125,1.0029296875,[0. 0. 0. 0. 0. 0. 0. 0. 0.]
3.463115930557251,0.0017935899086296558,0.02283412776887417,0.7106427550315857,0.703180193901062,[0. 0. 0. 0. 0. 0. 0. 0. 0.],-0.1220703125,-0.8544921875,0.0,[0. 0. 0. 0. 0. 0. 0. 0. 0.],-0.02978515625,0.03515625,1.00390625,[0. 0. 0. 0. 0. 0. 0. 0. 0.]
3.482790946960449,0.0021947524510324,0.023532364517450333,0.7106146812438965,0.7031843066215515,[0. 0. 0. 0. 0. 0. 0. 0. 0.],0.3662109375,-0.67138671875,-0.1220703125,[0. 0. 0. 0. 0. 0. 0. 0. 0.],-0.02978515625,0.037109375,1.00244140625,[0. 0. 0. 0. 0. 0. 0. 0. 0.]
3.5026588439941406,0.0017593797529116273,0.02351890690624714,0.7105913758277893,0.7032096982002258,[0. 0. 0. 0. 0. 0. 0. 0. 0.],-0.06103515625,-0.48828125,-0.1220703125,[0. 0. 0. 0. 0. 0. 0. 0. 0.],-0.03076171875,0.0361328125,1.00244140625,[0. 0. 0. 0. 0. 0. 0. 0. 0.]
3.522785186767578,0.0021477036643773317,0.023135902360081673,0.7105804681777954,0.7032322287559509,[0. 0. 0. 0. 0. 0. 0. 0. 0.],-0.48828125,-0.79345703125,-0.3662109375,[0. 0. 0. 0. 0. 0. 0. 0. 0.],-0.02978515625,0.0361328125,1.00244140625,[0. 0. 0. 0. 0. 0. 0. 0. 0.]
3.5429880619049072,0.0020532221533358097,0.023059174418449402,0.7105606198310852,0.7032551765441895,[0. 0. 0. 0. 0. 0. 0. 0. 0.],-0.18310546875,-0.48828125,-0.1220703125,[0. 0. 0. 0. 0. 0. 0. 0. 0.],-0.0302734375,0.03564453125,1.00244140625,[0. 0. 0. 0. 0. 0. 0. 0. 0.]
3.5632705688476562,0.00198511965572834,0.02298344485461712,0.7105336785316467,0.7032850980758667,[0. 0. 0. 0. 0. 0. 0. 0. 0.],0.54931640625,-0.67138671875,-0.06103515625,[0. 0. 0. 0. 0. 0. 0. 0. 0.],-0.02978515625,0.03564453125,1.00244140625,[0. 0. 0. 0. 0. 0. 0. 0. 0.]
3.582771062850952,0.0025546522811055183,0.023564394563436508,0.7105103731155396,0.7032874226570129,[0. 0. 0. 0. 0. 0. 0. 0. 0.],0.06103515625,-0.79345703125,-0.244140625,[0. 0. 0. 0. 0. 0. 0. 0. 0.],-0.02978515625,0.037109375,1.001953125,[0. 0. 0. 0. 0. 0. 0. 0. 0.]
3.602814197540283,0.002455334411934018,0.023541893810033798,0.7104885578155518,0.7033107280731201,[0. 0. 0. 0. 0. 0. 0. 0. 0.],-0.48828125,-0.8544921875,-0.244140625,[0. 0. 0. 0. 0. 0. 0. 0. 0.],-0.02978515625,0.03759765625,1.001953125,[0. 0. 0. 0. 0. 0. 0. 0. 0.]
3.6233344078063965,0.0027595479041337967,0.023195641115307808,0.7104789018630981,0.7033306956291199,[0. 0. 0. 0. 0. 0. 0. 0. 0.],-0.1220703125,-0.42724609375,-0.1220703125,[0. 0. 0. 0. 0. 0. 0. 0. 0.],-0.029296875,0.03662109375,1.00146484375,[0. 0. 0. 0. 0. 0. 0. 0. 0.]
3.643235921859741,0.0020322338677942753,0.023798851296305656,0.7104424238204956,0.7033498883247375,[0. 0. 0. 0. 0. 0. 0. 0. 0.],0.244140625,-0.30517578125,0.0,[0. 0. 0. 0. 0. 0. 0. 0. 0.],-0.0302734375,0.03662109375,1.00244140625,[0. 0. 0. 0. 0. 0. 0. 0. 0.]
3.6647632122039795,0.0023142602294683456,0.023933080956339836,0.710430383682251,0.7033566236495972,[0. 0. 0. 0. 0. 0. 0. 0. 0.],-0.1220703125,-0.91552734375,0.0,[0. 0. 0. 0. 0. 0. 0. 0. 0.],-0.02978515625,0.037109375,1.0,[0. 0. 0. 0. 0. 0. 0. 0. 0.]
3.6830220222473145,0.002135699614882469,0.022775322198867798,0.7104165554046631,0.7034096717834473,[0. 0. 0. 0. 0. 0. 0. 0. 0.],-0.1220703125,-0.91552734375,-0.30517578125,[0. 0. 0. 0. 0. 0. 0. 0. 0.],-0.029296875,0.03564453125,1.00244140625,[0. 0. 0. 0. 0. 0. 0. 0. 0.]
3.6981184482574463,0.0028047922533005476,0.023174012079834938,0.7103975415229797,0.7034133672714233,[0. 0. 0. 0. 0. 0. 0. 0. 0.],-0.30517578125,-0.42724609375,-0.244140625,[0. 0. 0. 0. 0. 0. 0. 0. 0.],-0.02880859375,0.037109375,1.001953125,[0. 0. 0. 0. 0. 0. 0. 0. 0.]
3.722789764404297,0.002223154529929161,0.023668743669986725,0.7103581428527832,0.7034388184547424,[0. 0. 0. 0. 0. 0. 0. 0. 0.],-0.06103515625,-0.48828125,-0.1220703125,[0. 0. 0. 0. 0. 0. 0. 0. 0.],-0.02978515625,0.037109375,1.0029296875,[0. 0. 0. 0. 0. 0. 0. 0. 0.]
3.7379891872406006,0.001941914320923388,0.023319613188505173,0.7103370428085327,0.7034726142883301,[0. 0. 0. 0. 0. 0. 0. 0. 0.],-0.1220703125,-0.79345703125,0.0,[0. 0. 0. 0. 0. 0. 0. 0. 0.],-0.0302734375,0.0361328125,1.00390625,[0. 0. 0. 0. 0. 0. 0. 0. 0.]
3.763692617416382,0.0021538157016038895,0.022913292050361633,0.7103132009506226,0.7035094499588013,[0. 0. 0. 0. 0. 0. 0. 0. 0.],0.244140625,-0.79345703125,-0.1220703125,[0. 0. 0. 0. 0. 0. 0. 0. 0.],-0.02978515625,0.03515625,1.00439453125,[0. 0. 0. 0. 0. 0. 0. 0. 0.]
3.7784640789031982,0.0010182042606174946,0.022690778598189354,0.710277259349823,0.7035554647445679,[0. 0. 0. 0. 0. 0. 0. 0. 0.],0.244140625,-0.6103515625,-0.06103515625,[0. 0. 0. 0. 0. 0. 0. 0. 0.],-0.03076171875,0.03369140625,1.00439453125,[0. 0. 0. 0. 0. 0. 0. 0. 0.]
3.8027539253234863,0.001985702430829406,0.022899413481354713,0.7102660536766052,0.703558087348938,[0. 0. 0. 0. 0. 0. 0. 0. 0.],-0.244140625,-0.9765625,-0.18310546875,[0. 0. 0. 0. 0. 0. 0. 0. 0.],-0.02880859375,0.0361328125,1.0009765625,[0. 0. 0. 0. 0. 0. 0. 0. 0.]
3.822984457015991,0.002108154119923711,0.02383466251194477,0.7102274894714355,0.7035655379295349,[0. 0. 0. 0. 0. 0. 0. 0. 0.],-0.42724609375,-0.79345703125,-0.30517578125,[0. 0. 0. 0. 0. 0. 0. 0. 0.],-0.03076171875,0.037109375,1.0029296875,[0. 0. 0. 0. 0. 0. 0. 0. 0.]
3.8430068492889404,0.0022198432125151157,0.0236798282712698,0.7102211713790894,0.7035768032073975,[0. 0. 0. 0. 0. 0. 0. 0. 0.],0.18310546875,-0.3662109375,-0.06103515625,[0. 0. 0. 0. 0. 0. 0. 0. 0.],-0.0302734375,0.037109375,1.0048828125,[0. 0. 0. 0. 0. 0. 0. 0. 0.]
3.8638792037963867,0.0019054563017562032,0.02311447449028492,0.7102090716362,0.7036086916923523,[0. 0. 0. 0. 0. 0. 0. 0. 0.],0.06103515625,-0.6103515625,0.06103515625,[0. 0. 0. 0. 0. 0. 0. 0. 0.],-0.02978515625,0.03564453125,1.005859375,[0. 0. 0. 0. 0. 0. 0. 0. 0.]
3.8827993869781494,0.0027754222974181175,0.023419642820954323,0.7101971507072449,0.7036077976226807,[0. 0. 0. 0. 0. 0. 0. 0. 0.],-0.06103515625,-0.9765625,-0.06103515625,[0. 0. 0. 0. 0. 0. 0. 0. 0.],-0.029296875,0.03662109375,1.00439453125,[0. 0. 0. 0. 0. 0. 0. 0. 0.]
3.902822732925415,0.002942775608971715,0.023968055844306946,0.7101645469665527,0.703621506690979,[0. 0. 0. 0. 0. 0. 0. 0. 0.],-0.1220703125,-0.6103515625,-0.1220703125,[0. 0. 0. 0. 0. 0. 0. 0. 0.],-0.02978515625,0.0380859375,1.00341796875,[0. 0. 0. 0. 0. 0. 0. 0. 0.]
3.9178900718688965,0.002876309910789132,0.023501679301261902,0.710156261920929,0.7036459445953369,[0. 0. 0. 0. 0. 0. 0. 0. 0.],-0.06103515625,-0.30517578125,-0.18310546875,[0. 0. 0. 0. 0. 0. 0. 0. 0.],-0.029296875,0.03759765625,1.0029296875,[0. 0. 0. 0. 0. 0. 0. 0. 0.]
3.948802947998047,0.002895378740504384,0.023043885827064514,0.7101507782936096,0.7036664485931396,[0. 0. 0. 0. 0. 0. 0. 0. 0.],-0.18310546875,-0.67138671875,-0.06103515625,[0. 0. 0. 0. 0. 0. 0. 0. 0.],-0.029296875,0.037109375,1.0029296875,[0. 0. 0. 0. 0. 0. 0. 0. 0.]
3.962648391723633,0.003049011342227459,0.023000560700893402,0.7101284861564636,0.703689694404602,[0. 0. 0. 0. 0. 0. 0. 0. 0.],0.0,-0.79345703125,-0.06103515625,[0. 0. 0. 0. 0. 0. 0. 0. 0.],-0.02880859375,0.037109375,1.0048828125,[0. 0. 0. 0. 0. 0. 0. 0. 0.]
3.9831104278564453,0.0025993897579610348,0.024041248485445976,0.7100804448127747,0.7037051916122437,[0. 0. 0. 0. 0. 0. 0. 0. 0.],0.30517578125,-0.79345703125,-0.06103515625,[0. 0. 0. 0. 0. 0. 0. 0. 0.],-0.03076171875,0.03759765625,1.00390625,[0. 0. 0. 0. 0. 0. 0. 0. 0.]
4.003315448760986,0.0009295781492255628,0.024182019755244255,0.7100251317024231,0.7037605047225952,[0. 0. 0. 0. 0. 0. 0. 0. 0.],-0.18310546875,-0.42724609375,-0.3662109375,[0. 0. 0. 0. 0. 0. 0. 0. 0.],-0.03271484375,0.0361328125,1.00244140625,[0. 0. 0. 0. 0. 0. 0. 0. 0.]
4.023583173751831,0.001878281938843429,0.023282088339328766,0.7100473642349243,0.7037665247917175,[0. 0. 0. 0. 0. 0. 0. 0. 0.],-0.48828125,-0.54931640625,-0.244140625,[0. 0. 0. 0. 0. 0. 0. 0. 0.],-0.02978515625,0.0361328125,1.00244140625,[0. 0. 0. 0. 0. 0. 0. 0. 0.]
4.042890310287476,0.0021213151048868895,0.0235761646181345,0.7100105285644531,0.7037930488586426,[0. 0. 0. 0. 0. 0. 0. 0. 0.],0.06103515625,-0.54931640625,-0.244140625,[0. 0. 0. 0. 0. 0. 0. 0. 0.],-0.0302734375,0.03662109375,1.00341796875,[0. 0. 0. 0. 0. 0. 0. 0. 0.]
4.062790155410767,0.002127234358340502,0.023583458736538887,0.7099873423576355,0.7038162350654602,[0. 0. 0. 0. 0. 0. 0. 0. 0.],0.30517578125,-0.6103515625,-0.1220703125,[0. 0. 0. 0. 0. 0. 0. 0. 0.],-0.0302734375,0.037109375,1.00244140625,[0. 0. 0. 0. 0. 0. 0. 0. 0.]
4.082766532897949,0.0023171028587967157,0.023494606837630272,0.7099636793136597,0.7038425207138062,[0. 0. 0. 0. 0. 0. 0. 0. 0.],-0.06103515625,-0.8544921875,-0.244140625,[0. 0. 0. 0. 0. 0. 0. 0. 0.],-0.0302734375,0.037109375,1.0029296875,[0. 0. 0. 0. 0. 0. 0. 0. 0.]
4.0981316566467285,0.0026113935746252537,0.023290980607271194,0.7099569439888,0.7038549780845642,[0. 0. 0. 0. 0. 0. 0. 0. 0.],-0.6103515625,-0.67138671875,-0.18310546875,[0. 0. 0. 0. 0. 0. 0. 0. 0.],-0.029296875,0.037109375,1.00244140625,[0. 0. 0. 0. 0. 0. 0. 0. 0.]
4.118342876434326,0.002405450213700533,0.02332693338394165,0.7099429965019226,0.7038686871528625,[0. 0. 0. 0. 0. 0. 0. 0. 0.],-0.06103515625,-0.3662109375,-0.1220703125,[0. 0. 0. 0. 0. 0. 0. 0. 0.],-0.029296875,0.0361328125,1.0009765625,[0. 0. 0. 0. 0. 0. 0. 0. 0.]
4.140416860580444,0.002237483160570264,0.023717395961284637,0.7099039554595947,0.7038955092430115,[0. 0. 0. 0. 0. 0. 0. 0. 0.],-0.06103515625,-0.30517578125,-0.06103515625,[0. 0. 0. 0. 0. 0. 0. 0. 0.],-0.0302734375,0.037109375,1.00244140625,[0. 0. 0. 0. 0. 0. 0. 0. 0.]
4.163476228713989,0.0023836777545511723,0.022956395521759987,0.7098969221115112,0.7039273381233215,[0. 0. 0. 0. 0. 0. 0. 0. 0.],0.0,-0.67138671875,-0.1220703125,[0. 0. 0. 0. 0. 0. 0. 0. 0.],-0.029296875,0.0361328125,1.00390625,[0. 0. 0. 0. 0. 0. 0. 0. 0.]
4.178436279296875,0.0025740505661815405,0.023266403004527092,0.7098680138587952,0.7039456963539124,[0. 0. 0. 0. 0. 0. 0. 0. 0.],0.0,-0.91552734375,-0.244140625,[0. 0. 0. 0. 0. 0. 0. 0. 0.],-0.02978515625,0.03662109375,1.00341796875,[0. 0. 0. 0. 0. 0. 0. 0. 0.]
4.203629493713379,0.0026443377137184143,0.02375846356153488,0.7098367810249329,0.7039605379104614,[0. 0. 0. 0. 0. 0. 0. 0. 0.],-0.18310546875,-0.3662109375,-0.30517578125,[0. 0. 0. 0. 0. 0. 0. 0. 0.],-0.029296875,0.03759765625,1.0009765625,[0. 0. 0. 0. 0. 0. 0. 0. 0.]
4.218280553817749,0.003049928694963455,0.023469839245080948,0.7098327279090881,0.7039726376533508,[0. 0. 0. 0. 0. 0. 0. 0. 0.],-0.18310546875,-0.244140625,-0.1220703125,[0. 0. 0. 0. 0. 0. 0. 0. 0.],-0.02880859375,0.0380859375,1.00341796875,[0. 0. 0. 0. 0. 0. 0. 0. 0.]
4.242868423461914,0.002604741370305419,0.024237265810370445,0.7097957730293274,0.7039856910705566,[0. 0. 0. 0. 0. 0. 0. 0. 0.],-0.42724609375,-0.79345703125,-0.18310546875,[0. 0. 0. 0. 0. 0. 0. 0. 0.],-0.03076171875,0.0380859375,1.00341796875,[0. 0. 0. 0. 0. 0. 0. 0. 0.]
4.262758731842041,0.002625636290758848,0.02326943166553974,0.709796130657196,0.7040178179740906,[0. 0. 0. 0. 0. 0. 0. 0. 0.],0.3662109375,-0.54931640625,0.06103515625,[0. 0. 0. 0. 0. 0. 0. 0. 0.],-0.029296875,0.037109375,1.0029296875,[0. 0. 0. 0. 0. 0. 0. 0. 0.]
4.283318281173706,0.002711805747821927,0.022925401106476784,0.7097811102867126,0.7040440440177917,[0. 0. 0. 0. 0. 0. 0. 0. 0.],0.244140625,-0.6103515625,-0.1220703125,[0. 0. 0. 0. 0. 0. 0. 0. 0.],-0.02880859375,0.0361328125,1.00439453125,[0. 0. 0. 0. 0. 0. 0. 0. 0.]
4.302990198135376,0.0023286512587219477,0.021533546969294548,0.7097793221473694,0.7040911316871643,[0. 0. 0. 0. 0. 0. 0. 0. 0.],-0.48828125,-0.91552734375,-0.30517578125,[0. 0. 0. 0. 0. 0. 0. 0. 0.],-0.02783203125,0.03466796875,1.00341796875,[0. 0. 0. 0. 0. 0. 0. 0. 0.]
4.3237810134887695,0.002121626865118742,0.023064274340867996,0.7097270488739014,0.7040959000587463,[0. 0. 0. 0. 0. 0. 0. 0. 0.],-0.42724609375,-0.54931640625,-0.244140625,[0. 0. 0. 0. 0. 0. 0. 0. 0.],-0.02978515625,0.03662109375,1.00244140625,[0. 0. 0. 0. 0. 0. 0. 0. 0.]
4.342678785324097,0.0023208900820463896,0.023058254271745682,0.7097179293632507,0.7041047811508179,[0. 0. 0. 0. 0. 0. 0. 0. 0.],0.1220703125,-0.244140625,-0.1220703125,[0. 0. 0. 0. 0. 0. 0. 0. 0.],-0.029296875,0.0361328125,1.00244140625,[0. 0. 0. 0. 0. 0. 0. 0. 0.]
4.36299467086792,0.0021768733859062195,0.02323109097778797,0.7096973061561584,0.7041202783584595,[0. 0. 0. 0. 0. 0. 0. 0. 0.],0.06103515625,-0.732421875,0.0,[0. 0. 0. 0. 0. 0. 0. 0. 0.],-0.02978515625,0.0361328125,1.00439453125,[0. 0. 0. 0. 0. 0. 0. 0. 0.]
4.382913112640381,0.002253580139949918,0.02392045222222805,0.7096607685089111,0.7041337490081787,[0. 0. 0. 0. 0. 0. 0. 0. 0.],-0.244140625,-0.9765625,-0.1220703125,[0. 0. 0. 0. 0. 0. 0. 0. 0.],-0.03076171875,0.037109375,1.00390625,[0. 0. 0. 0. 0. 0. 0. 0. 0.]
4.402973413467407,0.0031880850438028574,0.02380385249853134,0.7096487283706665,0.7041462063789368,[0. 0. 0. 0. 0. 0. 0. 0. 0.],-0.244140625,-0.6103515625,-0.30517578125,[0. 0. 0. 0. 0. 0. 0. 0. 0.],-0.02880859375,0.03857421875,1.0009765625,[0. 0. 0. 0. 0. 0. 0. 0. 0.]
4.422990083694458,0.0024546904023736715,0.02358950860798359,0.7096186280250549,0.704186737537384,[0. 0. 0. 0. 0. 0. 0. 0. 0.],-0.06103515625,-0.18310546875,-0.1220703125,[0. 0. 0. 0. 0. 0. 0. 0. 0.],-0.0302734375,0.037109375,1.0029296875,[0. 0. 0. 0. 0. 0. 0. 0. 0.]
4.442865610122681,0.0013346032937988639,0.023127421736717224,0.7095884680747986,0.7042355537414551,[0. 0. 0. 0. 0. 0. 0. 0. 0.],-0.06103515625,-0.6103515625,0.0,[0. 0. 0. 0. 0. 0. 0. 0. 0.],-0.03076171875,0.03515625,1.0029296875,[0. 0. 0. 0. 0. 0. 0. 0. 0.]
4.46285605430603,0.0015710953157395124,0.022862739861011505,0.7095738649368286,0.704258382320404,[0. 0. 0. 0. 0. 0. 0. 0. 0.],0.0,-0.9765625,-0.06103515625,[0. 0. 0. 0. 0. 0. 0. 0. 0.],-0.0302734375,0.03515625,1.00341796875,[0. 0. 0. 0. 0. 0. 0. 0. 0.]
4.482743501663208,0.003193538635969162,0.023819612339138985,0.7095573544502258,0.7042377591133118,[0. 0. 0. 0. 0. 0. 0. 0. 0.],0.18310546875,-0.732421875,-0.244140625,[0. 0. 0. 0. 0. 0. 0. 0. 0.],-0.029296875,0.0380859375,1.00341796875,[0. 0. 0. 0. 0. 0. 0. 0. 0.]
4.502926826477051,0.002397355390712619,0.023209871724247932,0.7095379829406738,0.7042808532714844,[0. 0. 0. 0. 0. 0. 0. 0. 0.],-0.244140625,-0.42724609375,-0.18310546875,[0. 0. 0. 0. 0. 0. 0. 0. 0.],-0.029296875,0.03662109375,1.00146484375,[0. 0. 0. 0. 0. 0. 0. 0. 0.]
4.523214101791382,0.0023696464486420155,0.023831302300095558,0.7095066905021667,0.7042916417121887,[0. 0. 0. 0. 0. 0. 0. 0. 0.],-0.48828125,-0.42724609375,-0.1220703125,[0. 0. 0. 0. 0. 0. 0. 0. 0.],-0.0302734375,0.03759765625,1.001953125,[0. 0. 0. 0. 0. 0. 0. 0. 0.]
4.542751312255859,0.0016330353682860732,0.023368394002318382,0.7094838619232178,0.7043322324752808,[0. 0. 0. 0. 0. 0. 0. 0. 0.],0.18310546875,-0.67138671875,-0.1220703125,[0. 0. 0. 0. 0. 0. 0. 0. 0.],-0.03076171875,0.03564453125,1.00341796875,[0. 0. 0. 0. 0. 0. 0. 0. 0.]
4.56274676322937,0.001033384003676474,0.02291887439787388,0.7094607353210449,0.7043715119361877,[0. 0. 0. 0. 0. 0. 0. 0. 0.],0.42724609375,-0.67138671875,0.0,[0. 0. 0. 0. 0. 0. 0. 0. 0.],-0.03125,0.03466796875,1.00634765625,[0. 0. 0. 0. 0. 0. 0. 0. 0.]
4.583598375320435,0.002067400375381112,0.022979436442255974,0.7094550728797913,0.7043729424476624,[0. 0. 0. 0. 0. 0. 0. 0. 0.],-0.18310546875,-0.732421875,-0.244140625,[0. 0. 0. 0. 0. 0. 0. 0. 0.],-0.02978515625,0.0361328125,1.001953125,[0. 0. 0. 0. 0. 0. 0. 0. 0.]
4.60341739654541,0.002501002512872219,0.023351041600108147,0.7094433307647705,0.7043711543083191,[0. 0. 0. 0. 0. 0. 0. 0. 0.],-0.67138671875,-0.67138671875,-0.30517578125,[0. 0. 0. 0. 0. 0. 0. 0. 0.],-0.02978515625,0.0361328125,1.00048828125,[0. 0. 0. 0. 0. 0. 0. 0. 0.]
4.622797966003418,0.0026113376952707767,0.02331615425646305,0.7094254493713379,0.7043899297714233,[0. 0. 0. 0. 0. 0. 0. 0. 0.],-0.06103515625,-0.30517578125,-0.06103515625,[0. 0. 0. 0. 0. 0. 0. 0. 0.],-0.029296875,0.03759765625,1.00341796875,[0. 0. 0. 0. 0. 0. 0. 0. 0.]
4.641674280166626,0.0018883373122662306,0.02425406686961651,0.709367036819458,0.7044194340705872,[0. 0. 0. 0. 0. 0. 0. 0. 0.],0.30517578125,-0.3662109375,0.06103515625,[0. 0. 0. 0. 0. 0. 0. 0. 0.],-0.03173828125,0.037109375,1.00390625,[0. 0. 0. 0. 0. 0. 0. 0. 0.]
4.663384437561035,0.0017834882019087672,0.022407814860343933,0.7093852758407593,0.7044625282287598,[0. 0. 0. 0. 0. 0. 0. 0. 0.],-0.1220703125,-1.0986328125,0.0,[0. 0. 0. 0. 0. 0. 0. 0. 0.],-0.029296875,0.03466796875,1.00146484375,[0. 0. 0. 0. 0. 0. 0. 0. 0.]
4.679163217544556,0.0022291147615760565,0.0234141256660223,0.709355354309082,0.7044585347175598,[0. 0. 0. 0. 0. 0. 0. 0. 0.],-0.30517578125,-0.732421875,-0.30517578125,[0. 0. 0. 0. 0. 0. 0. 0. 0.],-0.02978515625,0.03662109375,1.00341796875,[0. 0. 0. 0. 0. 0. 0. 0. 0.]
4.702924013137817,0.002476062858477235,0.02354695461690426,0.7093313932418823,0.7044774293899536,[0. 0. 0. 0. 0. 0. 0. 0. 0.],0.0,-0.48828125,-0.18310546875,[0. 0. 0. 0. 0. 0. 0. 0. 0.],-0.0302734375,0.037109375,1.001953125,[0. 0. 0. 0. 0. 0. 0. 0. 0.]
4.722942590713501,0.0021449339110404253,0.023011084645986557,0.7093242406845093,0.7045033574104309,[0. 0. 0. 0. 0. 0. 0. 0. 0.],-0.3662109375,-0.48828125,-0.1220703125,[0. 0. 0. 0. 0. 0. 0. 0. 0.],-0.029296875,0.03564453125,0.99951171875,[0. 0. 0. 0. 0. 0. 0. 0. 0.]
4.742889165878296,0.0020265199709683657,0.02286398969590664,0.709306001663208,0.7045269012451172,[0. 0. 0. 0. 0. 0. 0. 0. 0.],-0.3662109375,-0.6103515625,-0.1220703125,[0. 0. 0. 0. 0. 0. 0. 0. 0.],-0.029296875,0.03564453125,1.0009765625,[0. 0. 0. 0. 0. 0. 0. 0. 0.]
4.764492511749268,0.0020522666163742542,0.0230172798037529,0.7092762589454651,0.7045518159866333,[0. 0. 0. 0. 0. 0. 0. 0. 0.],0.3662109375,-0.6103515625,0.06103515625,[0. 0. 0. 0. 0. 0. 0. 0. 0.],-0.02978515625,0.03564453125,1.00439453125,[0. 0. 0. 0. 0. 0. 0. 0. 0.]
4.782888889312744,0.0022361117880791426,0.023978646844625473,0.7092416286468506,0.7045539617538452,[0. 0. 0. 0. 0. 0. 0. 0. 0.],0.30517578125,-0.732421875,-0.06103515625,[0. 0. 0. 0. 0. 0. 0. 0. 0.],-0.03125,0.03662109375,1.00390625,[0. 0. 0. 0. 0. 0. 0. 0. 0.]
4.80341100692749,0.0021737816277891397,0.02351486310362816,0.709224283695221,0.7045873999595642,[0. 0. 0. 0. 0. 0. 0. 0. 0.],-0.42724609375,-0.8544921875,-0.30517578125,[0. 0. 0. 0. 0. 0. 0. 0. 0.],-0.0302734375,0.03662109375,1.00341796875,[0. 0. 0. 0. 0. 0. 0. 0. 0.]
4.822832345962524,0.002714046509936452,0.023292260244488716,0.7092151045799255,0.704602062702179,[0. 0. 0. 0. 0. 0. 0. 0. 0.],-0.48828125,-0.6103515625,-0.244140625,[0. 0. 0. 0. 0. 0. 0. 0. 0.],-0.029296875,0.03662109375,1.0009765625,[0. 0. 0. 0. 0. 0. 0. 0. 0.]
4.841610670089722,0.0024188575334846973,0.02342936396598816,0.7091829180717468,0.7046310305595398,[0. 0. 0. 0. 0. 0. 0. 0. 0.],-0.3662109375,-0.3662109375,-0.244140625,[0. 0. 0. 0. 0. 0. 0. 0. 0.],-0.02978515625,0.03662109375,1.00146484375,[0. 0. 0. 0. 0. 0. 0. 0. 0.]
4.859428405761719,0.001925405696965754,0.023265376687049866,0.7091631889343262,0.7046578526496887,[0. 0. 0. 0. 0. 0. 0. 0. 0.],0.244140625,-0.6103515625,-0.1220703125,[0. 0. 0. 0. 0. 0. 0. 0. 0.],-0.0302734375,0.0361328125,1.0048828125,[0. 0. 0. 0. 0. 0. 0. 0. 0.]
4.883552074432373,0.002734934678301215,0.02220715954899788,0.7091650366783142,0.7046874761581421,[0. 0. 0. 0. 0. 0. 0. 0. 0.],-0.54931640625,-0.30517578125,-0.30517578125,[0. 0. 0. 0. 0. 0. 0. 0. 0.],-0.02294921875,0.02783203125,1.00830078125,[0. 0. 0. 0. 0. 0. 0. 0. 0.]
4.907037973403931,-0.0006441912264563143,0.019422683864831924,0.7093467116355896,0.7045918107032776,[0. 0. 0. 0. 0. 0. 0. 0. 0.],-25.81787109375,8.30078125,2.38037109375,[0. 0. 0. 0. 0. 0. 0. 0. 0.],-0.0439453125,-0.22802734375,0.7998046875,[0. 0. 0. 0. 0. 0. 0. 0. 0.]
4.918740749359131,-0.002766722347587347,0.017519988119602203,0.7094431519508362,0.7045395374298096,[0. 0. 0. 0. 0. 0. 0. 0. 0.],4.57763671875,0.0,0.91552734375,[0. 0. 0. 0. 0. 0. 0. 0. 0.],-0.01123046875,-0.33642578125,1.22802734375,[0. 0. 0. 0. 0. 0. 0. 0. 0.]
4.942906141281128,-0.00417340686544776,0.016453737393021584,0.709525465965271,0.7044753432273865,[0. 0. 0. 0. 0. 0. 0. 0. 0.],5.55419921875,-4.69970703125,-0.30517578125,[0. 0. 0. 0. 0. 0. 0. 0. 0.],-0.01611328125,-0.2841796875,1.07080078125,[0. 0. 0. 0. 0. 0. 0. 0. 0.]
4.958343744277954,-0.006176788825541735,0.01506060641258955,0.7096508145332336,0.704365611076355,[0. 0. 0. 0. 0. 0. 0. 0. 0.],-6.77490234375,1.953125,-0.244140625,[0. 0. 0. 0. 0. 0. 0. 0. 0.],-0.03955078125,-0.2509765625,0.90869140625,[0. 0. 0. 0. 0. 0. 0. 0. 0.]
4.982764482498169,-0.0075841182842850685,0.013415061868727207,0.7096853852272034,0.7043501734733582,[0. 0. 0. 0. 0. 0. 0. 0. 0.],-4.21142578125,1.3427734375,1.0986328125,[0. 0. 0. 0. 0. 0. 0. 0. 0.],-0.04150390625,-0.27880859375,0.9755859375,[0. 0. 0. 0. 0. 0. 0. 0. 0.]
5.002607822418213,-0.008643998764455318,0.01180482842028141,0.7096431851387024,0.7044093608856201,[0. 0. 0. 0. 0. 0. 0. 0. 0.],-2.9296875,-0.3662109375,0.54931640625,[0. 0. 0. 0. 0. 0. 0. 0. 0.],-0.0263671875,-0.2724609375,0.9736328125,[0. 0. 0. 0. 0. 0. 0. 0. 0.]
5.022659778594971,-0.010270977392792702,0.010055182501673698,0.709633469581604,0.7044245004653931,[0. 0. 0. 0. 0. 0. 0. 0. 0.],0.54931640625,-3.41796875,0.06103515625,[0. 0. 0. 0. 0. 0. 0. 0. 0.],-0.017578125,-0.283203125,0.99951171875,[0. 0. 0. 0. 0. 0. 0. 0. 0.]
5.044207811355591,-0.011698205024003983,0.008660251274704933,0.70965176820755,0.7044022679328918,[0. 0. 0. 0. 0. 0. 0. 0. 0.],-3.0517578125,1.52587890625,0.732421875,[0. 0. 0. 0. 0. 0. 0. 0. 0.],-0.0224609375,-0.29443359375,0.99658203125,[0. 0. 0. 0. 0. 0. 0. 0. 0.]
5.062733888626099,-0.013108327053487301,0.007289075758308172,0.7097107172012329,0.7043336629867554,[0. 0. 0. 0. 0. 0. 0. 0. 0.],-2.74658203125,1.89208984375,1.3427734375,[0. 0. 0. 0. 0. 0. 0. 0. 0.],-0.0283203125,-0.29345703125,0.97607421875,[0. 0. 0. 0. 0. 0. 0. 0. 0.]
5.084553003311157,-0.014584491960704327,0.00632389634847641,0.7097057104110718,0.7043188810348511,[0. 0. 0. 0. 0. 0. 0. 0. 0.],1.52587890625,0.42724609375,0.0,[0. 0. 0. 0. 0. 0. 0. 0. 0.],-0.0107421875,-0.30419921875,0.99609375,[0. 0. 0. 0. 0. 0. 0. 0. 0.]
5.102762460708618,-0.016608024016022682,0.005355428904294968,0.709750771522522,0.7042368054389954,[0. 0. 0. 0. 0. 0. 0. 0. 0.],-0.244140625,-2.685546875,-0.9765625,[0. 0. 0. 0. 0. 0. 0. 0. 0.],-0.01708984375,-0.3046875,0.95849609375,[0. 0. 0. 0. 0. 0. 0. 0. 0.]
5.122782230377197,-0.01825529895722866,0.0032007850240916014,0.7097527980804443,0.7042069435119629,[0. 0. 0. 0. 0. 0. 0. 0. 0.],-7.32421875,-3.173828125,-0.79345703125,[0. 0. 0. 0. 0. 0. 0. 0. 0.],-0.05126953125,-0.2880859375,0.92529296875,[0. 0. 0. 0. 0. 0. 0. 0. 0.]
5.142747402191162,-0.020162003114819527,0.001989856595173478,0.7096990942955017,0.704213559627533,[0. 0. 0. 0. 0. 0. 0. 0. 0.],-2.01416015625,6.40869140625,0.3662109375,[0. 0. 0. 0. 0. 0. 0. 0. 0.],-0.00439453125,-0.36279296875,1.154296875,[0. 0. 0. 0. 0. 0. 0. 0. 0.]
5.162978649139404,-0.02074979990720749,0.00031024948111735284,0.7096529006958008,0.704245924949646,[0. 0. 0. 0. 0. 0. 0. 0. 0.],-2.86865234375,-2.197265625,-0.18310546875,[0. 0. 0. 0. 0. 0. 0. 0. 0.],-0.05126953125,-0.294921875,0.951171875,[0. 0. 0. 0. 0. 0. 0. 0. 0.]
5.18391489982605,-0.022757481783628464,-0.0014778014738112688,0.7095884084701538,0.7042472958564758,[0. 0. 0. 0. 0. 0. 0. 0. 0.],-9.58251953125,2.74658203125,0.6103515625,[0. 0. 0. 0. 0. 0. 0. 0. 0.],-0.009765625,-0.22216796875,0.76220703125,[0. 0. 0. 0. 0. 0. 0. 0. 0.]
5.202893257141113,-0.025921281427145004,-0.0035643635783344507,0.7095697522163391,0.7041493058204651,[0. 0. 0. 0. 0. 0. 0. 0. 0.],-14.6484375,1.52587890625,-0.79345703125,[0. 0. 0. 0. 0. 0. 0. 0. 0.],-0.02490234375,-0.25537109375,0.818359375,[0. 0. 0. 0. 0. 0. 0. 0. 0.]
5.223503351211548,-0.027307169511914253,-0.006133916322141886,0.7095350623130798,0.7041141390800476,[0. 0. 0. 0. 0. 0. 0. 0. 0.],-5.0048828125,-7.01904296875,-1.46484375,[0. 0. 0. 0. 0. 0. 0. 0. 0.],-0.0654296875,-0.3701171875,1.1171875,[0. 0. 0. 0. 0. 0. 0. 0. 0.]
5.250664472579956,-0.028489813208580017,-0.006653801072388887,0.7092415690422058,0.7043582201004028,[0. 0. 0. 0. 0. 0. 0. 0. 0.],8.544921875,1.3427734375,-5.06591796875,[0. 0. 0. 0. 0. 0. 0. 0. 0.],-0.03515625,-0.3427734375,1.2412109375,[0. 0. 0. 0. 0. 0. 0. 0. 0.]
5.263481140136719,-0.02921360172331333,-0.0062804678454995155,0.7086189985275269,0.7049583792686462,[0. 0. 0. 0. 0. 0. 0. 0. 0.],2.5634765625,14.6484375,-10.7421875,[0. 0. 0. 0. 0. 0. 0. 0. 0.],0.00341796875,-0.2607421875,1.09765625,[0. 0. 0. 0. 0. 0. 0. 0. 0.]
5.2839484214782715,-0.03156302496790886,-0.005952251143753529,0.7061200141906738,0.7073634266853333,[0. 0. 0. 0. 0. 0. 0. 0. 0.],-0.6103515625,5.67626953125,-24.5361328125,[0. 0. 0. 0. 0. 0. 0. 0. 0.],-0.07958984375,-0.21533203125,0.9267578125,[0. 0. 0. 0. 0. 0. 0. 0. 0.]
5.298441648483276,-0.03430713713169098,-0.005967144854366779,0.7018827795982361,0.7114408016204834,[0. 0. 0. 0. 0. 0. 0. 0. 0.],-3.47900390625,9.1552734375,-39.0625,[0. 0. 0. 0. 0. 0. 0. 0. 0.],-0.10107421875,-0.20263671875,0.84716796875,[0. 0. 0. 0. 0. 0. 0. 0. 0.]
5.317942142486572,-0.03705599159002304,-0.005845092702656984,0.695979654788971,0.7170808911323547,[0. 0. 0. 0. 0. 0. 0. 0. 0.],-0.3662109375,14.7705078125,-48.7060546875,[0. 0. 0. 0. 0. 0. 0. 0. 0.],-0.166015625,-0.234375,0.95166015625,[0. 0. 0. 0. 0. 0. 0. 0. 0.]
5.3441784381866455,-0.0386614166200161,-0.0034289644099771976,0.6890105605125427,0.723711371421814,[0. 0. 0. 0. 0. 0. 0. 0. 0.],16.845703125,10.8642578125,-56.640625,[0. 0. 0. 0. 0. 0. 0. 0. 0.],-0.240234375,-0.26220703125,1.123046875,[0. 0. 0. 0. 0. 0. 0. 0. 0.]
5.363099575042725,-0.03817199543118477,-0.0019733887165784836,0.680733859539032,0.7315329313278198,[0. 0. 0. 0. 0. 0. 0. 0. 0.],5.615234375,-10.498046875,-72.08251953125,[0. 0. 0. 0. 0. 0. 0. 0. 0.],-0.287109375,-0.0791015625,0.853515625,[0. 0. 0. 0. 0. 0. 0. 0. 0.]
5.383476257324219,-0.04103413224220276,-0.0013495085295289755,0.6704983711242676,0.7407742142677307,[0. 0. 0. 0. 0. 0. 0. 0. 0.],-14.70947265625,14.5263671875,-83.43505859375,[0. 0. 0. 0. 0. 0. 0. 0. 0.],-0.1298828125,-0.0498046875,0.822265625,[0. 0. 0. 0. 0. 0. 0. 0. 0.]
5.398484945297241,-0.045524511486291885,-0.0005674140411429107,0.6588410139083862,0.750903308391571,[0. 0. 0. 0. 0. 0. 0. 0. 0.],-1.5869140625,6.65283203125,-89.599609375,[0. 0. 0. 0. 0. 0. 0. 0. 0.],-0.30029296875,-0.20947265625,1.064453125,[0. 0. 0. 0. 0. 0. 0. 0. 0.]
5.419065952301025,-0.04609890282154083,-0.0005522196879610419,0.6469130516052246,0.7611690163612366,[0. 0. 0. 0. 0. 0. 0. 0. 0.],4.57763671875,7.87353515625,-88.56201171875,[0. 0. 0. 0. 0. 0. 0. 0. 0.],-0.40380859375,-0.19580078125,1.1396484375,[0. 0. 0. 0. 0. 0. 0. 0. 0.]
5.444262266159058,-0.04841186851263046,0.0023578510154038668,0.6347257494926453,0.7712158560752869,[0. 0. 0. 0. 0. 0. 0. 0. 0.],9.21630859375,16.11328125,-87.82958984375,[0. 0. 0. 0. 0. 0. 0. 0. 0.],-0.30029296875,-0.17138671875,1.17578125,[0. 0. 0. 0. 0. 0. 0. 0. 0.]
5.458502769470215,-0.0481121689081192,0.0036855083890259266,0.6222635507583618,0.781319260597229,[0. 0. 0. 0. 0. 0. 0. 0. 0.],6.9580078125,-5.37109375,-93.26171875,[0. 0. 0. 0. 0. 0. 0. 0. 0.],-0.392578125,-0.1181640625,0.95166015625,[0. 0. 0. 0. 0. 0. 0. 0. 0.]
5.483087062835693,-0.04902290552854538,0.0051358845084905624,0.6091799139976501,0.7914987206459045,[0. 0. 0. 0. 0. 0. 0. 0. 0.],3.11279296875,13.427734375,-96.49658203125,[0. 0. 0. 0. 0. 0. 0. 0. 0.],-0.21484375,-0.10302734375,0.89501953125,[0. 0. 0. 0. 0. 0. 0. 0. 0.]
5.503008842468262,-0.051152922213077545,0.0060096061788499355,0.5954262614250183,0.801757276058197,[0. 0. 0. 0. 0. 0. 0. 0. 0.],1.40380859375,-1.03759765625,-98.14453125,[0. 0. 0. 0. 0. 0. 0. 0. 0.],-0.373046875,-0.1142578125,0.865234375,[0. 0. 0. 0. 0. 0. 0. 0. 0.]
5.5234386920928955,-0.0519288033246994,0.007341776974499226,0.5816792249679565,0.8117257952690125,[0. 0. 0. 0. 0. 0. 0. 0. 0.],10.80322265625,6.04248046875,-95.0927734375,[0. 0. 0. 0. 0. 0. 0. 0. 0.],-0.34912109375,-0.18212890625,1.13623046875,[0. 0. 0. 0. 0. 0. 0. 0. 0.]
5.543022871017456,-0.053410787135362625,0.010566388256847858,0.5679144263267517,0.8212848901748657,[0. 0. 0. 0. 0. 0. 0. 0. 0.],10.7421875,19.6533203125,-96.74072265625,[0. 0. 0. 0. 0. 0. 0. 0. 0.],-0.2763671875,-0.09521484375,0.982421875,[0. 0. 0. 0. 0. 0. 0. 0. 0.]
5.559278964996338,-0.05528116971254349,0.011574115604162216,0.5533390045166016,0.8310391306877136,[0. 0. 0. 0. 0. 0. 0. 0. 0.],-11.04736328125,0.18310546875,-101.806640625,[0. 0. 0. 0. 0. 0. 0. 0. 0.],-0.38720703125,0.0107421875,0.72998046875,[0. 0. 0. 0. 0. 0. 0. 0. 0.]
5.583131313323975,-0.05752431973814964,0.011662655510008335,0.5385416746139526,0.840552031993866,[0. 0. 0. 0. 0. 0. 0. 0. 0.],-1.40380859375,2.86865234375,-97.65625,[0. 0. 0. 0. 0. 0. 0. 0. 0.],-0.384765625,-0.13134765625,0.97802734375,[0. 0. 0. 0. 0. 0. 0. 0. 0.]
5.603878021240234,-0.0562971867620945,0.010735881514847279,0.5245065093040466,0.8494753837585449,[0. 0. 0. 0. 0. 0. 0. 0. 0.],10.986328125,-9.8876953125,-91.85791015625,[0. 0. 0. 0. 0. 0. 0. 0. 0.],-0.3837890625,-0.17529296875,1.15283203125,[0. 0. 0. 0. 0. 0. 0. 0. 0.]
5.622989177703857,-0.056364331394433975,0.011999431066215038,0.5114085674285889,0.8574032783508301,[0. 0. 0. 0. 0. 0. 0. 0. 0.],13.36669921875,2.8076171875,-84.41162109375,[0. 0. 0. 0. 0. 0. 0. 0. 0.],-0.14990234375,-0.13623046875,1.16064453125,[0. 0. 0. 0. 0. 0. 0. 0. 0.]
5.642914533615112,-0.05669032782316208,0.012503869831562042,0.4995049834251404,0.8643637895584106,[0. 0. 0. 0. 0. 0. 0. 0. 0.],2.44140625,-2.0751953125,-74.89013671875,[0. 0. 0. 0. 0. 0. 0. 0. 0.],-0.23583984375,-0.1220703125,0.93896484375,[0. 0. 0. 0. 0. 0. 0. 0. 0.]
5.66342568397522,-0.058743543922901154,0.013166241347789764,0.48926490545272827,0.8700550198554993,[0. 0. 0. 0. 0. 0. 0. 0. 0.],-3.35693359375,0.1220703125,-62.6220703125,[0. 0. 0. 0. 0. 0. 0. 0. 0.],-0.1884765625,-0.13134765625,0.8994140625,[0. 0. 0. 0. 0. 0. 0. 0. 0.]
5.683427095413208,-0.059042058885097504,0.011863215826451778,0.4816197454929352,0.874308705329895,[0. 0. 0. 0. 0. 0. 0. 0. 0.],0.54931640625,-11.77978515625,-42.724609375,[0. 0. 0. 0. 0. 0. 0. 0. 0.],-0.2998046875,-0.1513671875,0.94140625,[0. 0. 0. 0. 0. 0. 0. 0. 0.]
5.7038445472717285,-0.05936707556247711,0.011831524781882763,0.47630575299263,0.8771935701370239,[0. 0. 0. 0. 0. 0. 0. 0. 0.],14.34326171875,0.42724609375,-28.13720703125,[0. 0. 0. 0. 0. 0. 0. 0. 0.],-0.0283203125,-0.1591796875,1.12060546875,[0. 0. 0. 0. 0. 0. 0. 0. 0.]
5.723055124282837,-0.058492571115493774,0.012518932111561298,0.4729112386703491,0.8790773153305054,[0. 0. 0. 0. 0. 0. 0. 0. 0.],-1.5869140625,-7.75146484375,-18.49365234375,[0. 0. 0. 0. 0. 0. 0. 0. 0.],-0.1435546875,-0.02587890625,0.78857421875,[0. 0. 0. 0. 0. 0. 0. 0. 0.]
5.743259906768799,-0.06024594232439995,0.011739731766283512,0.470865935087204,0.8800669312477112,[0. 0. 0. 0. 0. 0. 0. 0. 0.],-15.13671875,-2.74658203125,-12.8173828125,[0. 0. 0. 0. 0. 0. 0. 0. 0.],-0.17236328125,-0.02294921875,0.8837890625,[0. 0. 0. 0. 0. 0. 0. 0. 0.]
5.758091926574707,-0.06070174276828766,0.012343366630375385,0.46956533193588257,0.8807221055030823,[0. 0. 0. 0. 0. 0. 0. 0. 0.],1.89208984375,-9.6435546875,-9.09423828125,[0. 0. 0. 0. 0. 0. 0. 0. 0.],-0.16943359375,-0.10693359375,1.208984375,[0. 0. 0. 0. 0. 0. 0. 0. 0.]
5.7830352783203125,-0.05851094424724579,0.011935348622500896,0.4686456322669983,0.8813655972480774,[0. 0. 0. 0. 0. 0. 0. 0. 0.],14.5263671875,-5.92041015625,-7.87353515625,[0. 0. 0. 0. 0. 0. 0. 0. 0.],-0.10546875,-0.07958984375,1.14013671875,[0. 0. 0. 0. 0. 0. 0. 0. 0.]
5.800849199295044,-0.05682772025465965,0.012275737710297108,0.46718108654022217,0.8822481036186218,[0. 0. 0. 0. 0. 0. 0. 0. 0.],1.8310546875,3.11279296875,-7.6904296875,[0. 0. 0. 0. 0. 0. 0. 0. 0.],0.015625,-0.04833984375,0.9404296875,[0. 0. 0. 0. 0. 0. 0. 0. 0.]
5.818047761917114,-0.0575268529355526,0.010572569444775581,0.4655381441116333,0.8830929398536682,[0. 0. 0. 0. 0. 0. 0. 0. 0.],-1.0986328125,0.48828125,-10.25390625,[0. 0. 0. 0. 0. 0. 0. 0. 0.],-0.05126953125,-0.11181640625,0.978515625,[0. 0. 0. 0. 0. 0. 0. 0. 0.]
5.844622850418091,-0.05640222132205963,0.010063402354717255,0.4638935327529907,0.8840363621711731,[0. 0. 0. 0. 0. 0. 0. 0. 0.],7.26318359375,-18.5546875,-7.568359375,[0. 0. 0. 0. 0. 0. 0. 0. 0.],-0.14208984375,-0.0830078125,1.04052734375,[0. 0. 0. 0. 0. 0. 0. 0. 0.]
5.859529733657837,-0.05539819970726967,0.010389965958893299,0.4627336263656616,0.8847037553787231,[0. 0. 0. 0. 0. 0. 0. 0. 0.],3.90625,7.99560546875,-11.04736328125,[0. 0. 0. 0. 0. 0. 0. 0. 0.],0.01123046875,-0.06591796875,1.06005859375,[0. 0. 0. 0. 0. 0. 0. 0. 0.]
5.88288426399231,-0.05393088608980179,0.011339029297232628,0.46068960428237915,0.8858488202095032,[0. 0. 0. 0. 0. 0. 0. 0. 0.],5.06591796875,-11.23046875,-9.765625,[0. 0. 0. 0. 0. 0. 0. 0. 0.],-0.13720703125,-0.017578125,0.77880859375,[0. 0. 0. 0. 0. 0. 0. 0. 0.]
5.897920370101929,-0.05439528450369835,0.010221381671726704,0.4598267674446106,0.8862820863723755,[0. 0. 0. 0. 0. 0. 0. 0. 0.],-13.48876953125,-12.3291015625,-7.9345703125,[0. 0. 0. 0. 0. 0. 0. 0. 0.],-0.2158203125,0.01220703125,0.7744140625,[0. 0. 0. 0. 0. 0. 0. 0. 0.]
5.917909383773804,-0.05451640486717224,0.009582486003637314,0.45888152718544006,0.8867717385292053,[0. 0. 0. 0. 0. 0. 0. 0. 0.],-2.86865234375,4.150390625,-5.67626953125,[0. 0. 0. 0. 0. 0. 0. 0. 0.],-0.05859375,-0.099609375,1.13134765625,[0. 0. 0. 0. 0. 0. 0. 0. 0.]
5.943072319030762,-0.05397000163793564,0.009345234371721745,0.4581793248653412,0.8871706128120422,[0. 0. 0. 0. 0. 0. 0. 0. 0.],13.48876953125,-8.1787109375,-5.43212890625,[0. 0. 0. 0. 0. 0. 0. 0. 0.],-0.1484375,-0.10107421875,1.22021484375,[0. 0. 0. 0. 0. 0. 0. 0. 0.]
5.968760013580322,-0.050216976553201675,0.009887033142149448,0.4569752514362335,0.8880056738853455,[0. 0. 0. 0. 0. 0. 0. 0. 0.],17.76123046875,-0.06103515625,-6.8359375,[0. 0. 0. 0. 0. 0. 0. 0. 0.],0.00390625,-0.04296875,1.068359375,[0. 0. 0. 0. 0. 0. 0. 0. 0.]
5.982673168182373,-0.04758485034108162,0.010212813504040241,0.4556562900543213,0.8888244032859802,[0. 0. 0. 0. 0. 0. 0. 0. 0.],3.7841796875,-3.41796875,-8.1787109375,[0. 0. 0. 0. 0. 0. 0. 0. 0.],-0.0654296875,0.01708984375,0.837890625,[0. 0. 0. 0. 0. 0. 0. 0. 0.]
6.003201723098755,-0.047200679779052734,0.010561144910752773,0.45487743616104126,0.8892396092414856,[0. 0. 0. 0. 0. 0. 0. 0. 0.],-5.79833984375,-13.85498046875,-3.47900390625,[0. 0. 0. 0. 0. 0. 0. 0. 0.],-0.15478515625,-0.01513671875,0.927734375,[0. 0. 0. 0. 0. 0. 0. 0. 0.]
6.022852897644043,-0.04575198516249657,0.010592110455036163,0.45411646366119385,0.8897038698196411,[0. 0. 0. 0. 0. 0. 0. 0. 0.],8.11767578125,4.39453125,-6.16455078125,[0. 0. 0. 0. 0. 0. 0. 0. 0.],0.02294921875,-0.06884765625,1.171875,[0. 0. 0. 0. 0. 0. 0. 0. 0.]
6.043375015258789,-0.04486776888370514,0.012048761360347271,0.45322975516319275,0.8901823163032532,[0. 0. 0. 0. 0. 0. 0. 0. 0.],5.55419921875,3.90625,-3.23486328125,[0. 0. 0. 0. 0. 0. 0. 0. 0.],-0.07275390625,-0.00146484375,0.81396484375,[0. 0. 0. 0. 0. 0. 0. 0. 0.]
6.05915904045105,-0.04410633072257042,0.01090136170387268,0.4531233012676239,0.890289306640625,[0. 0. 0. 0. 0. 0. 0. 0. 0.],-12.5732421875,-17.63916015625,0.06103515625,[0. 0. 0. 0. 0. 0. 0. 0. 0.],-0.2353515625,0.048828125,0.7646484375,[0. 0. 0. 0. 0. 0. 0. 0. 0.]
6.086858034133911,-0.043638925999403,0.00996227003633976,0.4532451331615448,0.8902613520622253,[0. 0. 0. 0. 0. 0. 0. 0. 0.],-2.9296875,-5.7373046875,1.3427734375,[0. 0. 0. 0. 0. 0. 0. 0. 0.],-0.0341796875,-0.02099609375,1.20654296875,[0. 0. 0. 0. 0. 0. 0. 0. 0.]
6.09871506690979,-0.04011760279536247,0.00959683395922184,0.4532357454299927,0.8904357552528381,[0. 0. 0. 0. 0. 0. 0. 0. 0.],11.53564453125,-9.8876953125,-1.40380859375,[0. 0. 0. 0. 0. 0. 0. 0. 0.],-0.04296875,-0.0439453125,1.2216796875,[0. 0. 0. 0. 0. 0. 0. 0. 0.]
6.124056100845337,-0.036382727324962616,0.009741030633449554,0.4534015655517578,0.8905103206634521,[0. 0. 0. 0. 0. 0. 0. 0. 0.],6.89697265625,-3.23486328125,2.01416015625,[0. 0. 0. 0. 0. 0. 0. 0. 0.],0.0361328125,0.0146484375,0.9921875,[0. 0. 0. 0. 0. 0. 0. 0. 0.]
6.14285945892334,-0.03366585075855255,0.007810648530721664,0.455540269613266,0.8895441293716431,[0. 0. 0. 0. 0. 0. 0. 0. 0.],-5.2490234375,-17.333984375,20.01953125,[0. 0. 0. 0. 0. 0. 0. 0. 0.],-0.029296875,-0.0078125,0.81494140625,[0. 0. 0. 0. 0. 0. 0. 0. 0.]
6.164191246032715,-0.033569447696208954,0.0035060483496636152,0.459920734167099,0.8873183727264404,[0. 0. 0. 0. 0. 0. 0. 0. 0.],-7.8125,-7.38525390625,29.60205078125,[0. 0. 0. 0. 0. 0. 0. 0. 0.],0.173828125,-0.14794921875,1.05126953125,[0. 0. 0. 0. 0. 0. 0. 0. 0.]
6.183135747909546,-0.033451493829488754,0.001134407939389348,0.4659545123577118,0.8841754198074341,[0. 0. 0. 0. 0. 0. 0. 0. 0.],-10.3759765625,5.37109375,42.29736328125,[0. 0. 0. 0. 0. 0. 0. 0. 0.],0.234375,-0.146484375,0.9677734375,[0. 0. 0. 0. 0. 0. 0. 0. 0.]
6.204174757003784,-0.033922117203474045,-0.002064004074782133,0.4736420810222626,0.8800615072250366,[0. 0. 0. 0. 0. 0. 0. 0. 0.],-1.5869140625,-23.62060546875,57.12890625,[0. 0. 0. 0. 0. 0. 0. 0. 0.],0.0263671875,-0.16064453125,0.81884765625,[0. 0. 0. 0. 0. 0. 0. 0. 0.]
6.222954273223877,-0.03421292454004288,-0.007288709282875061,0.4837133586406708,0.8745272159576416,[0. 0. 0. 0. 0. 0. 0. 0. 0.],-11.1083984375,-17.63916015625,69.15283203125,[0. 0. 0. 0. 0. 0. 0. 0. 0.],0.16943359375,-0.166015625,0.9990234375,[0. 0. 0. 0. 0. 0. 0. 0. 0.]
6.243325233459473,-0.03411278873682022,-0.008812149055302143,0.49458786845207214,0.8684132695198059,[0. 0. 0. 0. 0. 0. 0. 0. 0.],5.859375,-5.55419921875,75.01220703125,[0. 0. 0. 0. 0. 0. 0. 0. 0.],0.33935546875,-0.26025390625,1.2841796875,[0. 0. 0. 0. 0. 0. 0. 0. 0.]
6.263593912124634,-0.03202842175960541,-0.010202957317233086,0.5065024495124817,0.8615831136703491,[0. 0. 0. 0. 0. 0. 0. 0. 0.],6.04248046875,3.0517578125,85.63232421875,[0. 0. 0. 0. 0. 0. 0. 0. 0.],0.240234375,-0.20166015625,1.0517578125,[0. 0. 0. 0. 0. 0. 0. 0. 0.]
6.283585548400879,-0.031338997185230255,-0.010960019193589687,0.5196927189826965,0.8537079095840454,[0. 0. 0. 0. 0. 0. 0. 0. 0.],9.21630859375,-5.0048828125,95.88623046875,[0. 0. 0. 0. 0. 0. 0. 0. 0.],0.18994140625,-0.18798828125,0.94873046875,[0. 0. 0. 0. 0. 0. 0. 0. 0.]
6.302877187728882,-0.03209609538316727,-0.011609991081058979,0.5344040393829346,0.8445397615432739,[0. 0. 0. 0. 0. 0. 0. 0. 0.],-12.0849609375,12.5732421875,106.01806640625,[0. 0. 0. 0. 0. 0. 0. 0. 0.],0.2216796875,-0.11669921875,0.82666015625,[0. 0. 0. 0. 0. 0. 0. 0. 0.]
6.323455572128296,-0.032699547708034515,-0.015494344756007195,0.5501977205276489,0.8342500329017639,[0. 0. 0. 0. 0. 0. 0. 0. 0.],-12.02392578125,-21.78955078125,110.83984375,[0. 0. 0. 0. 0. 0. 0. 0. 0.],0.08837890625,-0.197265625,0.8046875,[0. 0. 0. 0. 0. 0. 0. 0. 0.]
6.343246936798096,-0.031626809388399124,-0.019811993464827538,0.5666312575340271,0.8231258988380432,[0. 0. 0. 0. 0. 0. 0. 0. 0.],8.60595703125,-8.97216796875,113.95263671875,[0. 0. 0. 0. 0. 0. 0. 0. 0.],0.37548828125,-0.33154296875,1.21142578125,[0. 0. 0. 0. 0. 0. 0. 0. 0.]
6.362921714782715,-0.031247464939951897,-0.01786991022527218,0.5833763480186462,0.8114039301872253,[0. 0. 0. 0. 0. 0. 0. 0. 0.],16.05224609375,4.0283203125,121.27685546875,[0. 0. 0. 0. 0. 0. 0. 0. 0.],0.43212890625,-0.27734375,1.22509765625,[0. 0. 0. 0. 0. 0. 0. 0. 0.]
6.3827807903289795,-0.028111658990383148,-0.02082158625125885,0.6006200313568115,0.798768937587738,[0. 0. 0. 0. 0. 0. 0. 0. 0.],15.07568359375,-24.5361328125,126.77001953125,[0. 0. 0. 0. 0. 0. 0. 0. 0.],0.14013671875,-0.2509765625,0.97216796875,[0. 0. 0. 0. 0. 0. 0. 0. 0.]
6.402755975723267,-0.027209017425775528,-0.020301224663853645,0.6189871430397034,0.7846670746803284,[0. 0. 0. 0. 0. 0. 0. 0. 0.],-3.47900390625,14.6484375,137.75634765625,[0. 0. 0. 0. 0. 0. 0. 0. 0.],0.34814453125,-0.11328125,0.76513671875,[0. 0. 0. 0. 0. 0. 0. 0. 0.]
6.422797679901123,-0.026400523260235786,-0.023734351620078087,0.6379814743995667,0.769232988357544,[0. 0. 0. 0. 0. 0. 0. 0. 0.],-4.7607421875,-16.357421875,142.02880859375,[0. 0. 0. 0. 0. 0. 0. 0. 0.],0.16259765625,-0.1748046875,0.75439453125,[0. 0. 0. 0. 0. 0. 0. 0. 0.]
6.443211793899536,-0.026191920042037964,-0.025729380548000336,0.6573164463043213,0.7527198791503906,[0. 0. 0. 0. 0. 0. 0. 0. 0.],8.97216796875,-8.9111328125,145.32470703125,[0. 0. 0. 0. 0. 0. 0. 0. 0.],0.3916015625,-0.34716796875,1.16162109375,[0. 0. 0. 0. 0. 0. 0. 0. 0.]
6.46301007270813,-0.024018313735723495,-0.026741327717900276,0.6764499545097351,0.7356109619140625,[0. 0. 0. 0. 0. 0. 0. 0. 0.],20.01953125,-34.7900390625,146.484375,[0. 0. 0. 0. 0. 0. 0. 0. 0.],0.37353515625,-0.3310546875,1.177734375,[0. 0. 0. 0. 0. 0. 0. 0. 0.]
6.482844829559326,-0.022111520171165466,-0.02662300318479538,0.6961072087287903,0.7171033024787903,[0. 0. 0. 0. 0. 0. 0. 0. 0.],-0.91552734375,-1.89208984375,157.958984375,[0. 0. 0. 0. 0. 0. 0. 0. 0.],0.427734375,-0.1298828125,0.86328125,[0. 0. 0. 0. 0. 0. 0. 0. 0.]
6.503281831741333,-0.021216081455349922,-0.029701722785830498,0.7156437635421753,0.6975111365318298,[0. 0. 0. 0. 0. 0. 0. 0. 0.],3.96728515625,-31.1279296875,161.0107421875,[0. 0. 0. 0. 0. 0. 0. 0. 0.],0.16748046875,-0.2080078125,0.73876953125,[0. 0. 0. 0. 0. 0. 0. 0. 0.]
6.522871732711792,-0.019101383164525032,-0.03319971263408661,0.7354284524917603,0.676518976688385,[0. 0. 0. 0. 0. 0. 0. 0. 0.],-2.01416015625,0.732421875,165.83251953125,[0. 0. 0. 0. 0. 0. 0. 0. 0.],0.46435546875,-0.3232421875,1.076171875,[0. 0. 0. 0. 0. 0. 0. 0. 0.]
6.542823791503906,-0.01893039420247078,-0.03216664865612984,0.7550753951072693,0.6545747518539429,[0. 0. 0. 0. 0. 0. 0. 0. 0.],3.84521484375,10.80322265625,173.40087890625,[0. 0. 0. 0. 0. 0. 0. 0. 0.],0.43896484375,-0.2607421875,1.10107421875,[0. 0. 0. 0. 0. 0. 0. 0. 0.]
6.563878536224365,-0.018268795683979988,-0.03397329896688461,0.7746769785881042,0.631179690361023,[0. 0. 0. 0. 0. 0. 0. 0. 0.],-1.953125,-19.8974609375,176.69677734375,[0. 0. 0. 0. 0. 0. 0. 0. 0.],0.2900390625,-0.18603515625,0.732421875,[0. 0. 0. 0. 0. 0. 0. 0. 0.]
6.58359169960022,-0.015813589096069336,-0.038027793169021606,0.7940253019332886,0.606488049030304,[0. 0. 0. 0. 0. 0. 0. 0. 0.],5.126953125,-17.333984375,182.9833984375,[0. 0. 0. 0. 0. 0. 0. 0. 0.],0.3525390625,-0.3076171875,0.93408203125,[0. 0. 0. 0. 0. 0. 0. 0. 0.]
6.602766990661621,-0.016353579238057137,-0.03775772452354431,0.8129043579101562,0.5809418559074402,[0. 0. 0. 0. 0. 0. 0. 0. 0.],13.916015625,7.87353515625,188.65966796875,[0. 0. 0. 0. 0. 0. 0. 0. 0.],0.58740234375,-0.373046875,1.26171875,[0. 0. 0. 0. 0. 0. 0. 0. 0.]
6.623505353927612,-0.016137095168232918,-0.03711865842342377,0.831331193447113,0.5543016791343689,[0. 0. 0. 0. 0. 0. 0. 0. 0.],8.7890625,-13.7939453125,185.6689453125,[0. 0. 0. 0. 0. 0. 0. 0. 0.],0.3818359375,-0.2900390625,0.9140625,[0. 0. 0. 0. 0. 0. 0. 0. 0.]
6.643068552017212,-0.010296608321368694,-0.03946840018033981,0.8489304780960083,0.5269281268119812,[0. 0. 0. 0. 0. 0. 0. 0. 0.],3.0517578125,-16.29638671875,186.09619140625,[0. 0. 0. 0. 0. 0. 0. 0. 0.],0.4033203125,-0.21337890625,0.83154296875,[0. 0. 0. 0. 0. 0. 0. 0. 0.]
6.662806987762451,-0.007734499406069517,-0.03982628509402275,0.8659030795097351,0.49856388568878174,[0. 0. 0. 0. 0. 0. 0. 0. 0.],13.3056640625,-14.6484375,188.65966796875,[0. 0. 0. 0. 0. 0. 0. 0. 0.],0.63623046875,-0.21630859375,1.0576171875,[0. 0. 0. 0. 0. 0. 0. 0. 0.]
6.6828320026397705,-0.008567007258534431,-0.039321355521678925,0.8819975852966309,0.46953243017196655,[0. 0. 0. 0. 0. 0. 0. 0. 0.],0.732421875,2.86865234375,186.95068359375,[0. 0. 0. 0. 0. 0. 0. 0. 0.],0.6162109375,-0.1611328125,0.970703125,[0. 0. 0. 0. 0. 0. 0. 0. 0.]
6.703031063079834,-0.005871647968888283,-0.04017214477062225,0.8968871235847473,0.44039225578308105,[0. 0. 0. 0. 0. 0. 0. 0. 0.],6.77490234375,-25.08544921875,182.6171875,[0. 0. 0. 0. 0. 0. 0. 0. 0.],0.5009765625,-0.23046875,1.0068359375,[0. 0. 0. 0. 0. 0. 0. 0. 0.]
6.722834825515747,-0.0020608201157301664,-0.04179544746875763,0.9105734825134277,0.4112236797809601,[0. 0. 0. 0. 0. 0. 0. 0. 0.],-1.8310546875,-10.986328125,182.0068359375,[0. 0. 0. 0. 0. 0. 0. 0. 0.],0.63232421875,-0.1396484375,0.84521484375,[0. 0. 0. 0. 0. 0. 0. 0. 0.]
6.74271035194397,-0.0014978224644437432,-0.042740598320961,0.9231016039848328,0.3821708559989929,[0. 0. 0. 0. 0. 0. 0. 0. 0.],3.41796875,5.859375,179.99267578125,[0. 0. 0. 0. 0. 0. 0. 0. 0.],0.681640625,-0.1708984375,1.0224609375,[0. 0. 0. 0. 0. 0. 0. 0. 0.]
6.76288366317749,-0.0036007838789373636,-0.041639141738414764,0.9344658255577087,0.35359135270118713,[0. 0. 0. 0. 0. 0. 0. 0. 0.],5.43212890625,6.53076171875,173.03466796875,[0. 0. 0. 0. 0. 0. 0. 0. 0.],0.64892578125,-0.20166015625,1.02685546875,[0. 0. 0. 0. 0. 0. 0. 0. 0.]
6.783351421356201,0.0008621728047728539,-0.040926262736320496,0.944496214389801,0.325962096452713,[0. 0. 0. 0. 0. 0. 0. 0. 0.],15.625,-28.13720703125,165.34423828125,[0. 0. 0. 0. 0. 0. 0. 0. 0.],0.5869140625,-0.23583984375,1.04736328125,[0. 0. 0. 0. 0. 0. 0. 0. 0.]
6.802892684936523,0.0017753893043845892,-0.04001373425126076,0.953544020652771,0.29857930541038513,[0. 0. 0. 0. 0. 0. 0. 0. 0.],9.765625,-0.732421875,165.83251953125,[0. 0. 0. 0. 0. 0. 0. 0. 0.],0.7421875,-0.1376953125,0.96728515625,[0. 0. 0. 0. 0. 0. 0. 0. 0.]
6.823148012161255,0.0034080357290804386,-0.04166664555668831,0.9616153240203857,0.27119800448417664,[0. 0. 0. 0. 0. 0. 0. 0. 0.],-3.72314453125,-14.0380859375,163.14697265625,[0. 0. 0. 0. 0. 0. 0. 0. 0.],0.48828125,-0.1240234375,0.74658203125,[0. 0. 0. 0. 0. 0. 0. 0. 0.]
6.84323263168335,0.0025209581945091486,-0.04238114133477211,0.9688374400138855,0.24403205513954163,[0. 0. 0. 0. 0. 0. 0. 0. 0.],1.0986328125,14.09912109375,162.17041015625,[0. 0. 0. 0. 0. 0. 0. 0. 0.],0.58544921875,-0.197265625,0.84326171875,[0. 0. 0. 0. 0. 0. 0. 0. 0.]
6.8632237911224365,0.0036138701252639294,-0.043283700942993164,0.9749729037284851,0.2180398404598236,[0. 0. 0. 0. 0. 0. 0. 0. 0.],10.19287109375,-21.54541015625,150.2685546875,[0. 0. 0. 0. 0. 0. 0. 0. 0.],0.630859375,-0.26708984375,1.08642578125,[0. 0. 0. 0. 0. 0. 0. 0. 0.]
6.883203983306885,0.007088163867592812,-0.04172423854470253,0.9801931977272034,0.19346892833709717,[0. 0. 0. 0. 0. 0. 0. 0. 0.],16.66259765625,-10.31494140625,142.51708984375,[0. 0. 0. 0. 0. 0. 0. 0. 0.],0.7890625,-0.24560546875,1.173828125,[0. 0. 0. 0. 0. 0. 0. 0. 0.]
6.902959823608398,0.007345020305365324,-0.040385130792856216,0.9847214818000793,0.1692296415567398,[0. 0. 0. 0. 0. 0. 0. 0. 0.],3.7841796875,4.2724609375,140.380859375,[0. 0. 0. 0. 0. 0. 0. 0. 0.],0.73876953125,-0.15380859375,0.9931640625,[0. 0. 0. 0. 0. 0. 0. 0. 0.]
6.922771215438843,0.009035022929310799,-0.04051819443702698,0.9884986877441406,0.14542047679424286,[0. 0. 0. 0. 0. 0. 0. 0. 0.],4.82177734375,-19.47021484375,135.31494140625,[0. 0. 0. 0. 0. 0. 0. 0. 0.],0.47998046875,-0.166015625,0.80517578125,[0. 0. 0. 0. 0. 0. 0. 0. 0.]
6.942892789840698,0.010398045182228088,-0.04036738723516464,0.9916825890541077,0.12177061289548874,[0. 0. 0. 0. 0. 0. 0. 0. 0.],2.25830078125,8.97216796875,137.87841796875,[0. 0. 0. 0. 0. 0. 0. 0. 0.],0.52880859375,-0.1484375,0.7578125,[0. 0. 0. 0. 0. 0. 0. 0. 0.]
6.962825775146484,0.008315316401422024,-0.04097951576113701,0.9942275285720825,0.09880904853343964,[0. 0. 0. 0. 0. 0. 0. 0. 0.],4.45556640625,-0.732421875,128.47900390625,[0. 0. 0. 0. 0. 0. 0. 0. 0.],0.6494140625,-0.205078125,0.939453125,[0. 0. 0. 0. 0. 0. 0. 0. 0.]
6.984171152114868,0.01115298643708229,-0.040326446294784546,0.9961256980895996,0.07735107839107513,[0. 0. 0. 0. 0. 0. 0. 0. 0.],5.43212890625,-12.02392578125,117.5537109375,[0. 0. 0. 0. 0. 0. 0. 0. 0.],0.73583984375,-0.25634765625,1.1904296875,[0. 0. 0. 0. 0. 0. 0. 0. 0.]
7.003952503204346,0.01257509645074606,-0.03930206224322319,0.9974915385246277,0.05751554295420647,[0. 0. 0. 0. 0. 0. 0. 0. 0.],5.615234375,4.45556640625,109.68017578125,[0. 0. 0. 0. 0. 0. 0. 0. 0.],0.7978515625,-0.1796875,1.0712890625,[0. 0. 0. 0. 0. 0. 0. 0. 0.]
7.018718004226685,0.010094793513417244,-0.03744907304644585,0.9984508156776428,0.039894357323646545,[0. 0. 0. 0. 0. 0. 0. 0. 0.],15.5029296875,6.16455078125,95.0927734375,[0. 0. 0. 0. 0. 0. 0. 0. 0.],0.6513671875,-0.1748046875,0.97119140625,[0. 0. 0. 0. 0. 0. 0. 0. 0.]
7.039048194885254,0.013735546730458736,-0.03643539547920227,0.9989488124847412,0.024186793714761734,[0. 0. 0. 0. 0. 0. 0. 0. 0.],1.77001953125,-21.484375,84.47265625,[0. 0. 0. 0. 0. 0. 0. 0. 0.],0.41796875,-0.0849609375,0.71044921875,[0. 0. 0. 0. 0. 0. 0. 0. 0.]
7.060094356536865,0.015454206615686417,-0.03615933284163475,0.9991664290428162,0.01095875259488821,[0. 0. 0. 0. 0. 0. 0. 0. 0.],2.3193359375,5.31005859375,70.86181640625,[0. 0. 0. 0. 0. 0. 0. 0. 0.],0.6337890625,-0.0693359375,0.853515625,[0. 0. 0. 0. 0. 0. 0. 0. 0.]
7.078721761703491,0.01711847260594368,-0.03571753576397896,0.999215304851532,0.000281231856206432,[0. 0. 0. 0. 0. 0. 0. 0. 0.],1.52587890625,-13.18359375,56.57958984375,[0. 0. 0. 0. 0. 0. 0. 0. 0.],0.52587890625,-0.07666015625,0.87353515625,[0. 0. 0. 0. 0. 0. 0. 0. 0.]
7.102967977523804,0.01980956643819809,-0.03460172191262245,0.9991791844367981,-0.007158567197620869,[0. 0. 0. 0. 0. 0. 0. 0. 0.],11.16943359375,-4.69970703125,36.80419921875,[0. 0. 0. 0. 0. 0. 0. 0. 0.],0.78564453125,-0.099609375,1.2080078125,[0. 0. 0. 0. 0. 0. 0. 0. 0.]
7.124634265899658,0.020971324294805527,-0.03231864422559738,0.9991921186447144,-0.011439962312579155,[0. 0. 0. 0. 0. 0. 0. 0. 0.],11.65771484375,-4.2724609375,18.85986328125,[0. 0. 0. 0. 0. 0. 0. 0. 0.],0.77783203125,-0.04248046875,1.17578125,[0. 0. 0. 0. 0. 0. 0. 0. 0.]
7.143203020095825,0.021657070145010948,-0.03139127790927887,0.9991889595985413,-0.01292361132800579,[0. 0. 0. 0. 0. 0. 0. 0. 0.],3.662109375,2.74658203125,2.62451171875,[0. 0. 0. 0. 0. 0. 0. 0. 0.],0.65966796875,0.0244140625,0.9658203125,[0. 0. 0. 0. 0. 0. 0. 0. 0.]
7.159528732299805,0.023370245471596718,-0.031146585941314697,0.9991754293441772,-0.011497282423079014,[0. 0. 0. 0. 0. 0. 0. 0. 0.],-1.77001953125,-6.77490234375,-14.70947265625,[0. 0. 0. 0. 0. 0. 0. 0. 0.],0.513671875,0.04150390625,0.8046875,[0. 0. 0. 0. 0. 0. 0. 0. 0.]
7.179416179656982,0.023676259443163872,-0.030857661738991737,0.9992190003395081,-0.006970146205276251,[0. 0. 0. 0. 0. 0. 0. 0. 0.],-0.1220703125,7.32421875,-34.66796875,[0. 0. 0. 0. 0. 0. 0. 0. 0.],0.63134765625,0.04736328125,0.935546875,[0. 0. 0. 0. 0. 0. 0. 0. 0.]
7.204537868499756,0.024277562275528908,-0.02970811165869236,0.9992631077766418,0.0010913670994341373,[0. 0. 0. 0. 0. 0. 0. 0. 0.],3.173828125,5.06591796875,-52.55126953125,[0. 0. 0. 0. 0. 0. 0. 0. 0.],0.564453125,0.07421875,0.919921875,[0. 0. 0. 0. 0. 0. 0. 0. 0.]
7.223119258880615,0.026231100782752037,-0.030399484559893608,0.9991158843040466,0.012459159828722477,[0. 0. 0. 0. 0. 0. 0. 0. 0.],-15.625,-5.7373046875,-74.52392578125,[0. 0. 0. 0. 0. 0. 0. 0. 0.],0.4794921875,0.1572265625,0.8525390625,[0. 0. 0. 0. 0. 0. 0. 0. 0.]
7.243246078491211,0.026087593287229538,-0.031333498656749725,0.9987760782241821,0.0280012097209692,[0. 0. 0. 0. 0. 0. 0. 0. 0.],-7.568359375,20.93505859375,-97.2900390625,[0. 0. 0. 0. 0. 0. 0. 0. 0.],0.5625,0.12060546875,1.05224609375,[0. 0. 0. 0. 0. 0. 0. 0. 0.]
7.2628583908081055,0.024796005338430405,-0.030222605913877487,0.9981579184532166,0.04639480635523796,[0. 0. 0. 0. 0. 0. 0. 0. 0.],-0.6103515625,20.01953125,-108.2763671875,[0. 0. 0. 0. 0. 0. 0. 0. 0.],0.2236328125,0.23388671875,0.9873046875,[0. 0. 0. 0. 0. 0. 0. 0. 0.]
7.280122995376587,0.021411478519439697,-0.027660254389047623,0.9972205758094788,0.06578630208969116,[0. 0. 0. 0. 0. 0. 0. 0. 0.],5.92041015625,23.3154296875,-107.84912109375,[0. 0. 0. 0. 0. 0. 0. 0. 0.],-0.01953125,0.2822265625,1.0908203125,[0. 0. 0. 0. 0. 0. 0. 0. 0.]
7.30285120010376,0.018294772133231163,-0.024189872667193413,0.9959188103675842,0.0850062146782875,[0. 0. 0. 0. 0. 0. 0. 0. 0.],11.23046875,18.49365234375,-111.328125,[0. 0. 0. 0. 0. 0. 0. 0. 0.],-0.1767578125,0.3369140625,1.17529296875,[0. 0. 0. 0. 0. 0. 0. 0. 0.]
7.324814319610596,0.015550714917480946,-0.02087736874818802,0.9941933155059814,0.1044129878282547,[0. 0. 0. 0. 0. 0. 0. 0. 0.],6.9580078125,12.20703125,-111.81640625,[0. 0. 0. 0. 0. 0. 0. 0. 0.],-0.1904296875,0.36376953125,1.0546875,[0. 0. 0. 0. 0. 0. 0. 0. 0.]
7.344146013259888,0.01352097000926733,-0.018970096483826637,0.9920353293418884,0.12378779798746109,[0. 0. 0. 0. 0. 0. 0. 0. 0.],-0.732421875,9.09423828125,-112.6708984375,[0. 0. 0. 0. 0. 0. 0. 0. 0.],-0.20068359375,0.36279296875,0.962890625,[0. 0. 0. 0. 0. 0. 0. 0. 0.]
7.362879753112793,0.012790462002158165,-0.017036693170666695,0.9894691109657288,0.14316847920417786,[0. 0. 0. 0. 0. 0. 0. 0. 0.],5.92041015625,2.01416015625,-111.4501953125,[0. 0. 0. 0. 0. 0. 0. 0. 0.],-0.22509765625,0.31103515625,1.0302734375,[0. 0. 0. 0. 0. 0. 0. 0. 0.]
7.382718086242676,0.010844847187399864,-0.013859718106687069,0.9866099953651428,0.16214519739151,[0. 0. 0. 0. 0. 0. 0. 0. 0.],4.39453125,10.009765625,-108.3984375,[0. 0. 0. 0. 0. 0. 0. 0. 0.],-0.1689453125,0.322265625,0.98193359375,[0. 0. 0. 0. 0. 0. 0. 0. 0.]
7.402824401855469,0.010296085849404335,-0.012394416145980358,0.9833914637565613,0.18078067898750305,[0. 0. 0. 0. 0. 0. 0. 0. 0.],0.3662109375,-2.62451171875,-109.2529296875,[0. 0. 0. 0. 0. 0. 0. 0. 0.],-0.23095703125,0.34912109375,0.93017578125,[0. 0. 0. 0. 0. 0. 0. 0. 0.]
7.422865867614746,0.009401907213032246,-0.010165752843022346,0.9797858595848083,0.19956952333450317,[0. 0. 0. 0. 0. 0. 0. 0. 0.],6.28662109375,8.23974609375,-107.97119140625,[0. 0. 0. 0. 0. 0. 0. 0. 0.],-0.14111328125,0.3076171875,1.00634765625,[0. 0. 0. 0. 0. 0. 0. 0. 0.]
7.446047067642212,0.008479863405227661,-0.008108957670629025,0.9759620428085327,0.21762463450431824,[0. 0. 0. 0. 0. 0. 0. 0. 0.],-2.8076171875,3.662109375,-103.515625,[0. 0. 0. 0. 0. 0. 0. 0. 0.],-0.20263671875,0.3447265625,0.9765625,[0. 0. 0. 0. 0. 0. 0. 0. 0.]
7.462777137756348,0.00788187887519598,-0.006991349160671234,0.9720500111579895,0.23453736305236816,[0. 0. 0. 0. 0. 0. 0. 0. 0.],0.732421875,-0.67138671875,-94.7265625,[0. 0. 0. 0. 0. 0. 0. 0. 0.],-0.2314453125,0.32666015625,1.09912109375,[0. 0. 0. 0. 0. 0. 0. 0. 0.]
7.486567497253418,0.0073017217218875885,-0.004661459010094404,0.967406153678894,0.253081738948822,[0. 0. 0. 0. 0. 0. 0. 0. 0.],2.01416015625,0.54931640625,-82.45849609375,[0. 0. 0. 0. 0. 0. 0. 0. 0.],-0.1787109375,0.27197265625,0.97412109375,[0. 0. 0. 0. 0. 0. 0. 0. 0.]
7.503017902374268,0.007221058011054993,-0.003482920816168189,0.9648275971412659,0.26276105642318726,[0. 0. 0. 0. 0. 0. 0. 0. 0.],-0.244140625,-1.89208984375,-73.54736328125,[0. 0. 0. 0. 0. 0. 0. 0. 0.],-0.17626953125,0.28173828125,0.92724609375,[0. 0. 0. 0. 0. 0. 0. 0. 0.]
7.523496866226196,0.007206335663795471,-0.0018339272355660796,0.9617793560028076,0.2737249433994293,[0. 0. 0. 0. 0. 0. 0. 0. 0.],0.91552734375,-3.72314453125,-60.05859375,[0. 0. 0. 0. 0. 0. 0. 0. 0.],-0.169921875,0.27587890625,0.984375,[0. 0. 0. 0. 0. 0. 0. 0. 0.]
7.542819976806641,0.007957998663187027,0.00021522288443520665,0.9594509601593018,0.28176310658454895,[0. 0. 0. 0. 0. 0. 0. 0. 0.],4.8828125,-2.8076171875,-41.93115234375,[0. 0. 0. 0. 0. 0. 0. 0. 0.],-0.15625,0.28466796875,1.05712890625,[0. 0. 0. 0. 0. 0. 0. 0. 0.]
7.559091806411743,0.007801224943250418,0.0022336593829095364,0.9577860832214355,0.2873675525188446,[0. 0. 0. 0. 0. 0. 0. 0. 0.],0.67138671875,3.11279296875,-28.50341796875,[0. 0. 0. 0. 0. 0. 0. 0. 0.],-0.08544921875,0.33837890625,1.01806640625,[0. 0. 0. 0. 0. 0. 0. 0. 0.]
7.582779169082642,0.007657439447939396,0.003276030533015728,0.9567331671714783,0.2908473610877991,[0. 0. 0. 0. 0. 0. 0. 0. 0.],-3.23486328125,-3.11279296875,-16.05224609375,[0. 0. 0. 0. 0. 0. 0. 0. 0.],-0.12841796875,0.33203125,0.99560546875,[0. 0. 0. 0. 0. 0. 0. 0. 0.]
7.6029274463653564,0.007710800040513277,0.004540126770734787,0.9561243653297424,0.2928243577480316,[0. 0. 0. 0. 0. 0. 0. 0. 0.],0.1220703125,-0.9765625,-9.1552734375,[0. 0. 0. 0. 0. 0. 0. 0. 0.],-0.08203125,0.31201171875,1.00390625,[0. 0. 0. 0. 0. 0. 0. 0. 0.]
7.623549222946167,0.007797701749950647,0.006414255127310753,0.9557501673698425,0.29400643706321716,[0. 0. 0. 0. 0. 0. 0. 0. 0.],1.708984375,0.42724609375,-6.40869140625,[0. 0. 0. 0. 0. 0. 0. 0. 0.],-0.06640625,0.3095703125,0.97216796875,[0. 0. 0. 0. 0. 0. 0. 0. 0.]
7.644632577896118,0.007873840630054474,0.008105291053652763,0.9554588794708252,0.2949080467224121,[0. 0. 0. 0. 0. 0. 0. 0. 0.],1.52587890625,1.15966796875,-5.55419921875,[0. 0. 0. 0. 0. 0. 0. 0. 0.],-0.052734375,0.3203125,0.98388671875,[0. 0. 0. 0. 0. 0. 0. 0. 0.]
7.662777900695801,0.007706870790570974,0.009947538375854492,0.9551899433135986,0.29572594165802,[0. 0. 0. 0. 0. 0. 0. 0. 0.],0.1220703125,2.74658203125,-4.33349609375,[0. 0. 0. 0. 0. 0. 0. 0. 0.],-0.0498046875,0.33740234375,1.01611328125,[0. 0. 0. 0. 0. 0. 0. 0. 0.]
7.682753086090088,0.007824523374438286,0.011260567232966423,0.9550097584724426,0.29625725746154785,[0. 0. 0. 0. 0. 0. 0. 0. 0.],-2.62451171875,-3.23486328125,-1.77001953125,[0. 0. 0. 0. 0. 0. 0. 0. 0.],-0.06982421875,0.3447265625,1.0224609375,[0. 0. 0. 0. 0. 0. 0. 0. 0.]
7.69968843460083,0.008211060427129269,0.01204383559525013,0.9548923969268799,0.2965940535068512,[0. 0. 0. 0. 0. 0. 0. 0. 0.],-3.5400390625,-1.46484375,-1.15966796875,[0. 0. 0. 0. 0. 0. 0. 0. 0.],-0.00439453125,0.3388671875,1.04248046875,[0. 0. 0. 0. 0. 0. 0. 0. 0.]
7.722709894180298,0.00906578078866005,0.013529111631214619,0.9549118280410767,0.2964426279067993,[0. 0. 0. 0. 0. 0. 0. 0. 0.],3.662109375,-2.62451171875,2.62451171875,[0. 0. 0. 0. 0. 0. 0. 0. 0.],0.02490234375,0.3076171875,1.06201171875,[0. 0. 0. 0. 0. 0. 0. 0. 0.]
7.743782043457031,0.01023470051586628,0.015373815782368183,0.9551567435264587,0.2955241799354553,[0. 0. 0. 0. 0. 0. 0. 0. 0.],3.5400390625,-2.5634765625,7.62939453125,[0. 0. 0. 0. 0. 0. 0. 0. 0.],0.02099609375,0.3212890625,1.0078125,[0. 0. 0. 0. 0. 0. 0. 0. 0.]
7.764034271240234,0.011159119196236134,0.016924206167459488,0.9556294083595276,0.29387325048446655,[0. 0. 0. 0. 0. 0. 0. 0. 0.],0.06103515625,-1.40380859375,11.77978515625,[0. 0. 0. 0. 0. 0. 0. 0. 0.],-0.0185546875,0.30908203125,0.9736328125,[0. 0. 0. 0. 0. 0. 0. 0. 0.]
7.783130168914795,0.011641181074082851,0.018439140170812607,0.95623379945755,0.2917901277542114,[0. 0. 0. 0. 0. 0. 0. 0. 0.],0.18310546875,-1.708984375,13.3056640625,[0. 0. 0. 0. 0. 0. 0. 0. 0.],-0.04443359375,0.2939453125,0.986328125,[0. 0. 0. 0. 0. 0. 0. 0. 0.]
7.798555135726929,0.012089766561985016,0.01977856270968914,0.9568736553192139,0.28957828879356384,[0. 0. 0. 0. 0. 0. 0. 0. 0.],-1.15966796875,-0.79345703125,12.939453125,[0. 0. 0. 0. 0. 0. 0. 0. 0.],-0.02978515625,0.27685546875,0.98486328125,[0. 0. 0. 0. 0. 0. 0. 0. 0.]
7.823268175125122,0.01245049200952053,0.02110944129526615,0.9574276804924011,0.28763100504875183,[0. 0. 0. 0. 0. 0. 0. 0. 0.],-1.03759765625,0.06103515625,11.16943359375,[0. 0. 0. 0. 0. 0. 0. 0. 0.],-0.0087890625,0.24609375,1.001953125,[0. 0. 0. 0. 0. 0. 0. 0. 0.]
7.842947244644165,0.01254191529005766,0.02233920246362686,0.9578685164451599,0.2860623002052307,[0. 0. 0. 0. 0. 0. 0. 0. 0.],-2.3193359375,0.67138671875,8.11767578125,[0. 0. 0. 0. 0. 0. 0. 0. 0.],-0.0146484375,0.2216796875,0.9873046875,[0. 0. 0. 0. 0. 0. 0. 0. 0.]
7.858348608016968,0.01241790410131216,0.023683976382017136,0.9581778645515442,0.2849213778972626,[0. 0. 0. 0. 0. 0. 0. 0. 0.],-1.3427734375,-0.06103515625,5.9814453125,[0. 0. 0. 0. 0. 0. 0. 0. 0.],-0.02783203125,0.19189453125,1.00439453125,[0. 0. 0. 0. 0. 0. 0. 0. 0.]
7.883160829544067,0.012416517361998558,0.025294512510299683,0.9583907723426819,0.2840654253959656,[0. 0. 0. 0. 0. 0. 0. 0. 0.],0.48828125,-1.40380859375,4.5166015625,[0. 0. 0. 0. 0. 0. 0. 0. 0.],-0.03759765625,0.189453125,1.01806640625,[0. 0. 0. 0. 0. 0. 0. 0. 0.]
7.903053283691406,0.012424834072589874,0.026849638670682907,0.9585105180740356,0.28351789712905884,[0. 0. 0. 0. 0. 0. 0. 0. 0.],1.15966796875,-2.01416015625,2.38037109375,[0. 0. 0. 0. 0. 0. 0. 0. 0.],-0.03076171875,0.18505859375,1.01513671875,[0. 0. 0. 0. 0. 0. 0. 0. 0.]
7.923255920410156,0.01227286085486412,0.028334587812423706,0.9585493206977844,0.2832484543323517,[0. 0. 0. 0. 0. 0. 0. 0. 0.],-0.1220703125,-1.5869140625,0.9765625,[0. 0. 0. 0. 0. 0. 0. 0. 0.],-0.03271484375,0.14599609375,1.0009765625,[0. 0. 0. 0. 0. 0. 0. 0. 0.]
7.94273042678833,0.01234561949968338,0.030096452683210373,0.9585191011428833,0.2831657826900482,[0. 0. 0. 0. 0. 0. 0. 0. 0.],1.15966796875,-1.15966796875,-0.06103515625,[0. 0. 0. 0. 0. 0. 0. 0. 0.],-0.0234375,0.16650390625,1.02490234375,[0. 0. 0. 0. 0. 0. 0. 0. 0.]
7.958574056625366,0.011988213285803795,0.03138552978634834,0.9584360718727112,0.2833225727081299,[0. 0. 0. 0. 0. 0. 0. 0. 0.],-5.43212890625,1.40380859375,-0.79345703125,[0. 0. 0. 0. 0. 0. 0. 0. 0.],-0.029296875,0.115234375,0.96142578125,[0. 0. 0. 0. 0. 0. 0. 0. 0.]
7.982913970947266,0.010202130302786827,0.029933925718069077,0.9584603905677795,0.28346696496009827,[0. 0. 0. 0. 0. 0. 0. 0. 0.],-11.23046875,1.64794921875,0.6103515625,[0. 0. 0. 0. 0. 0. 0. 0. 0.],-0.033203125,-0.03759765625,0.943359375,[0. 0. 0. 0. 0. 0. 0. 0. 0.]
8.004568338394165,0.00897575356066227,0.02623089589178562,0.9586678743362427,0.2831735908985138,[0. 0. 0. 0. 0. 0. 0. 0. 0.],-8.85009765625,-2.3193359375,2.13623046875,[0. 0. 0. 0. 0. 0. 0. 0. 0.],-0.0078125,-0.220703125,1.03955078125,[0. 0. 0. 0. 0. 0. 0. 0. 0.]
8.022773504257202,0.008180763572454453,0.02378394640982151,0.9590171575546265,0.2822296917438507,[0. 0. 0. 0. 0. 0. 0. 0. 0.],-6.8359375,0.732421875,8.23974609375,[0. 0. 0. 0. 0. 0. 0. 0. 0.],0.0087890625,-0.20654296875,1.0234375,[0. 0. 0. 0. 0. 0. 0. 0. 0.]
8.044214010238647,0.007748137228190899,0.022509217262268066,0.9594534039497375,0.28086018562316895,[0. 0. 0. 0. 0. 0. 0. 0. 0.],14.34326171875,-7.26318359375,6.16455078125,[0. 0. 0. 0. 0. 0. 0. 0. 0.],0.02880859375,-0.05078125,1.1298828125,[0. 0. 0. 0. 0. 0. 0. 0. 0.]
8.062865495681763,0.008288742043077946,0.025003621354699135,0.9597755670547485,0.27953001856803894,[0. 0. 0. 0. 0. 0. 0. 0. 0.],5.37109375,1.708984375,5.615234375,[0. 0. 0. 0. 0. 0. 0. 0. 0.],-0.0009765625,0.201171875,0.96240234375,[0. 0. 0. 0. 0. 0. 0. 0. 0.]
8.082630395889282,0.008295807987451553,0.026769381016492844,0.9598679542541504,0.2790486216545105,[0. 0. 0. 0. 0. 0. 0. 0. 0.],-11.65771484375,4.7607421875,2.0751953125,[0. 0. 0. 0. 0. 0. 0. 0. 0.],-0.052734375,0.1787109375,0.85595703125,[0. 0. 0. 0. 0. 0. 0. 0. 0.]
8.102658987045288,0.0066414945758879185,0.02658601477742195,0.9599497318267822,0.278828889131546,[0. 0. 0. 0. 0. 0. 0. 0. 0.],-4.7607421875,3.23486328125,1.220703125,[0. 0. 0. 0. 0. 0. 0. 0. 0.],-0.07080078125,0.04541015625,1.052734375,[0. 0. 0. 0. 0. 0. 0. 0. 0.]
8.123586654663086,0.004806910175830126,0.027155593037605286,0.9600620269775391,0.2784249186515808,[0. 0. 0. 0. 0. 0. 0. 0. 0.],3.72314453125,-2.86865234375,2.197265625,[0. 0. 0. 0. 0. 0. 0. 0. 0.],-0.0478515625,0.0634765625,1.06787109375,[0. 0. 0. 0. 0. 0. 0. 0. 0.]
8.142748355865479,0.004726130980998278,0.028421267867088318,0.960101306438446,0.27816420793533325,[0. 0. 0. 0. 0. 0. 0. 0. 0.],1.52587890625,-0.91552734375,2.01416015625,[0. 0. 0. 0. 0. 0. 0. 0. 0.],-0.0166015625,0.09814453125,0.96728515625,[0. 0. 0. 0. 0. 0. 0. 0. 0.]
8.16364574432373,0.005113021470606327,0.029903307557106018,0.960152804851532,0.2778242826461792,[0. 0. 0. 0. 0. 0. 0. 0. 0.],-1.8310546875,-0.42724609375,2.197265625,[0. 0. 0. 0. 0. 0. 0. 0. 0.],-0.01220703125,0.09619140625,0.96484375,[0. 0. 0. 0. 0. 0. 0. 0. 0.]
8.182769060134888,0.004589867312461138,0.03156965225934982,0.9601854681968689,0.27753573656082153,[0. 0. 0. 0. 0. 0. 0. 0. 0.],0.67138671875,-0.9765625,1.40380859375,[0. 0. 0. 0. 0. 0. 0. 0. 0.],-0.02392578125,0.07763671875,1.02978515625,[0. 0. 0. 0. 0. 0. 0. 0. 0.]
8.20314335823059,0.003794659161940217,0.03320581465959549,0.9601636528968811,0.2774326205253601,[0. 0. 0. 0. 0. 0. 0. 0. 0.],-0.1220703125,0.06103515625,0.244140625,[0. 0. 0. 0. 0. 0. 0. 0. 0.],-0.0302734375,0.0888671875,1.013671875,[0. 0. 0. 0. 0. 0. 0. 0. 0.]
8.222867012023926,0.0030882663559168577,0.034645240753889084,0.9601157903671265,0.2774307131767273,[0. 0. 0. 0. 0. 0. 0. 0. 0.],0.0,-1.0986328125,0.06103515625,[0. 0. 0. 0. 0. 0. 0. 0. 0.],-0.041015625,0.09326171875,0.99755859375,[0. 0. 0. 0. 0. 0. 0. 0. 0.]
8.24348783493042,0.0022436806466430426,0.036121681332588196,0.9600614309310913,0.27743881940841675,[0. 0. 0. 0. 0. 0. 0. 0. 0.],0.3662109375,-1.15966796875,-0.06103515625,[0. 0. 0. 0. 0. 0. 0. 0. 0.],-0.0322265625,0.08544921875,1.00146484375,[0. 0. 0. 0. 0. 0. 0. 0. 0.]
8.262763261795044,0.002100145909935236,0.037806324660778046,0.959972083568573,0.2775246798992157,[0. 0. 0. 0. 0. 0. 0. 0. 0.],-0.48828125,-0.8544921875,-0.9765625,[0. 0. 0. 0. 0. 0. 0. 0. 0.],-0.0185546875,0.0830078125,0.99560546875,[0. 0. 0. 0. 0. 0. 0. 0. 0.]
8.282762050628662,0.0011568166082724929,0.03757104650139809,0.9599109292030334,0.2777736783027649,[0. 0. 0. 0. 0. 0. 0. 0. 0.],-0.48828125,-0.1220703125,-1.3427734375,[0. 0. 0. 0. 0. 0. 0. 0. 0.],-0.021484375,0.06591796875,1.00732421875,[0. 0. 0. 0. 0. 0. 0. 0. 0.]
8.302677392959595,-8.219734809244983e-06,0.036161188036203384,0.9598852396011353,0.2780517637729645,[0. 0. 0. 0. 0. 0. 0. 0. 0.],-0.3662109375,-0.18310546875,-1.220703125,[0. 0. 0. 0. 0. 0. 0. 0. 0.],-0.03125,0.0517578125,1.0048828125,[0. 0. 0. 0. 0. 0. 0. 0. 0.]
8.322840213775635,-0.0013911589048802853,0.03489069640636444,0.9598500728607178,0.27833178639411926,[0. 0. 0. 0. 0. 0. 0. 0. 0.],-0.6103515625,-0.3662109375,-1.220703125,[0. 0. 0. 0. 0. 0. 0. 0. 0.],-0.03564453125,0.046875,1.00146484375,[0. 0. 0. 0. 0. 0. 0. 0. 0.]
8.342822551727295,-0.0024795171339064837,0.033409878611564636,0.9598144888877869,0.27862870693206787,[0. 0. 0. 0. 0. 0. 0. 0. 0.],0.0,-1.03759765625,-1.64794921875,[0. 0. 0. 0. 0. 0. 0. 0. 0.],-0.02978515625,0.041015625,1.0087890625,[0. 0. 0. 0. 0. 0. 0. 0. 0.]
8.36488938331604,-0.0031047710217535496,0.03163384646177292,0.9597901701927185,0.27891305088996887,[0. 0. 0. 0. 0. 0. 0. 0. 0.],-0.42724609375,-0.48828125,-1.52587890625,[0. 0. 0. 0. 0. 0. 0. 0. 0.],-0.0244140625,0.041015625,1.00341796875,[0. 0. 0. 0. 0. 0. 0. 0. 0.]
8.38288426399231,-0.003746041562408209,0.029846100136637688,0.9597664475440979,0.27918365597724915,[0. 0. 0. 0. 0. 0. 0. 0. 0.],-0.42724609375,-0.42724609375,-1.3427734375,[0. 0. 0. 0. 0. 0. 0. 0. 0.],-0.02587890625,0.037109375,1.00048828125,[0. 0. 0. 0. 0. 0. 0. 0. 0.]
8.402774572372437,-0.004564111120998859,0.028128663077950478,0.9597406387329102,0.27943846583366394,[0. 0. 0. 0. 0. 0. 0. 0. 0.],-0.48828125,-0.54931640625,-1.220703125,[0. 0. 0. 0. 0. 0. 0. 0. 0.],-0.029296875,0.0322265625,1.00537109375,[0. 0. 0. 0. 0. 0. 0. 0. 0.]
8.42291784286499,-0.005159975495189428,0.02636578679084778,0.9597124457359314,0.279697060585022,[0. 0. 0. 0. 0. 0. 0. 0. 0.],-0.3662109375,-0.244140625,-1.40380859375,[0. 0. 0. 0. 0. 0. 0. 0. 0.],-0.0244140625,0.0302734375,1.005859375,[0. 0. 0. 0. 0. 0. 0. 0. 0.]
8.445149421691895,-0.005665450356900692,0.024068063125014305,0.9596811532974243,0.2800012230873108,[0. 0. 0. 0. 0. 0. 0. 0. 0.],-0.244140625,-0.42724609375,-1.0986328125,[0. 0. 0. 0. 0. 0. 0. 0. 0.],-0.0263671875,0.0263671875,1.00390625,[0. 0. 0. 0. 0. 0. 0. 0. 0.]
8.46303915977478,-0.006136840209364891,0.022729238495230675,0.9596635103225708,0.28016385436058044,[0. 0. 0. 0. 0. 0. 0. 0. 0.],-0.06103515625,-0.91552734375,-1.03759765625,[0. 0. 0. 0. 0. 0. 0. 0. 0.],-0.0263671875,0.02490234375,1.00390625,[0. 0. 0. 0. 0. 0. 0. 0. 0.]
8.477819919586182,-0.006699615623801947,0.020901866257190704,0.9596491456031799,0.280342161655426,[0. 0. 0. 0. 0. 0. 0. 0. 0.],-0.244140625,-0.54931640625,-0.9765625,[0. 0. 0. 0. 0. 0. 0. 0. 0.],-0.02490234375,0.0224609375,1.00390625,[0. 0. 0. 0. 0. 0. 0. 0. 0.]
8.50277590751648,-0.007207545451819897,0.019077884033322334,0.959636390209198,0.2805032730102539,[0. 0. 0. 0. 0. 0. 0. 0. 0.],-0.42724609375,-0.30517578125,-0.67138671875,[0. 0. 0. 0. 0. 0. 0. 0. 0.],-0.025390625,0.02099609375,1.0009765625,[0. 0. 0. 0. 0. 0. 0. 0. 0.]
8.522824764251709,-0.00791716668754816,0.017345702275633812,0.9596195220947266,0.2806544005870819,[0. 0. 0. 0. 0. 0. 0. 0. 0.],-0.18310546875,-0.48828125,-0.54931640625,[0. 0. 0. 0. 0. 0. 0. 0. 0.],-0.02685546875,0.021484375,1.00244140625,[0. 0. 0. 0. 0. 0. 0. 0. 0.]
8.542969942092896,-0.008882151916623116,0.01573214866220951,0.9595996141433716,0.28078874945640564,[0. 0. 0. 0. 0. 0. 0. 0. 0.],-0.244140625,-0.732421875,-0.54931640625,[0. 0. 0. 0. 0. 0. 0. 0. 0.],-0.02783203125,0.0224609375,1.00146484375,[0. 0. 0. 0. 0. 0. 0. 0. 0.]
8.563531160354614,-0.010423867963254452,0.014686034061014652,0.9595670700073242,0.28090354800224304,[0. 0. 0. 0. 0. 0. 0. 0. 0.],-0.48828125,-0.91552734375,-0.18310546875,[0. 0. 0. 0. 0. 0. 0. 0. 0.],-0.02880859375,0.02197265625,1.00244140625,[0. 0. 0. 0. 0. 0. 0. 0. 0.]
8.583175420761108,-0.011631129309535027,0.012709495611488819,0.9595975279808044,0.2808484435081482,[0. 0. 0. 0. 0. 0. 0. 0. 0.],-6.77490234375,2.0751953125,1.3427734375,[0. 0. 0. 0. 0. 0. 0. 0. 0.],-0.0341796875,-0.0400390625,0.94677734375,[0. 0. 0. 0. 0. 0. 0. 0. 0.]
8.60923433303833,-0.01355596724897623,0.009085818193852901,0.9596303701400757,0.2807905375957489,[0. 0. 0. 0. 0. 0. 0. 0. 0.],-9.765625,1.3427734375,-1.220703125,[0. 0. 0. 0. 0. 0. 0. 0. 0.],-0.01416015625,-0.25634765625,0.9599609375,[0. 0. 0. 0. 0. 0. 0. 0. 0.]
8.623478174209595,-0.01474786177277565,0.006784973666071892,0.9595403075218201,0.28110286593437195,[0. 0. 0. 0. 0. 0. 0. 0. 0.],-2.50244140625,5.43212890625,-0.48828125,[0. 0. 0. 0. 0. 0. 0. 0. 0.],0.01220703125,-0.19970703125,1.10498046875,[0. 0. 0. 0. 0. 0. 0. 0. 0.]
8.646161317825317,-0.01413277629762888,0.0070457966066896915,0.959398627281189,0.28161168098449707,[0. 0. 0. 0. 0. 0. 0. 0. 0.],13.427734375,-3.173828125,-2.5634765625,[0. 0. 0. 0. 0. 0. 0. 0. 0.],-0.01806640625,0.0244140625,1.10888671875,[0. 0. 0. 0. 0. 0. 0. 0. 0.]
8.663016557693481,-0.014121271669864655,0.00972389243543148,0.9593067765235901,0.28184494376182556,[0. 0. 0. 0. 0. 0. 0. 0. 0.],3.23486328125,-0.54931640625,-2.9296875,[0. 0. 0. 0. 0. 0. 0. 0. 0.],-0.04541015625,0.12353515625,0.89111328125,[0. 0. 0. 0. 0. 0. 0. 0. 0.]
8.68057131767273,-0.014410344883799553,0.011513669975101948,0.9592514038085938,0.2819513976573944,[0. 0. 0. 0. 0. 0. 0. 0. 0.],-2.62451171875,-0.79345703125,1.03759765625,[0. 0. 0. 0. 0. 0. 0. 0. 0.],-0.072265625,0.083984375,0.98779296875,[0. 0. 0. 0. 0. 0. 0. 0. 0.]
8.702894449234009,-0.014264855533838272,0.012711337767541409,0.9592547416687012,0.28189578652381897,[0. 0. 0. 0. 0. 0. 0. 0. 0.],-1.64794921875,-1.03759765625,0.18310546875,[0. 0. 0. 0. 0. 0. 0. 0. 0.],-0.03857421875,0.07080078125,1.06396484375,[0. 0. 0. 0. 0. 0. 0. 0. 0.]
8.722925662994385,-0.012957219034433365,0.014394331723451614,0.9593161344528198,0.2816689908504486,[0. 0. 0. 0. 0. 0. 0. 0. 0.],1.28173828125,-0.18310546875,1.15966796875,[0. 0. 0. 0. 0. 0. 0. 0. 0.],-0.00927734375,0.078125,1.04345703125,[0. 0. 0. 0. 0. 0. 0. 0. 0.]
8.742607116699219,-0.011853069998323917,0.015825333073735237,0.9593454599380493,0.2815409004688263,[0. 0. 0. 0. 0. 0. 0. 0. 0.],-0.30517578125,-0.48828125,0.3662109375,[0. 0. 0. 0. 0. 0. 0. 0. 0.],-0.01318359375,0.09326171875,0.978515625,[0. 0. 0. 0. 0. 0. 0. 0. 0.]
8.758695125579834,-0.011475092731416225,0.017366817221045494,0.959369421005249,0.28138408064842224,[0. 0. 0. 0. 0. 0. 0. 0. 0.],-1.03759765625,-1.89208984375,0.54931640625,[0. 0. 0. 0. 0. 0. 0. 0. 0.],-0.048828125,0.0966796875,0.9921875,[0. 0. 0. 0. 0. 0. 0. 0. 0.]
8.78368854522705,-0.011016459204256535,0.019127540290355682,0.9594691395759583,0.2809482216835022,[0. 0. 0. 0. 0. 0. 0. 0. 0.],1.15966796875,-3.96728515625,4.2724609375,[0. 0. 0. 0. 0. 0. 0. 0. 0.],-0.0576171875,0.08203125,1.01513671875,[0. 0. 0. 0. 0. 0. 0. 0. 0.]
8.80378007888794,-0.010194837115705013,0.020891699939966202,0.9597827196121216,0.27977997064590454,[0. 0. 0. 0. 0. 0. 0. 0. 0.],0.06103515625,-2.99072265625,7.6904296875,[0. 0. 0. 0. 0. 0. 0. 0. 0.],-0.02685546875,0.09228515625,0.99951171875,[0. 0. 0. 0. 0. 0. 0. 0. 0.]
8.82288146018982,-0.008484622463583946,0.02185722067952156,0.9601237177848816,0.2785906195640564,[0. 0. 0. 0. 0. 0. 0. 0. 0.],-1.0986328125,-1.89208984375,5.9814453125,[0. 0. 0. 0. 0. 0. 0. 0. 0.],0.015625,0.08544921875,1.00146484375,[0. 0. 0. 0. 0. 0. 0. 0. 0.]
8.84281849861145,-0.0076756044290959835,0.02258247323334217,0.9603705406188965,0.27770429849624634,[0. 0. 0. 0. 0. 0. 0. 0. 0.],-0.732421875,-0.06103515625,4.7607421875,[0. 0. 0. 0. 0. 0. 0. 0. 0.],-0.03271484375,0.0400390625,1.017578125,[0. 0. 0. 0. 0. 0. 0. 0. 0.]
8.859453201293945,-0.0089688366279006,0.01980123482644558,0.9606546759605408,0.2768937945365906,[0. 0. 0. 0. 0. 0. 0. 0. 0.],-8.544921875,-0.8544921875,4.7607421875,[0. 0. 0. 0. 0. 0. 0. 0. 0.],-0.06396484375,-0.16259765625,0.95703125,[0. 0. 0. 0. 0. 0. 0. 0. 0.]
8.883247137069702,-0.009665369056165218,0.017629003152251244,0.9609166383743286,0.2761070132255554,[0. 0. 0. 0. 0. 0. 0. 0. 0.],-2.44140625,1.953125,5.126953125,[0. 0. 0. 0. 0. 0. 0. 0. 0.],-0.02197265625,-0.17724609375,1.064453125,[0. 0. 0. 0. 0. 0. 0. 0. 0.]
8.903167963027954,-0.010198854841291904,0.014988461509346962,0.9612419605255127,0.2751096785068512,[0. 0. 0. 0. 0. 0. 0. 0. 0.],-8.056640625,-1.5869140625,7.26318359375,[0. 0. 0. 0. 0. 0. 0. 0. 0.],-0.041015625,-0.2314453125,0.89208984375,[0. 0. 0. 0. 0. 0. 0. 0. 0.]
8.922943830490112,-0.01001889817416668,0.012234291061758995,0.9617769718170166,0.27337726950645447,[0. 0. 0. 0. 0. 0. 0. 0. 0.],-1.89208984375,-4.638671875,12.6953125,[0. 0. 0. 0. 0. 0. 0. 0. 0.],-0.02490234375,-0.28955078125,1.00537109375,[0. 0. 0. 0. 0. 0. 0. 0. 0.]
8.94281554222107,-0.009852099232375622,0.010212011635303497,0.9624752402305603,0.27099844813346863,[0. 0. 0. 0. 0. 0. 0. 0. 0.],2.25830078125,-1.8310546875,14.5263671875,[0. 0. 0. 0. 0. 0. 0. 0. 0.],0.05029296875,-0.27783203125,1.10400390625,[0. 0. 0. 0. 0. 0. 0. 0. 0.]
8.964075326919556,-0.009553543291985989,0.008335854858160019,0.9632560014724731,0.26828575134277344,[0. 0. 0. 0. 0. 0. 0. 0. 0.],-4.0283203125,-4.150390625,18.24951171875,[0. 0. 0. 0. 0. 0. 0. 0. 0.],-0.00048828125,-0.2607421875,0.97021484375,[0. 0. 0. 0. 0. 0. 0. 0. 0.]
8.982792854309082,-0.009080332703888416,0.00605163024738431,0.9642698764801025,0.2646973133087158,[0. 0. 0. 0. 0. 0. 0. 0. 0.],-3.41796875,-6.2255859375,23.98681640625,[0. 0. 0. 0. 0. 0. 0. 0. 0.],-0.0458984375,-0.2763671875,0.95947265625,[0. 0. 0. 0. 0. 0. 0. 0. 0.]
9.008160591125488,-0.0089400764554739,0.0035736889112740755,0.9654335975646973,0.26047131419181824,[0. 0. 0. 0. 0. 0. 0. 0. 0.],-6.7138671875,-1.64794921875,26.85546875,[0. 0. 0. 0. 0. 0. 0. 0. 0.],0.01025390625,-0.25732421875,0.9638671875,[0. 0. 0. 0. 0. 0. 0. 0. 0.]
9.02292799949646,-0.008927039802074432,0.0009219652856700122,0.9667335152626038,0.2556284964084625,[0. 0. 0. 0. 0. 0. 0. 0. 0.],-2.25830078125,-8.85009765625,29.296875,[0. 0. 0. 0. 0. 0. 0. 0. 0.],-0.00146484375,-0.2880859375,1.01171875,[0. 0. 0. 0. 0. 0. 0. 0. 0.]
9.04282259941101,-0.008434624411165714,-0.0015929712681099772,0.968152642250061,0.2502135932445526,[0. 0. 0. 0. 0. 0. 0. 0. 0.],-6.40869140625,-1.0986328125,32.77587890625,[0. 0. 0. 0. 0. 0. 0. 0. 0.],0.0244140625,-0.28369140625,1.0029296875,[0. 0. 0. 0. 0. 0. 0. 0. 0.]
9.06452202796936,-0.008991767652332783,-0.0038213927764445543,0.9697233438491821,0.24401059746742249,[0. 0. 0. 0. 0. 0. 0. 0. 0.],-4.57763671875,3.11279296875,37.9638671875,[0. 0. 0. 0. 0. 0. 0. 0. 0.],0.0380859375,-0.30712890625,1.01220703125,[0. 0. 0. 0. 0. 0. 0. 0. 0.]
9.083542346954346,-0.008434220217168331,-0.0058073922991752625,0.9714237451553345,0.23713065683841705,[0. 0. 0. 0. 0. 0. 0. 0. 0.],-2.44140625,-0.91552734375,42.66357421875,[0. 0. 0. 0. 0. 0. 0. 0. 0.],-0.00634765625,-0.32080078125,1.02490234375,[0. 0. 0. 0. 0. 0. 0. 0. 0.]
9.102760553359985,-0.0076667084358632565,-0.006290014833211899,0.9732373952865601,0.22958803176879883,[0. 0. 0. 0. 0. 0. 0. 0. 0.],9.033203125,-3.72314453125,45.59326171875,[0. 0. 0. 0. 0. 0. 0. 0. 0.],0.044921875,-0.33349609375,1.10107421875,[0. 0. 0. 0. 0. 0. 0. 0. 0.]
