time,imu.ypr.x,imu.ypr.y,imu.ypr.z,imu.linear_acceleration.x,imu.linear_acceleration.y,imu.linear_acceleration.z,imu.angular_velocity.x,imu.angular_velocity.y,imu.angular_velocity.z,imu.compass.x,imu.compass.y,imu.compass.z,imu.orientation.x,imu.orientation.y,imu.orientation.z,imu.orientation.w
0.20268869400024414,-2.0171864480063113,1.6946152898051206,-91.17520485307057,-0.02978515625,0.03564453125,1.0048828125,0.42724609375,-0.67138671875,0.06103515625,0.0,0.0,0.0,0.0017555210506543517,0.022919509559869766,0.7139503359794617,0.6998189687728882
0.222670316696167,-2.0765824133589765,1.7275704189419032,-91.17359292842644,-0.02978515625,0.0361328125,1.00244140625,-0.06103515625,-0.54931640625,-0.3662109375,0.0,0.0,0.0,0.001913157757371664,0.02349068783223629,0.713921844959259,0.6998286247253418
0.2427375316619873,-2.112134615205951,1.6783462060889733,-91.1727118340235,-0.02978515625,0.037109375,1.00341796875,-0.42724609375,-0.8544921875,-0.244140625,0.0,0.0,0.0,0.0024372986517846584,0.023411711677908897,0.7139192223548889,0.6998323798179626
0.25813817977905273,-2.1091647635774646,1.667651303787497,-91.16937870170854,-0.029296875,0.037109375,1.0048828125,-0.18310546875,-0.6103515625,-0.18310546875,0.0,0.0,0.0,0.0024865069426596165,0.02332785539329052,0.7139016389846802,0.6998530030250549
0.2828092575073242,-2.083813876142728,1.7913609706952374,-91.16475466364044,-0.0322265625,0.0361328125,1.0029296875,0.3662109375,-0.54931640625,-0.1220703125,0.0,0.0,0.0,0.0015615314478054643,0.02392497844994068,0.7138531804084778,0.6998848915100098
0.30395007133483887,-2.08695256150976,1.7405838503014817,-91.1613942105688,-0.03076171875,0.03662109375,1.00244140625,-0.1220703125,-0.9765625,-0.18310546875,0.0,0.0,0.0,0.0018978866282850504,0.023634523153305054,0.713842511177063,0.69990473985672
0.31864142417907715,-2.080867289846102,1.6848562301416419,-91.15750783293106,-0.029296875,0.037109375,1.0009765625,-0.54931640625,-0.8544921875,-0.30517578125,0.0,0.0,0.0,0.0022088494151830673,0.02325635589659214,0.7138314247131348,0.6999278664588928
0.3409562110900879,-2.083946851388131,1.7300461490726213,-91.15437960629119,-0.03076171875,0.03662109375,1.0029296875,-0.3662109375,-0.42724609375,-0.18310546875,0.0,0.0,0.0,0.0019466516096144915,0.023551354184746742,0.7138024568557739,0.6999483704566956
0.3627169132232666,-2.0940047318277983,1.748371333172354,-91.1517363230824,-0.0302734375,0.0361328125,1.00341796875,0.06103515625,-0.3662109375,0.0,0.0,0.0,0.0,0.00189442269038409,0.023725830018520355,0.7137804627418518,0.6999650597572327
0.38277149200439453,-2.0613562141517257,1.8079993115133883,-91.14933892668373,-0.03125,0.03662109375,1.0029296875,0.06103515625,-0.8544921875,0.1220703125,0.0,0.0,0.0,0.0013238716637715697,0.023886460810899734,0.713760256767273,0.6999814510345459
0.40312886238098145,-2.092980416895708,1.673028156768178,-91.14662051139406,-0.029296875,0.037109375,1.0029296875,-0.06103515625,-1.03759765625,-0.244140625,0.0,0.0,0.0,0.002358765807002783,0.02325938083231449,0.7137648463249207,0.6999951601028442
0.42337703704833984,-2.0935010053765097,1.6749888479467947,-91.14202379408263,-0.029296875,0.03662109375,1.00146484375,-0.18310546875,-0.3662109375,-0.3662109375,0.0,0.0,0.0,0.0023506623692810535,0.0232744999229908,0.7137362360954285,0.700023889541626
0.4428443908691406,-2.0202094470442766,1.7276944295640213,-91.13699677485351,-0.0302734375,0.03564453125,1.001953125,-0.18310546875,-0.42724609375,-0.06103515625,0.0,0.0,0.0,0.0015754977939650416,0.023139726370573044,0.7137097120285034,0.7000576257705688
0.4628455638885498,-2.035904154539908,1.784844116453399,-91.13272107643309,-0.03076171875,0.03515625,1.00439453125,-0.244140625,-0.67138671875,-0.06103515625,0.0,0.0,0.0,0.0013161276001483202,0.023586373776197433,0.7136687636375427,0.7000848650932312
0.4831523895263672,-2.111675498427679,1.7006454930685957,-91.1316487367334,-0.02978515625,0.037109375,1.00244140625,0.18310546875,-0.67138671875,-0.06103515625,0.0,0.0,0.0,0.0023039334919303656,0.02354413829743862,0.7136639356613159,0.7000887393951416
0.5046415328979492,-2.122994189099448,1.728534009223404,-91.12729790623209,-0.0302734375,0.037109375,1.00146484375,0.18310546875,-0.67138671875,-0.244140625,0.0,0.0,0.0,0.002200205810368061,0.023784831166267395,0.7136292457580566,0.7001162767410278
0.5235555171966553,-2.087575816271524,1.7151252806656112,-91.12428579280811,-0.0302734375,0.03662109375,1.00244140625,-0.42724609375,-0.67138671875,-0.244140625,0.0,0.0,0.0,0.002067978261038661,0.02348232828080654,0.7136209011077881,0.700135350227356
0.5426883697509766,-2.132310353683934,1.6313624020055135,-91.12186107565276,-0.02880859375,0.037109375,1.00146484375,-0.48828125,-0.54931640625,-0.30517578125,0.0,0.0,0.0,0.002863703528419137,0.02324935793876648,0.7136140465736389,0.7001473903656006
0.5631589889526367,-2.0867015520577623,1.7258480373322964,-91.1164310752626,-0.0302734375,0.0361328125,1.001953125,0.0,-0.30517578125,-0.18310546875,0.0,0.0,0.0,0.001997436862438917,0.02354222536087036,0.7135708928108215,0.7001845240592957
0.5827224254608154,-2.0518507252611835,1.7155441633608033,-91.11341896183862,-0.02978515625,0.03662109375,1.0048828125,0.06103515625,-0.6103515625,0.1220703125,0.0,0.0,0.0,0.0018492992967367172,0.023262232542037964,0.7135617136955261,0.7002035975456238
0.6026875972747803,-2.0869231063189644,1.7856070699280304,-91.11109669752082,-0.03125,0.037109375,1.00439453125,-0.06103515625,-1.03759765625,-0.06103515625,0.0,0.0,0.0,0.0016275807283818722,0.02390846237540245,0.7135258913040161,0.7002190351486206
0.6226999759674072,-2.1174070943583776,1.7153832270284848,-91.10922522568823,-0.0302734375,0.03759765625,1.0029296875,-0.244140625,-0.79345703125,-0.18310546875,0.0,0.0,0.0,0.002251745667308569,0.02366938255727291,0.713522732257843,0.7002286314964294
0.6429131031036377,-2.1238562870387505,1.7057482847088299,-91.10589209337327,-0.02978515625,0.037109375,1.0009765625,-0.06103515625,-0.244140625,-0.18310546875,0.0,0.0,0.0,0.002351867500692606,0.023650627583265305,0.7135030031204224,0.7002489566802979
0.6627295017242432,-2.0585714179610646,1.7784369721251039,-91.1003733005239,-0.03125,0.0361328125,1.0029296875,-0.18310546875,-0.67138671875,-0.18310546875,0.0,0.0,0.0,0.0015012217918410897,0.023687997832894325,0.7134677767753601,0.7002859115600586
0.6827523708343506,-2.0704228633880946,1.7738946828836337,-91.09757975315337,-0.03125,0.0361328125,1.00341796875,0.0,-0.8544921875,-0.1220703125,0.0,0.0,0.0,0.0016025229124352336,0.02373400516808033,0.7134491801261902,0.7003030776977539
0.7027173042297363,-1.9865319186810593,1.7296846826551395,-91.09193801689894,-0.0302734375,0.03466796875,1.00341796875,0.244140625,-0.732421875,-0.06103515625,0.0,0.0,0.0,0.00136637466493994,0.02294158935546875,0.7134407758712769,0.70033860206604
0.7228024005889893,-2.1378039602107397,1.5913132676420263,-91.09475205483699,-0.02783203125,0.03759765625,1.00341796875,-0.06103515625,-0.3662109375,-0.18310546875,0.0,0.0,0.0,0.0031522507779300213,0.023038258776068687,0.713455319404602,0.7003147602081299
0.742680549621582,-2.092733676311941,1.7561818679316752,-91.090373903579,-0.0322265625,0.037109375,1.00146484375,-0.54931640625,-0.732421875,-0.18310546875,0.0,0.0,0.0,0.0018507057102397084,0.023764610290527344,0.7134041786193848,0.7003472447395325
0.7628593444824219,-2.0355191026254484,1.7494459140278673,-91.08560643153834,-0.0302734375,0.03564453125,1.0029296875,0.0,-0.6103515625,-0.06103515625,0.0,0.0,0.0,0.0015439586713910103,0.023367198184132576,0.713388204574585,0.7003777623176575
0.7825353145599365,-2.085246935207961,1.6608878156835978,-91.08364616724654,-0.02978515625,0.03662109375,1.00390625,0.30517578125,-0.6103515625,-0.06103515625,0.0,0.0,0.0,0.0023998976685106754,0.023135773837566376,0.7133840918540955,0.700387179851532
0.8028404712677002,-2.0933594923946437,1.7737531699017677,-91.08111216706446,-0.03125,0.03662109375,1.001953125,-0.06103515625,-0.8544921875,-0.18310546875,0.0,0.0,0.0,0.0017470093443989754,0.02387569472193718,0.7133437991142273,0.7004052996635437
0.8235208988189697,-2.0859944140352544,1.6955078034305708,-91.07717797810254,-0.029296875,0.03662109375,1.00390625,-0.54931640625,-0.732421875,-0.244140625,0.0,0.0,0.0,0.0021901491563767195,0.02335178665816784,0.7133373618125916,0.700428307056427
0.8426201343536377,-1.9943234569767512,1.7318751456663037,-91.07129035503799,-0.02978515625,0.03466796875,1.0,-0.06103515625,-0.244140625,-0.06103515625,0.0,0.0,0.0,0.0014044962590560317,0.02300322614610195,0.713312566280365,0.7004671692848206
0.8628222942352295,-2.0427358378138014,1.8403829459157113,-91.06924129828698,-0.0322265625,0.03564453125,1.00244140625,0.42724609375,-0.3662109375,-0.06103515625,0.0,0.0,0.0,0.0010250627528876066,0.023967469111084938,0.7132679224014282,0.7004808187484741
0.8844997882843018,-2.0410923235447673,1.670322441361501,-91.06403669413943,-0.029296875,0.03564453125,1.0029296875,-0.1220703125,-0.9765625,-0.30517578125,0.0,0.0,0.0,0.002075181808322668,0.02291817031800747,0.7132711410522461,0.7005103826522827
0.9027347564697266,-2.0658895387699103,1.7411758356034512,-91.06045084482518,-0.03076171875,0.0361328125,1.0029296875,-0.18310546875,-1.03759765625,-0.18310546875,0.0,0.0,0.0,0.001786255044862628,0.02350536175072193,0.7132298946380615,0.7005336880683899
0.9228346347808838,-2.0885335368592064,1.7831731747059787,-91.05833348618248,-0.03125,0.03662109375,1.00146484375,-0.06103515625,-0.3662109375,-0.18310546875,0.0,0.0,0.0,0.001663590082898736,0.02390286512672901,0.7132036089897156,0.7005473375320435
0.9377772808074951,-2.1043163964838136,1.7528062603778078,-91.05743190121203,-0.03076171875,0.037109375,1.001953125,-0.18310546875,-0.30517578125,0.06103515625,0.0,0.0,0.0,0.001949370838701725,0.023815538734197617,0.713201105594635,0.7005521655082703
0.957935094833374,-2.0820785812067215,1.7300782723060615,-91.05321767449414,-0.03076171875,0.03662109375,1.00390625,-0.06103515625,-0.8544921875,0.0,0.0,0.0,0.0,0.001955816987901926,0.023538196459412575,0.713184654712677,0.7005781531333923
0.9805037975311279,-2.060012374432526,1.7685937090357635,-91.04854582510184,-0.03076171875,0.0361328125,1.0009765625,0.18310546875,-0.79345703125,-0.06103515625,0.0,0.0,0.0,0.0015820389380678535,0.023636138066649437,0.7131527066230774,0.7006083726882935
1.0036439895629883,-2.10393625376782,1.718976119975323,-91.04676997591764,-0.0302734375,0.037109375,1.00048828125,0.1220703125,-0.732421875,0.0,0.0,0.0,0.0,0.0021599135361611843,0.02360627055168152,0.713142991065979,0.700617790222168
1.018002986907959,-2.1891172504543412,1.652232258457899,-91.04588205132553,-0.029296875,0.03857421875,1.00146484375,-0.30517578125,-0.91552734375,-0.244140625,0.0,0.0,0.0,0.0030964924953877926,0.0237285103648901,0.713133692741394,0.700619637966156
1.0377593040466309,-2.1486919220779748,1.608699407452588,-91.04112140947404,-0.0283203125,0.03759765625,1.00146484375,-0.30517578125,-0.732421875,-0.244140625,0.0,0.0,0.0,0.003121352754533291,0.023210788145661354,0.713121771812439,0.700648844242096
1.0629730224609375,-2.0865083857702977,1.6874291837463267,-91.03558895624633,-0.029296875,0.0361328125,1.00341796875,0.18310546875,-0.3662109375,-0.1220703125,0.0,0.0,0.0,0.002252067904919386,0.02330482006072998,0.7130846381187439,0.7006869316101074
1.0829641819000244,-2.120566697179743,1.7009864689185674,-91.03252220130899,-0.0302734375,0.03662109375,1.00537109375,0.30517578125,-0.732421875,0.0,0.0,0.0,0.0,0.0023765445221215487,0.023599544540047646,0.7130561470985413,0.7007057070732117
1.1029574871063232,-2.0231647845207763,1.7402246250398212,-91.02526854041044,-0.03076171875,0.03515625,1.00341796875,-0.244140625,-1.0986328125,-0.244140625,0.0,0.0,0.0,0.001538124750368297,0.02323315106332302,0.7130236625671387,0.700753390789032
1.1227993965148926,-2.1308883936761016,1.6850892036253626,-91.02535050268048,-0.029296875,0.03759765625,1.0,0.0,-0.48828125,-0.3662109375,0.0,0.0,0.0,0.002540105953812599,0.023566460236907005,0.7130134701728821,0.7007496356964111
1.1426897048950195,-2.1375243493415925,1.700591598607176,-91.0225911062558,-0.02978515625,0.03759765625,1.001953125,0.1220703125,-0.30517578125,-0.30517578125,0.0,0.0,0.0,0.0024847490713000298,0.023702438920736313,0.7129920125007629,0.7007670402526855
1.1704869270324707,-2.1241141266799186,1.6607681806514167,-91.01827442670034,-0.029296875,0.037109375,1.00146484375,-0.67138671875,-0.732421875,-0.18310546875,0.0,0.0,0.0,0.0026515363715589046,0.0233754999935627,0.7129765152931213,0.7007931470870972
1.1831424236297607,-2.086076162861883,1.648404897923459,-91.01537842649226,-0.02880859375,0.03662109375,1.00341796875,0.1220703125,-0.91552734375,-0.1220703125,0.0,0.0,0.0,0.0024964618496596813,0.02306319959461689,0.7129690051078796,0.7008118033409119
1.2038953304290771,-2.1161531143154457,1.7041292097104195,-91.01280344517517,-0.02978515625,0.037109375,1.0029296875,0.06103515625,-0.67138671875,-0.244140625,0.0,0.0,0.0,0.0023340475745499134,0.02359088882803917,0.7129358053207397,0.700828492641449
1.2227239608764648,-2.118362467068533,1.811121348294319,-91.01066559596495,-0.03125,0.03759765625,1.00341796875,-0.3662109375,-0.48828125,-0.244140625,0.0,0.0,0.0,0.001681998372077942,0.024258576333522797,0.7128999829292297,0.7008441090583801
1.2428159713745117,-2.1227483022893274,1.7347438251177092,-91.00881461469989,-0.0302734375,0.037109375,1.00390625,-0.48828125,-0.6103515625,-0.1220703125,0.0,0.0,0.0,0.0021846413146704435,0.02381897158920765,0.7129037380218506,0.7008540034294128
1.262739896774292,-2.065326048163384,1.7086290237129884,-91.00265378406853,-0.0302734375,0.03662109375,1.00244140625,0.18310546875,-0.54931640625,-0.06103515625,0.0,0.0,0.0,0.0019972457084804773,0.023301992565393448,0.7128832340240479,0.7008926272392273
1.2808551788330078,-2.076564697555817,1.7797863613730045,-90.9997236329146,-0.03173828125,0.03564453125,1.00390625,0.3662109375,-0.67138671875,-0.18310546875,0.0,0.0,0.0,0.0016236883820965886,0.023806849494576454,0.712848424911499,0.7009122371673584
1.3042476177215576,-2.0592747140021643,1.7398668938820419,-90.99491517973891,-0.0302734375,0.0361328125,1.001953125,-0.244140625,-0.91552734375,-0.244140625,0.0,0.0,0.0,0.0017673808615654707,0.0234551839530468,0.7128307819366455,0.7009415626525879
1.3229048252105713,-2.1649035895164115,1.6514249087536623,-90.99580993452018,-0.029296875,0.03759765625,1.0029296875,-0.67138671875,-0.732421875,-0.18310546875,0.0,0.0,0.0,0.002963772276416421,0.023571601137518883,0.7128326892852783,0.7009315490722656
1.342787742614746,-2.203911440196589,1.6457345074013954,-90.99361744379661,-0.02880859375,0.03857421875,1.001953125,0.0,-0.30517578125,-0.18310546875,0.0,0.0,0.0,0.0032382465433329344,0.023779401555657387,0.7128123641014099,0.7009441256523132
1.3578600883483887,-2.0434229121556227,1.645334834613244,-90.98524363187417,-0.02978515625,0.03466796875,1.0009765625,0.244140625,-0.48828125,0.06103515625,0.0,0.0,0.0,0.002260705688968301,0.022778455168008804,0.7127938270568848,0.7010000348091125
1.3828487396240234,-2.046404289728333,1.6032195680258279,-90.98100891458876,-0.02880859375,0.0361328125,1.001953125,0.06103515625,-1.03759765625,-0.1220703125,0.0,0.0,0.0,0.002541878493502736,0.022539407014846802,0.7127756476402283,0.7010252475738525
1.4038922786712646,-2.1404858766770274,1.6056371348268952,-90.97997072583492,-0.0283203125,0.037109375,1.00146484375,-0.18310546875,-0.79345703125,-0.244140625,0.0,0.0,0.0,0.003102595219388604,0.02313935197889805,0.7127500772476196,0.7010295391082764
1.4178786277770996,-2.1142886861154437,1.7264896482274545,-90.97639170670983,-0.0302734375,0.037109375,1.00146484375,-0.1220703125,-0.30517578125,-0.244140625,0.0,0.0,0.0,0.0021909878123551607,0.023715270683169365,0.7127088904380798,0.7010555267333984
1.4387867450714111,-2.2169464293407355,1.6638318406592847,-90.97742306527451,-0.02978515625,0.03857421875,1.0029296875,-0.1220703125,-0.48828125,-0.06103515625,0.0,0.0,0.0,0.003208734327927232,0.023970667272806168,0.7127068042755127,0.7010450959205627
1.4626829624176025,-2.072265520360117,1.7129056826287685,-90.96882385710946,-0.02978515625,0.03662109375,1.00439453125,-0.3662109375,-0.67138671875,-0.1220703125,0.0,0.0,0.0,0.0020199737045913935,0.023370709270238876,0.7126740217208862,0.701103150844574
1.4819729328155518,-2.1026769376395986,1.7881982729444041,-90.96514921533598,-0.03173828125,0.03662109375,1.00244140625,0.1220703125,-0.30517578125,0.0,0.0,0.0,0.0,0.0017382949590682983,0.02402018941938877,0.7126296758651733,0.7011269330978394
1.5028016567230225,-2.0251094674435257,1.7519140669174749,-90.95941185643318,-0.03076171875,0.03564453125,1.0009765625,0.1220703125,-0.8544921875,-0.1220703125,0.0,0.0,0.0,0.0014906434807926416,0.02331584505736828,0.7126180529594421,0.701163113117218
1.5229227542877197,-2.0850025425017216,1.6751574682419295,-90.95722619589877,-0.029296875,0.03662109375,1.00146484375,-0.42724609375,-0.732421875,-0.30517578125,0.0,0.0,0.0,0.0023351414129137993,0.023218858987092972,0.7126080989837646,0.7011741995811462
1.543010950088501,-2.0861384883380594,1.6716668146892297,-90.9537564598004,-0.029296875,0.03662109375,1.0029296875,-0.30517578125,-0.6103515625,-0.244140625,0.0,0.0,0.0,0.0023645106703042984,0.023204507306218147,0.7125873565673828,0.7011955380439758
1.5662407875061035,-2.0409873093862783,1.7230568378392883,-90.94803276127594,-0.0302734375,0.03564453125,1.001953125,-0.1220703125,-0.244140625,-0.244140625,0.0,0.0,0.0,0.0017696531722322106,0.023237934336066246,0.7125511169433594,0.7012331485748291
1.5841443538665771,-2.0423569757582776,1.7516998764539715,-90.94502747804113,-0.0302734375,0.03564453125,1.00146484375,0.06103515625,-0.732421875,0.06103515625,0.0,0.0,0.0,0.0016004479257389903,0.02342159114778042,0.7125266194343567,0.7012523412704468
1.6030397415161133,-2.0350283962222653,1.636242358724076,-90.94240468539985,-0.029296875,0.03564453125,1.00244140625,-0.30517578125,-0.9765625,-0.1220703125,0.0,0.0,0.0,0.002274413127452135,0.022669797763228416,0.7125352025032043,0.701266348361969
1.6230170726776123,-2.1415456232154373,1.6690189424470863,-90.94247298729155,-0.029296875,0.03759765625,1.00390625,-0.244140625,-0.48828125,-0.244140625,0.0,0.0,0.0,0.002722343895584345,0.02353259176015854,0.7125075459480286,0.7012643814086914
1.6435389518737793,-2.1469860823327642,1.6708534885694695,-90.93972042105604,-0.029296875,0.03759765625,1.0029296875,0.0,-0.244140625,-0.06103515625,0.0,0.0,0.0,0.002744796220213175,0.023577574640512466,0.7124891877174377,0.7012815475463867
1.6628384590148926,-2.057896723337114,1.710015658836207,-90.93480951504279,-0.02978515625,0.0361328125,1.0,-0.18310546875,-0.67138671875,0.06103515625,0.0,0.0,0.0,0.001956949243322015,0.02326309122145176,0.7124693989753723,0.7013148665428162
1.6829400062561035,-2.003991376303493,1.788215348417329,-90.92942732597682,-0.03125,0.03515625,1.00341796875,0.06103515625,-1.0986328125,-0.06103515625,0.0,0.0,0.0,0.0011416780762374401,0.023406218737363815,0.7124314904212952,0.7013502717018127
1.702958106994629,-2.0870020803812426,1.7762483233829378,-90.92902434481579,-0.03076171875,0.037109375,1.00439453125,0.0,-0.6103515625,-0.244140625,0.0,0.0,0.0,0.0017242664471268654,0.023849092423915863,0.7124143838882446,0.7013516426086426
1.7233777046203613,-2.080931749756394,1.6678009276190027,-90.9269274767406,-0.02978515625,0.03662109375,1.00244140625,-0.3662109375,-0.48828125,-0.18310546875,0.0,0.0,0.0,0.0023621234577149153,0.023147931322455406,0.7124249935150146,0.7013624310493469
1.7430517673492432,-2.1133996943062843,1.7060609793067696,-90.92410660861339,-0.02978515625,0.03662109375,1.00244140625,-0.48828125,-0.6103515625,-0.06103515625,0.0,0.0,0.0,0.0023234377149492502,0.023583773523569107,0.7123933434486389,0.7013802528381348
1.7627975940704346,-2.1092981657096916,1.718200253174292,-90.92011777813809,-0.0302734375,0.03662109375,1.00390625,0.18310546875,-0.6103515625,-0.06103515625,0.0,0.0,0.0,0.0022236478980630636,0.023632457479834557,0.7123672366142273,0.70140540599823
1.7829954624176025,-2.1122750609707595,1.7410231168424781,-90.91403207958761,-0.03076171875,0.03662109375,1.00439453125,0.3662109375,-0.6103515625,-0.18310546875,0.0,0.0,0.0,0.0021011761855334044,0.023790471255779266,0.7123246788978577,0.701443612575531
1.8039543628692627,-2.0240117279778578,1.7551445329514794,-90.90858841881911,-0.03076171875,0.03564453125,1.00341796875,-0.244140625,-0.732421875,-0.244140625,0.0,0.0,0.0,0.001474169665016234,0.02332812361419201,0.7123066186904907,0.7014790773391724
1.8236417770385742,-2.068648081420949,1.7030439566843278,-90.90609539977206,-0.02978515625,0.0361328125,1.00244140625,-0.42724609375,-0.732421875,-0.244140625,0.0,0.0,0.0,0.002071954542770982,0.02328677661716938,0.7122928500175476,0.7014930248260498
1.8427553176879883,-2.172385207978514,1.7579537684127644,-90.90697649417498,-0.03076171875,0.037109375,1.00244140625,0.1220703125,-0.30517578125,-0.1220703125,0.0,0.0,0.0,0.0023653144016861916,0.02426755428314209,0.7122653722763062,0.7014866471290588
1.8628833293914795,-2.0821251118704422,1.7342885503208454,-90.90076102203028,-0.0302734375,0.03662109375,1.00244140625,0.48828125,-0.6103515625,0.06103515625,0.0,0.0,0.0,0.0019612351898103952,0.023561621084809303,0.7122510671615601,0.7015265822410583
1.8779878616333008,-2.0661642404405915,1.7464726473047962,-90.89567253109863,-0.03076171875,0.0361328125,1.00244140625,-0.18310546875,-1.03759765625,-0.244140625,0.0,0.0,0.0,0.001788796973414719,0.023536885157227516,0.7122206687927246,0.7015587687492371
1.8980884552001953,-2.055712130019768,1.7392819522126537,-90.89106215340887,-0.03076171875,0.03662109375,1.00341796875,-0.3662109375,-0.8544921875,-0.42724609375,0.0,0.0,0.0,0.0017704671481624246,0.023427855223417282,0.7121960520744324,0.7015873789787292
1.918365478515625,-2.1194992666785173,1.7545582038999161,-90.89070015338285,-0.03076171875,0.03759765625,1.00244140625,-0.244140625,-0.54931640625,-0.244140625,0.0,0.0,0.0,0.002066082553938031,0.02391776256263256,0.7121775150299072,0.7015888094902039
1.9433984756469727,-2.1795904172226432,1.6596367171267217,-90.89115777605724,-0.029296875,0.0380859375,1.001953125,-0.54931640625,-0.6103515625,-0.244140625,0.0,0.0,0.0,0.003024153411388397,0.023710409179329872,0.7121875286102295,0.7015822529792786
1.96309494972229,-2.077273329682206,1.722500284143638,-90.8850174359934,-0.03076171875,0.0361328125,1.00146484375,-0.1220703125,-0.67138671875,-0.06103515625,0.0,0.0,0.0,0.0020080655813217163,0.023459063842892647,0.7121580839157104,0.7016242146492004
1.9779245853424072,-2.094130023110386,1.7070162452952193,-90.88139743573329,-0.0302734375,0.03662109375,1.0029296875,0.42724609375,-0.732421875,-0.1220703125,0.0,0.0,0.0,0.002208300167694688,0.023468999192118645,0.7121356129646301,0.7016461491584778
2.0029876232147217,-2.036909686451781,1.7206727816538365,-90.87510683150771,-0.02978515625,0.03564453125,1.00390625,0.06103515625,-0.67138671875,-0.18310546875,0.0,0.0,0.0,0.0017742938362061977,0.0231968741863966,0.7121059894561768,0.701686441898346
2.0229251384735107,-2.1449905998780627,1.6975102227961483,-90.87701928447531,-0.02978515625,0.03759765625,1.001953125,-0.42724609375,-0.8544921875,-0.18310546875,0.0,0.0,0.0,0.0025797346606850624,0.023726802319288254,0.7121002674102783,0.7016720175743103
2.042813777923584,-2.1695572962187173,1.7581271911846594,-90.8742872088073,-0.03076171875,0.03759765625,1.001953125,-0.3662109375,-0.54931640625,-0.18310546875,0.0,0.0,0.0,0.0023538428358733654,0.024250367656350136,0.7120657563209534,0.7016898989677429
2.0644094944000244,-2.119303965956937,1.7894263196128313,-90.86982709527929,-0.03125,0.037109375,1.0009765625,-0.1220703125,-0.244140625,-0.18310546875,0.0,0.0,0.0,0.001852459623478353,0.024129565805196762,0.7120424509048462,0.7017192840576172
2.084184169769287,-2.0947466611263907,1.6957306383522426,-90.86765509512323,-0.02978515625,0.037109375,1.00439453125,0.06103515625,-0.79345703125,0.06103515625,0.0,0.0,0.0,0.0022850532550364733,0.02340349368751049,0.712053656578064,0.7017312049865723
2.1080076694488525,-2.1005290565890413,1.6760037713687763,-90.86344086840533,-0.02978515625,0.03662109375,1.00439453125,0.0,-0.91552734375,-0.06103515625,0.0,0.0,0.0,0.0024439652916043997,0.023318598046898842,0.7120307087898254,0.7017567753791809
2.1228623390197754,-2.063862039803474,1.7083750260532287,-90.85930177376831,-0.02978515625,0.0361328125,1.00146484375,-0.1220703125,-0.48828125,-0.244140625,0.0,0.0,0.0,0.0020190116483718157,0.023288821801543236,0.7120062112808228,0.701784074306488
2.1410794258117676,-2.082359899623161,1.6996845708297394,-90.85782645290757,-0.02978515625,0.037109375,1.00390625,0.0,-0.30517578125,-0.06103515625,0.0,0.0,0.0,0.0021866224706172943,0.023350536823272705,0.7119951844215393,0.7017926573753357
2.1628005504608154,-2.088479962562904,1.6980013560861544,-90.85425426397167,-0.02978515625,0.03662109375,1.0029296875,-0.18310546875,-0.732421875,-0.06103515625,0.0,0.0,0.0,0.0022352945525199175,0.023378189653158188,0.7119724154472351,0.7018146514892578
2.1848578453063965,-2.0914049910749624,1.7974923461357932,-90.84871498055479,-0.03125,0.03662109375,1.0029296875,0.06103515625,-1.03759765625,-0.18310546875,0.0,0.0,0.0,0.0016358871944248676,0.02400527335703373,0.7119173407554626,0.7018510103225708
2.202910900115967,-2.2585960691258267,1.7227134073900838,-90.84930920701257,-0.03076171875,0.0390625,1.001953125,0.06103515625,-0.6103515625,-0.30517578125,0.0,0.0,0.0,0.0031246053986251354,0.02458624169230461,0.7119013667106628,0.7018419504165649
2.2181718349456787,-2.0534427996680313,1.6808635576849462,-90.84064169695583,-0.029296875,0.03564453125,1.00341796875,-0.3662109375,-0.42724609375,-0.1220703125,0.0,0.0,0.0,0.0021299871150404215,0.023055341094732285,0.7118995785713196,0.7018995881080627
2.238112449645996,-2.019474774821677,1.6329967382078505,-90.83735637596504,-0.02880859375,0.03515625,1.001953125,-0.42724609375,-0.6103515625,0.0,0.0,0.0,0.0,0.0022200976964086294,0.02255120687186718,0.7118957042694092,0.7019195556640625
2.2627828121185303,-2.0972420280509727,1.7860173081650543,-90.83612694191444,-0.03125,0.03662109375,1.001953125,0.3662109375,-0.6103515625,-0.1220703125,0.0,0.0,0.0,0.0017456024652346969,0.023971104994416237,0.7118414044380188,0.7019288539886475
2.283109188079834,-2.081736004531163,1.7439787744840953,-90.83219275295252,-0.03076171875,0.03662109375,1.00244140625,0.42724609375,-0.6103515625,-0.06103515625,0.0,0.0,0.0,0.0019127230625599623,0.023617351427674294,0.7118292450904846,0.7019528746604919
2.3006138801574707,-2.039367273892516,1.7430829524857658,-90.82775996018118,-0.03076171875,0.03564453125,1.0048828125,-0.18310546875,-0.91552734375,-0.18310546875,0.0,0.0,0.0,0.0016596540808677673,0.0233486145734787,0.7118109464645386,0.7019809484481812
2.3228402137756348,-2.0120072436247374,1.6943603316500087,-90.82511667697239,-0.02978515625,0.03564453125,1.00390625,-0.54931640625,-0.6103515625,-0.30517578125,0.0,0.0,0.0,0.0017953913193196058,0.02288030833005905,0.7118101119995117,0.701996922492981
2.338510751724243,-2.1311419644490384,1.7139667098276476,-90.82440633729871,-0.03076171875,0.03759765625,1.0029296875,0.1220703125,-0.42724609375,-0.1220703125,0.0,0.0,0.0,0.002403516788035631,0.02374035120010376,0.7117775082588196,0.7019996643066406
2.3627774715423584,-2.078875435929397,1.7509528245135015,-90.81890120482768,-0.03076171875,0.0361328125,1.00439453125,0.3662109375,-0.67138671875,-0.06103515625,0.0,0.0,0.0,0.001854593981988728,0.02364206686615944,0.7117469906806946,0.7020354270935059
2.380462169647217,-2.0631220314955856,1.689590405010107,-90.81536999702678,-0.02978515625,0.0361328125,1.00390625,0.06103515625,-0.8544921875,-0.06103515625,0.0,0.0,0.0,0.0021401378326117992,0.023168427869677544,0.7117410898208618,0.7020564675331116
2.402963876724243,-2.0373047702065836,1.703130401266011,-90.80929112866546,-0.02978515625,0.03515625,1.00390625,0.1220703125,-0.91552734375,-0.18310546875,0.0,0.0,0.0,0.0018990503158420324,0.02309088222682476,0.711706280708313,0.7020950317382812
2.4229495525360107,-2.1439993686747645,1.7020045939917223,-90.80748112853541,-0.02978515625,0.037109375,1.0029296875,-0.18310546875,-0.42724609375,-0.30517578125,0.0,0.0,0.0,0.0025601277593523264,0.02374659851193428,0.7116736769676208,0.7021040320396423
2.4428083896636963,-2.0904658400640854,1.6871898069602589,-90.8045236566248,-0.0302734375,0.037109375,1.0029296875,-0.48828125,-0.48828125,-0.06103515625,0.0,0.0,0.0,0.0023247895296663046,0.023323342204093933,0.7116695642471313,0.7021232843399048
2.463618278503418,-2.0652321330622962,1.7155569699654971,-90.80111539222897,-0.0302734375,0.0361328125,1.00634765625,-0.06103515625,-0.732421875,0.0,0.0,0.0,0.0,0.001994604943320155,0.023340286687016487,0.7116480469703674,0.702145516872406
2.482722759246826,-2.1359230968680474,1.6578120961229763,-90.79811693918333,-0.029296875,0.037109375,1.0048828125,0.42724609375,-0.67138671875,-0.06103515625,0.0,0.0,0.0,0.00278716953471303,0.023425595834851265,0.7116270065307617,0.7021613121032715
2.5046792030334473,-2.067032314795418,1.6844153627750587,-90.79147116512091,-0.029296875,0.03564453125,1.00390625,0.0,-0.54931640625,-0.1220703125,0.0,0.0,0.0,0.002201087074354291,0.02316056750714779,0.7115948796272278,0.7022048234939575
2.5227441787719727,-2.0906991337129237,1.6255281397938532,-90.78964067442334,-0.02880859375,0.037109375,1.00244140625,-0.67138671875,-0.6103515625,-0.244140625,0.0,0.0,0.0,0.0027123538311570883,0.022946828976273537,0.7115907073020935,0.7022143006324768
2.5436666011810303,-2.039565562821858,1.7878199444974088,-90.78503029673358,-0.03125,0.03564453125,1.00244140625,-0.244140625,-0.42724609375,-0.1220703125,0.0,0.0,0.0,0.0013916390016674995,0.023623233661055565,0.7115399241447449,0.7022470831871033
2.562758445739746,-2.0699432560423126,1.775308745485238,-90.78216161728217,-0.03125,0.0361328125,1.0029296875,0.3662109375,-0.48828125,-0.1220703125,0.0,0.0,0.0,0.001656124135479331,0.023735184222459793,0.7115186452865601,0.7022644281387329
2.5827791690826416,-2.030676285060498,1.7292932274383332,-90.77943637180334,-0.0302734375,0.03564453125,1.001953125,0.06103515625,-0.8544921875,0.0,0.0,0.0,0.0,0.0017019094666466117,0.023209482431411743,0.7115194201469421,0.70228111743927
2.602555513381958,-2.138729664286688,1.7555397234279881,-90.78001010769363,-0.03076171875,0.03759765625,1.00439453125,-0.6103515625,-0.9765625,-0.3662109375,0.0,0.0,0.0,0.002200943185016513,0.02404116839170456,0.7114952802658081,0.7022760510444641
2.623061418533325,-2.0430752128381866,1.6954319242977602,-90.77330286192867,-0.029296875,0.03564453125,1.001953125,-0.244140625,-0.42724609375,-0.244140625,0.0,0.0,0.0,0.001989491283893585,0.023078953847289085,0.7114861607551575,0.7023183107376099
2.642857313156128,-2.0389950285827503,1.7541652545792288,-90.76942331448011,-0.03076171875,0.03564453125,1.00048828125,0.06103515625,-0.244140625,0.0,0.0,0.0,0.0,0.0016004194039851427,0.023413339629769325,0.7114512920379639,0.7023435831069946
2.6591057777404785,-2.0256230122917462,1.7165720001091844,-90.76736059735076,-0.02978515625,0.03564453125,1.005859375,-0.06103515625,-0.8544921875,0.0,0.0,0.0,0.0,0.0017524001887068152,0.023100001737475395,0.7114490270614624,0.7023558020591736
2.682847023010254,-2.025457593647785,1.7067611804184015,-90.76303708760614,-0.02978515625,0.03564453125,1.00244140625,0.0,-0.9765625,-0.18310546875,0.0,0.0,0.0,0.001813198090530932,0.023038802668452263,0.7114245295524597,0.702382504940033
2.7075705528259277,-2.0881956559387023,1.7561288272439017,-90.76229942717578,-0.03125,0.03662109375,1.00341796875,0.244140625,-0.67138671875,-0.244140625,0.0,0.0,0.0,0.001891250954940915,0.023730717599391937,0.711397111415863,0.7023869752883911
2.7227413654327393,-2.1455856801095,1.7128959709535425,-90.76228576679745,-0.02978515625,0.03759765625,1.00146484375,-0.30517578125,-0.42724609375,-0.1220703125,0.0,0.0,0.0,0.0025115658063441515,0.023822152987122536,0.7113940715789795,0.7023850679397583
2.7433359622955322,-1.9779636598106898,1.722742969302585,-90.75568097387004,-0.02978515625,0.03515625,1.0048828125,-0.244140625,-0.67138671875,0.0,0.0,0.0,0.0,0.0014242843026295304,0.022841760888695717,0.7113857269287109,0.7024291753768921
2.763662576675415,-2.087611461321255,1.6714810121994643,-90.75351580390314,-0.029296875,0.03662109375,1.00390625,0.30517578125,-0.91552734375,-0.18310546875,0.0,0.0,0.0,0.002415240742266178,0.023208344355225563,0.71136075258255,0.7024397253990173
2.785531997680664,-2.1099325195288565,1.6343343880681154,-90.75005972818312,-0.02880859375,0.03662109375,1.00244140625,0.30517578125,-0.54931640625,-0.06103515625,0.0,0.0,0.0,0.0027834868524223566,0.023119240999221802,0.7113425135612488,0.7024597525596619
2.8042151927948,-2.0463586128382585,1.729130263393605,-90.74615285997787,-0.0302734375,0.0361328125,1.0,-0.54931640625,-0.8544921875,-0.244140625,0.0,0.0,0.0,0.0018057978013530374,0.023305336013436317,0.7113122940063477,0.7024873495101929
2.818742513656616,-2.075526508801975,1.733620792607771,-90.74542885992585,-0.03076171875,0.03662109375,1.00146484375,-0.48828125,-0.48828125,-0.06103515625,0.0,0.0,0.0,0.0019568693824112415,0.02351388894021511,0.7113009691238403,0.7024915814399719
2.8427274227142334,-2.0613133120260017,1.698023554200957,-90.74111218037041,-0.02978515625,0.0361328125,1.00390625,0.30517578125,-0.42724609375,-0.1220703125,0.0,0.0,0.0,0.0020916915964335203,0.02320748195052147,0.7112846374511719,0.7025178074836731
2.863673210144043,-2.059938523012125,1.654411622411662,-90.73875576510675,-0.029296875,0.0361328125,1.00537109375,0.0,-0.54931640625,0.0,0.0,0.0,0.0,0.0023545767180621624,0.022931672632694244,0.7112792730331421,0.7025313973426819
2.8829033374786377,-2.0077550239795814,1.6497112783239296,-90.73441176479461,-0.029296875,0.03564453125,1.0048828125,-0.1220703125,-0.9765625,0.0,0.0,0.0,0.0,0.0020647034980356693,0.022578883916139603,0.71126389503479,0.7025593519210815
2.903559684753418,-2.0778874063772723,1.7532158582845971,-90.73212365142267,-0.03076171875,0.03662109375,1.00439453125,-0.1220703125,-0.8544921875,-0.244140625,0.0,0.0,0.0,0.0018523898907005787,0.02364838682115078,0.7112149000167847,0.7025744915008545
2.9227278232574463,-2.0964271011056255,1.7611397314954582,-90.7292686323496,-0.03076171875,0.037109375,1.00244140625,-0.244140625,-0.42724609375,-0.244140625,0.0,0.0,0.0,0.0019174442859366536,0.02381196618080139,0.7111918926239014,0.7025918960571289
2.9454689025878906,-2.1321235906988165,1.6715394956942327,-90.728039198299,-0.029296875,0.03759765625,1.00439453125,-0.30517578125,-0.67138671875,-0.1220703125,0.0,0.0,0.0,0.00269295834004879,0.023484423756599426,0.7111954092979431,0.70259690284729
2.9583797454833984,-2.022378245549167,1.7185192443528727,-90.72086066948131,-0.0302734375,0.0361328125,1.00341796875,0.0,-0.8544921875,-0.1220703125,0.0,0.0,0.0,0.0017297896556556225,0.023091083392500877,0.7111641764640808,0.7026446461677551
2.9829232692718506,-2.0262236420518844,1.7060308837857392,-90.71595659365724,-0.0302734375,0.03515625,1.00244140625,0.42724609375,-0.67138671875,-0.1220703125,0.0,0.0,0.0,0.0018318964866921306,0.023038335144519806,0.7111358642578125,0.7026746869087219
3.0028600692749023,-2.0760391998765493,1.7450202716108165,-90.71463836714743,-0.0302734375,0.0361328125,1.00341796875,0.0,-0.54931640625,-0.244140625,0.0,0.0,0.0,0.0018955506384372711,0.023586411029100418,0.7111096978187561,0.7026827931404114
3.0231494903564453,-2.067289087219528,1.7094021157496693,-90.71146232918338,-0.02978515625,0.03662109375,1.00244140625,-0.54931640625,-0.67138671875,-0.244140625,0.0,0.0,0.0,0.0020636925473809242,0.02331376075744629,0.7110993266105652,0.7027019262313843
3.045058012008667,-2.1235224615430663,1.784285961932162,-90.70816334781426,-0.03125,0.037109375,1.0009765625,-0.30517578125,-0.42724609375,-0.244140625,0.0,0.0,0.0,0.0019442811608314514,0.02412160113453865,0.7110520005226135,0.7027229070663452
3.057983636856079,-2.133585251181199,1.6210460415944439,-90.7064899514676,-0.029296875,0.03759765625,1.00439453125,0.48828125,-0.54931640625,-0.06103515625,0.0,0.0,0.0,0.003019824158400297,0.023183505982160568,0.7110732793807983,0.7027291059494019
3.0830278396606445,-2.0532609458813798,1.731829148611112,-90.70036327178211,-0.03076171875,0.03564453125,1.0029296875,0.0,-0.9765625,-0.06103515625,0.0,0.0,0.0,0.001840686541981995,0.023363981395959854,0.7110295295715332,0.7027715444564819
3.1029162406921387,-2.1454053204267294,1.7240514841371715,-90.70093017748322,-0.0302734375,0.03759765625,1.00244140625,-0.48828125,-0.91552734375,-0.3662109375,0.0,0.0,0.0,0.002453956985846162,0.023888062685728073,0.7110156416893005,0.7027660608291626
3.1227381229400635,-2.2069391349896086,1.7983326728471163,-90.70058866802472,-0.03173828125,0.0380859375,1.00048828125,-0.1220703125,-0.244140625,-0.1220703125,0.0,0.0,0.0,0.0023702518083155155,0.024725135415792465,0.7109847664833069,0.7027686834335327
3.143048048019409,-2.073569446161355,1.7524323075207497,-90.69372432790885,-0.03125,0.0361328125,1.00341796875,0.1220703125,-0.3662109375,-0.06103515625,0.0,0.0,0.0,0.001838693511672318,0.02361617609858513,0.7109804749488831,0.702812671661377
3.1628823280334473,-2.0703131534745514,1.8148090101158911,-90.69078734656574,-0.03173828125,0.0361328125,1.00390625,0.1220703125,-0.8544921875,0.1220703125,0.0,0.0,0.0,0.0014321120688691735,0.023978285491466522,0.7109501361846924,0.7028321027755737
3.178492307662964,-2.0909574002409146,1.7490477353435967,-90.6880416105194,-0.03076171875,0.03662109375,1.0048828125,-0.06103515625,-1.03759765625,-0.18310546875,0.0,0.0,0.0,0.0019675239454954863,0.023703210055828094,0.7109426856040955,0.7028477191925049
3.203125476837158,-2.079384071579151,1.673423667409804,-90.68239987426497,-0.029296875,0.03662109375,1.00244140625,-0.1220703125,-0.54931640625,-0.30517578125,0.0,0.0,0.0,0.00236711953766644,0.02316770702600479,0.7109259366989136,0.7028812766075134
3.2228164672851562,-2.090928371936942,1.7439753593895102,-90.68022787410891,-0.03076171875,0.03662109375,1.00439453125,-0.18310546875,-0.42724609375,-0.18310546875,0.0,0.0,0.0,0.0020004487596452236,0.023671800270676613,0.710895836353302,0.7028961181640625
3.242607355117798,-2.191302697545334,1.69841863795576,-90.68185345913137,-0.02978515625,0.03857421875,1.00390625,-0.244140625,-0.732421875,0.0,0.0,0.0,0.0,0.002898572478443384,0.02401525154709816,0.7108943462371826,0.7028827667236328
3.263166666030884,-2.095998079848384,1.6755924659146946,-90.67377334534325,-0.02978515625,0.0361328125,1.001953125,0.18310546875,-0.732421875,-0.06103515625,0.0,0.0,0.0,0.0024573183618485928,0.02328389324247837,0.7108691930770874,0.7029344439506531
3.2831482887268066,-2.1272427802066076,1.7305721803604182,-90.67125300553951,-0.0302734375,0.03759765625,1.0029296875,0.30517578125,-0.67138671875,-0.244140625,0.0,0.0,0.0,0.0023082573898136616,0.023814737796783447,0.7108360528945923,0.7029507756233215
3.303071975708008,-2.155829042873815,1.6877646100675978,-90.66810428833213,-0.0302734375,0.0380859375,1.0,-0.42724609375,-0.732421875,-0.30517578125,0.0,0.0,0.0,0.0027499613352119923,0.023729536682367325,0.710819661617279,0.7029687166213989
3.3235111236572266,-2.169245028507601,1.666150262995681,-90.66433402391029,-0.029296875,0.03759765625,1.00390625,-0.18310546875,-0.8544921875,-0.30517578125,0.0,0.0,0.0,0.0029671911615878344,0.02368014119565487,0.7107982039451599,0.7029911279678345
3.3379931449890137,-2.1250727010412476,1.6882935228414506,-90.66090526894695,-0.02978515625,0.03662109375,1.00390625,-0.06103515625,-0.244140625,-0.18310546875,0.0,0.0,0.0,0.002559480955824256,0.02354183979332447,0.7107816934585571,0.7030139565467834
3.358797073364258,-1.9790056905459399,1.69612839014969,-90.65346036275163,-0.02978515625,0.03515625,1.0029296875,0.18310546875,-0.48828125,0.06103515625,0.0,0.0,0.0,0.0016162124229595065,0.02268373966217041,0.7107639312744141,0.7030629515647888
3.3828611373901367,-2.1087716008133657,1.740093890950239,-90.65234704191691,-0.0302734375,0.037109375,1.00341796875,0.0,-1.03759765625,-0.1220703125,0.0,0.0,0.0,0.002139768097549677,0.023758184164762497,0.7107219099998474,0.7030684947967529
3.4039909839630127,-2.1277076599569913,1.619366775553973,-90.64650723017655,-0.02880859375,0.0380859375,1.00244140625,-0.06103515625,-0.732421875,-0.3662109375,0.0,0.0,0.0,0.0030063169542700052,0.023135170340538025,0.710706889629364,0.703101396560669
3.4230399131774902,-2.1420083685317057,1.7055088012010562,-90.64400055075116,-0.02978515625,0.03759765625,1.00146484375,-0.06103515625,-0.42724609375,-0.244140625,0.0,0.0,0.0,0.002560043940320611,0.023752063512802124,0.7106709480285645,0.7031188011169434
3.442676305770874,-2.0359688278936114,1.6970476909232914,-90.63954726741231,-0.02978515625,0.03564453125,1.0029296875,-0.30517578125,-0.48828125,-0.1220703125,0.0,0.0,0.0,0.0019627977162599564,0.023042453452944756,0.7106670141220093,0.7031484842300415
3.4631149768829346,-2.0052771594147476,1.6941283186616398,-90.63449975761567,-0.02978515625,0.03515625,1.00390625,-0.1220703125,-0.8544921875,0.0,0.0,0.0,0.0,0.0017935899086296558,0.02283412776887417,0.7106427550315857,0.703180193901062
3.482790231704712,-2.094509312052733,1.7177515951231868,-90.63364598396942,-0.02978515625,0.037109375,1.00244140625,0.3662109375,-0.67138671875,-0.1220703125,0.0,0.0,0.0,0.0021947524510324,0.023532364517450333,0.7106146812438965,0.7031843066215515
3.502657890319824,-2.058271316524407,1.752208938990549,-90.6297800968992,-0.03076171875,0.0361328125,1.00244140625,-0.06103515625,-0.48828125,-0.1220703125,0.0,0.0,0.0,0.0017593797529116273,0.02351890690624714,0.7105913758277893,0.7032096982002258
3.5227842330932617,-2.0582854037895704,1.6897595589137704,-90.62593470039647,-0.02978515625,0.0361328125,1.00244140625,-0.48828125,-0.79345703125,-0.3662109375,0.0,0.0,0.0,0.0021477036643773317,0.023135902360081673,0.7105804681777954,0.7032322287559509
3.542987108230591,-2.044363343826969,1.6913356250647509,-90.62230103975803,-0.0302734375,0.03564453125,1.00244140625,-0.18310546875,-0.48828125,-0.1220703125,0.0,0.0,0.0,0.0020532221533358097,0.023059174418449402,0.7105606198310852,0.7032551765441895
3.563269853591919,-2.032631853597237,1.6908627411864334,-90.61750624696069,-0.02978515625,0.03564453125,1.00244140625,0.54931640625,-0.67138671875,-0.06103515625,0.0,0.0,0.0,0.00198511965572834,0.02298344485461712,0.7105336785316467,0.7032850980758667
3.5827701091766357,-2.125872686947785,1.6913232453468803,-90.61680956766534,-0.02978515625,0.037109375,1.001953125,0.06103515625,-0.79345703125,-0.244140625,0.0,0.0,0.0,0.0025546522811055183,0.023564394563436508,0.7105103731155396,0.7032874226570129
3.602813482284546,-2.1159802251520796,1.6976679574772933,-90.61313492589187,-0.02978515625,0.03759765625,1.001953125,-0.48828125,-0.8544921875,-0.244140625,0.0,0.0,0.0,0.002455334411934018,0.023541893810033798,0.7104885578155518,0.7033107280731201
3.623333692550659,-2.1122270362031577,1.645028116430828,-90.60969251055019,-0.029296875,0.03662109375,1.00146484375,-0.1220703125,-0.42724609375,-0.1220703125,0.0,0.0,0.0,0.0027595479041337967,0.023195641115307808,0.7104789018630981,0.7033306956291199
3.6432125568389893,-2.1027311522661356,1.7529666631015974,-90.60703556696305,-0.0302734375,0.03662109375,1.00244140625,0.244140625,-0.30517578125,0.0,0.0,0.0,0.0,0.0020322338677942753,0.023798851296305656,0.7104424238204956,0.7033498883247375
3.6647613048553467,-2.136383280863377,1.7408415832209438,-90.60580613291245,-0.02978515625,0.037109375,1.0,-0.1220703125,-0.91552734375,0.0,0.0,0.0,0.0,0.0023142602294683456,0.023933080956339836,0.710430383682251,0.7033566236495972
3.6830203533172607,-2.0275111327104316,1.6621712509173254,-90.59732986815246,-0.029296875,0.03564453125,1.00244140625,-0.1220703125,-0.91552734375,-0.30517578125,0.0,0.0,0.0,0.002135699614882469,0.022775322198867798,0.7104165554046631,0.7034096717834473
3.698117733001709,-2.1139196424568514,1.6398448566244346,-90.59632583034447,-0.02880859375,0.037109375,1.001953125,-0.30517578125,-0.42724609375,-0.244140625,0.0,0.0,0.0,0.0028047922533005476,0.023174012079834938,0.7103975415229797,0.7034133672714233
3.7227888107299805,-2.107297133726289,1.7271880350700883,-90.59258971686847,-0.02978515625,0.037109375,1.0029296875,-0.06103515625,-0.48828125,-0.1220703125,0.0,0.0,0.0,0.002223154529929161,0.023668743669986725,0.7103581428527832,0.7034388184547424
3.7379884719848633,-2.0560959012737583,1.7220312422467288,-90.5872758296942,-0.0302734375,0.0361328125,1.00390625,-0.1220703125,-0.79345703125,0.0,0.0,0.0,0.0,0.001941914320923388,0.023319613188505173,0.7103370428085327,0.7034726142883301
3.76369047164917,-2.0399798564837015,1.672109069437988,-90.5812174519004,-0.02978515625,0.03515625,1.00439453125,0.244140625,-0.79345703125,-0.1220703125,0.0,0.0,0.0,0.0021538157016038895,0.022913292050361633,0.7103132009506226,0.7035094499588013
3.778463125228882,-1.9301937436424437,1.7467620765708756,-90.57422333819031,-0.03076171875,0.03369140625,1.00439453125,0.244140625,-0.6103515625,-0.06103515625,0.0,0.0,0.0,0.0010182042606174946,0.022690778598189354,0.710277259349823,0.7035554647445679
3.802753210067749,-2.0251824650902805,1.6848179170492663,-90.5734720173816,-0.02880859375,0.0361328125,1.0009765625,-0.244140625,-0.9765625,-0.18310546875,0.0,0.0,0.0,0.001985702430829406,0.022899413481354713,0.7102660536766052,0.703558087348938
3.822983503341675,-2.111237085660329,1.7503120673919896,-90.5722220927635,-0.03076171875,0.037109375,1.0029296875,-0.42724609375,-0.79345703125,-0.30517578125,0.0,0.0,0.0,0.002108154119923711,0.02383466251194477,0.7102274894714355,0.7035655379295349
3.843006134033203,-2.107598088936593,1.7287612197350126,-90.57034379074175,-0.0302734375,0.037109375,1.0048828125,0.18310546875,-0.3662109375,-0.06103515625,0.0,0.0,0.0,0.0022198432125151157,0.0236798282712698,0.7102211713790894,0.7035768032073975
3.8638768196105957,-2.036113755970063,1.7088447082803728,-90.56533726208012,-0.02978515625,0.03564453125,1.005859375,0.06103515625,-0.6103515625,0.06103515625,0.0,0.0,0.0,0.0019054563017562032,0.02311447449028492,0.7102090716362,0.7036086916923523
3.882798671722412,-2.1311150705791815,1.6626299408087741,-90.56500941299996,-0.029296875,0.03662109375,1.00439453125,-0.06103515625,-0.9765625,-0.06103515625,0.0,0.0,0.0,0.0027754222974181175,0.023419642820954323,0.7101971507072449,0.7036077976226807
3.9028217792510986,-2.1892547080113878,1.6932891658890803,-90.56268714868216,-0.02978515625,0.0380859375,1.00341796875,-0.1220703125,-0.6103515625,-0.1220703125,0.0,0.0,0.0,0.002942775608971715,0.023968055844306946,0.7101645469665527,0.703621506690979
3.917889356613159,-2.145843092863845,1.661149390584468,-90.55878711066607,-0.029296875,0.03759765625,1.0029296875,-0.06103515625,-0.30517578125,-0.18310546875,0.0,0.0,0.0,0.002876309910789132,0.023501679301261902,0.710156261920929,0.7036459445953369
3.948800802230835,-2.1100383874609916,1.6227249874697978,-90.55544031797277,-0.029296875,0.037109375,1.0029296875,-0.18310546875,-0.67138671875,-0.06103515625,0.0,0.0,0.0,0.002895378740504384,0.023043885827064514,0.7101507782936096,0.7036664485931396
3.9626476764678955,-2.118843141631373,1.6067919704051563,-90.55157443090255,-0.02880859375,0.037109375,1.0048828125,0.0,-0.79345703125,-0.06103515625,0.0,0.0,0.0,0.003049011342227459,0.023000560700893402,0.7101284861564636,0.703689694404602
3.983109474182129,-2.167330654549293,1.7274057473498825,-90.54940243074648,-0.03076171875,0.03759765625,1.00390625,0.30517578125,-0.79345703125,-0.06103515625,0.0,0.0,0.0,0.0025993897579610348,0.024041248485445976,0.7100804448127747,0.7037051916122437
4.003314018249512,-2.044012229414948,1.8748604601854664,-90.5412198641208,-0.03271484375,0.0361328125,1.00244140625,-0.18310546875,-0.42724609375,-0.3662109375,0.0,0.0,0.0,0.0009295781492255628,0.024182019755244255,0.7100251317024231,0.7037605047225952
4.023581266403198,-2.0471957378984085,1.7250338574388897,-90.53989480742183,-0.02978515625,0.0361328125,1.00244140625,-0.48828125,-0.54931640625,-0.244140625,0.0,0.0,0.0,0.001878281938843429,0.023282088339328766,0.7100473642349243,0.7037665247917175
4.042889356613159,-2.09068227168341,1.7290576926336736,-90.535482505218,-0.0302734375,0.03662109375,1.00341796875,0.06103515625,-0.54931640625,-0.244140625,0.0,0.0,0.0,0.0021213151048868895,0.0235761646181345,0.7100105285644531,0.7037930488586426
4.06278920173645,-2.091697621992215,1.7292327162311552,-90.531746391742,-0.0302734375,0.037109375,1.00244140625,0.30517578125,-0.6103515625,-0.1220703125,0.0,0.0,0.0,0.002127234358340502,0.023583458736538887,0.7099873423576355,0.7038162350654602
4.082765579223633,-2.09970943388864,1.706686261780943,-90.52740922161904,-0.0302734375,0.037109375,1.0029296875,-0.06103515625,-0.8544921875,-0.244140625,0.0,0.0,0.0,0.0023171028587967157,0.023494606837630272,0.7099636793136597,0.7038425207138062
4.098130941390991,-2.106829052324732,1.6663384133629737,-90.5252099007063,-0.029296875,0.037109375,1.00244140625,-0.6103515625,-0.67138671875,-0.18310546875,0.0,0.0,0.0,0.0026113935746252537,0.023290980607271194,0.7099569439888,0.7038549780845642
4.118342161178589,-2.0931159534620503,1.6860415881277564,-90.52314035338779,-0.029296875,0.0361328125,1.0009765625,-0.06103515625,-0.3662109375,-0.1220703125,0.0,0.0,0.0,0.002405450213700533,0.02332693338394165,0.7099429965019226,0.7038686871528625
4.140415906906128,-2.111304320334971,1.7313030106016094,-90.51889880591321,-0.0302734375,0.037109375,1.00244140625,-0.06103515625,-0.30517578125,-0.06103515625,0.0,0.0,0.0,0.002237483160570264,0.023717395961284637,0.7099039554595947,0.7038955092430115
4.163474082946777,-2.061046080874725,1.6580812482649572,-90.51366688100897,-0.029296875,0.0361328125,1.00390625,0.0,-0.67138671875,-0.1220703125,0.0,0.0,0.0,0.0023836777545511723,0.022956395521759987,0.7098969221115112,0.7039273381233215
4.178435564041138,-2.1016028903926145,1.66766261628831,-90.51060012607164,-0.02978515625,0.03662109375,1.00341796875,0.0,-0.91552734375,-0.244140625,0.0,0.0,0.0,0.0025740505661815405,0.023266403004527092,0.7098680138587952,0.7039456963539124
4.203627347946167,-2.147307101223755,1.701702464842655,-90.50818223910545,-0.029296875,0.03759765625,1.0009765625,-0.18310546875,-0.3662109375,-0.30517578125,0.0,0.0,0.0,0.0026443377137184143,0.02375846356153488,0.7098367810249329,0.7039605379104614
4.218279600143433,-2.1564900771194253,1.645438354667852,-90.50594193705768,-0.02880859375,0.0380859375,1.00341796875,-0.18310546875,-0.244140625,-0.1220703125,0.0,0.0,0.0,0.003049928694963455,0.023469839245080948,0.7098327279090881,0.7039726376533508
4.242867469787598,-2.183042224074438,1.7436483640829958,-90.50415242749514,-0.03076171875,0.0380859375,1.00341796875,-0.42724609375,-0.79345703125,-0.18310546875,0.0,0.0,0.0,0.002604741370305419,0.024237265810370445,0.7097957730293274,0.7039856910705566
4.262758016586304,-2.1058412362160186,1.6639230877177278,-90.49892050259092,-0.029296875,0.037109375,1.0029296875,0.3662109375,-0.54931640625,0.06103515625,0.0,0.0,0.0,0.002625636290758848,0.02326943166553974,0.709796130657196,0.7040178179740906
4.2832746505737305,-2.0847199434248123,1.6292192167100104,-90.49464480417049,-0.02880859375,0.0361328125,1.00439453125,0.244140625,-0.6103515625,-0.1220703125,0.0,0.0,0.0,0.002711805747821927,0.022925401106476784,0.7097811102867126,0.7040440440177917
4.30298924446106,-1.9403865203182185,1.5481772079388108,-90.4872408791102,-0.02783203125,0.03466796875,1.00341796875,-0.48828125,-0.91552734375,-0.30517578125,0.0,0.0,0.0,0.0023286512587219477,0.021533546969294548,0.7097793221473694,0.7040911316871643
4.323779821395874,-2.0482939042508996,1.6886002410238665,-90.48659201113905,-0.02978515625,0.03662109375,1.00244140625,-0.42724609375,-0.54931640625,-0.244140625,0.0,0.0,0.0,0.002121626865118742,0.023064274340867996,0.7097270488739014,0.7040959000587463
4.342678070068359,-2.0638588381523006,1.6719276425381597,-90.48506887895414,-0.029296875,0.0361328125,1.00244140625,0.1220703125,-0.244140625,-0.1220703125,0.0,0.0,0.0,0.0023208900820463896,0.023058254271745682,0.7097179293632507,0.7041047811508179
4.362992525100708,-2.0662741637975466,1.6976427711547288,-90.48263733160961,-0.02978515625,0.0361328125,1.00439453125,0.06103515625,-0.732421875,0.0,0.0,0.0,0.0,0.0021768733859062195,0.02323109097778797,0.7096973061561584,0.7041202783584595
4.382911205291748,-2.1285535361970154,1.747095368458031,-90.48043801069686,-0.03076171875,0.037109375,1.00390625,-0.244140625,-0.9765625,-0.1220703125,0.0,0.0,0.0,0.002253580139949918,0.02392045222222805,0.7096607685089111,0.7041337490081787
4.402972459793091,-2.1944266553169687,1.6616927107886013,-90.47781521805558,-0.02880859375,0.03857421875,1.0009765625,-0.244140625,-0.6103515625,-0.30517578125,0.0,0.0,0.0,0.0031880850438028574,0.02380385249853134,0.7096487283706665,0.7041462063789368
4.422989130020142,-2.117708689898916,1.704173392496613,-90.47176367045095,-0.0302734375,0.037109375,1.0029296875,-0.06103515625,-0.18310546875,-0.1220703125,0.0,0.0,0.0,0.0024546904023736715,0.02358950860798359,0.7096186280250549,0.704186737537384
4.442864656448364,-1.9895948316369867,1.7581255903590727,-90.4643938963365,-0.03076171875,0.03515625,1.0029296875,-0.06103515625,-0.6103515625,0.0,0.0,0.0,0.0,0.0013346032937988639,0.023127421736717224,0.7095884680747986,0.7042355537414551
4.462855100631714,-1.987077906927837,1.7175799866202903,-90.46060997153631,-0.0302734375,0.03515625,1.00341796875,0.0,-0.9765625,-0.06103515625,0.0,0.0,0.0,0.0015710953157395124,0.022862739861011505,0.7095738649368286,0.704258382320404
4.482742547988892,-2.195935273349895,1.662804750962844,-90.46303468869168,-0.029296875,0.0380859375,1.00341796875,0.18310546875,-0.732421875,-0.244140625,0.0,0.0,0.0,0.003193538635969162,0.023819612339138985,0.7095573544502258,0.7042377591133118
4.50292444229126,-2.0819554243582497,1.6784624260265695,-90.45660065049351,-0.029296875,0.03662109375,1.00146484375,-0.244140625,-0.42724609375,-0.18310546875,0.0,0.0,0.0,0.002397355390712619,0.023209871724247932,0.7095379829406738,0.7042808532714844
4.523212909698486,-2.1302749573112703,1.7309289510228454,-90.45487261263351,-0.0302734375,0.03759765625,1.001953125,-0.48828125,-0.42724609375,-0.1220703125,0.0,0.0,0.0,0.0023696464486420155,0.023831302300095558,0.7095066905021667,0.7042916417121887
4.542750597000122,-2.0330521236746044,1.7535820204571333,-90.44865714048879,-0.03076171875,0.03564453125,1.00341796875,0.18310546875,-0.67138671875,-0.1220703125,0.0,0.0,0.0,0.0016330353682860732,0.023368394002318382,0.7094838619232178,0.7043322324752808
4.562745809555054,-1.9479735798256332,1.766165043177295,-90.44251680042495,-0.03125,0.03466796875,1.00634765625,0.42724609375,-0.67138671875,0.0,0.0,0.0,0.0,0.001033384003676474,0.02291887439787388,0.7094607353210449,0.7043715119361877
4.583597660064697,-2.0363540932514823,1.686958861188948,-90.44189525321048,-0.02978515625,0.0361328125,1.001953125,-0.18310546875,-0.732421875,-0.244140625,0.0,0.0,0.0,0.002067400375381112,0.022979436442255974,0.7094550728797913,0.7043729424476624
4.603416681289673,-2.1015960602034442,1.6816983348675687,-90.44195672491301,-0.02978515625,0.0361328125,1.00048828125,-0.67138671875,-0.67138671875,-0.30517578125,0.0,0.0,0.0,0.002501002512872219,0.023351041600108147,0.7094433307647705,0.7043711543083191
4.6227967739105225,-2.1076172988436337,1.6699632160998406,-90.43885581902983,-0.029296875,0.03759765625,1.00341796875,-0.06103515625,-0.30517578125,-0.06103515625,0.0,0.0,0.0,0.0026113376952707767,0.02331615425646305,0.7094254493713379,0.7043899297714233
4.641671895980835,-2.125520718762118,1.8046010789578955,-90.43450498852853,-0.03173828125,0.037109375,1.00390625,0.30517578125,-0.3662109375,0.06103515625,0.0,0.0,0.0,0.0018883373122662306,0.02425406686961651,0.709367036819458,0.7044194340705872
4.663382530212402,-1.9667098559360359,1.664135997520762,-90.42755868614263,-0.029296875,0.03466796875,1.00146484375,-0.1220703125,-1.0986328125,0.0,0.0,0.0,0.0,0.0017834882019087672,0.022407814860343933,0.7093852758407593,0.7044625282287598
4.679162263870239,-2.0845760825654187,1.7091625255201899,-90.42798898806033,-0.02978515625,0.03662109375,1.00341796875,-0.30517578125,-0.732421875,-0.30517578125,0.0,0.0,0.0,0.0022291147615760565,0.0234141256660223,0.709355354309082,0.7044585347175598
4.702923059463501,-2.1152728736861603,1.6998655708427448,-90.42480611990712,-0.0302734375,0.037109375,1.001953125,0.0,-0.48828125,-0.18310546875,0.0,0.0,0.0,0.002476062858477235,0.02354695461690426,0.7093313932418823,0.7044774293899536
4.722940444946289,-2.044877529005424,1.683584641017256,-90.42078313848597,-0.029296875,0.03564453125,0.99951171875,-0.3662109375,-0.48828125,-0.1220703125,0.0,0.0,0.0,0.0021449339110404253,0.023011084645986557,0.7093242406845093,0.7045033574104309
4.7428882122039795,-2.023294344671595,1.681399407369675,-90.4170401948208,-0.029296875,0.03564453125,1.0009765625,-0.3662109375,-0.6103515625,-0.1220703125,0.0,0.0,0.0,0.0020265199709683657,0.02286398969590664,0.709306001663208,0.7045269012451172
4.764489650726318,-2.0377858716562463,1.6917596304018205,-90.4130103832105,-0.02978515625,0.03564453125,1.00439453125,0.3662109375,-0.6103515625,0.06103515625,0.0,0.0,0.0,0.0020522666163742542,0.0230172798037529,0.7092762589454651,0.7045518159866333
4.782888174057007,-2.130843357116262,1.7544769886818166,-90.41257325110362,-0.03125,0.03662109375,1.00390625,0.30517578125,-0.732421875,-0.06103515625,0.0,0.0,0.0,0.0022361117880791426,0.023978646844625473,0.7092416286468506,0.7045539617538452
4.803408861160278,-2.087994805688422,1.7221784114790013,-90.40721838279433,-0.0302734375,0.03662109375,1.00341796875,-0.42724609375,-0.8544921875,-0.30517578125,0.0,0.0,0.0,0.0021737816277891397,0.02351486310362816,0.709224283695221,0.7045873999595642
4.822831630706787,-2.113465861763869,1.660312372246024,-90.40452045807217,-0.029296875,0.03662109375,1.0009765625,-0.48828125,-0.6103515625,-0.244140625,0.0,0.0,0.0,0.002714046509936452,0.023292260244488716,0.7092151045799255,0.704602062702179
4.841609954833984,-2.100719874998979,1.695474079371544,-90.40002619359831,-0.02978515625,0.03662109375,1.00146484375,-0.3662109375,-0.3662109375,-0.244140625,0.0,0.0,0.0,0.0024188575334846973,0.02342936396598816,0.7091829180717468,0.7046310305595398
4.8594276905059814,-2.047473427776852,1.7224220571333004,-90.3959485706638,-0.0302734375,0.0361328125,1.0048828125,0.244140625,-0.6103515625,-0.1220703125,0.0,0.0,0.0,0.001925405696965754,0.023265376687049866,0.7091631889343262,0.7046578526496887
4.883550643920898,-2.026683612603802,1.571199747918514,-90.39069615519206,-0.02294921875,0.02783203125,1.00830078125,-0.54931640625,-0.30517578125,-0.30517578125,0.0,0.0,0.0,0.002734934678301215,0.02220715954899788,0.7091650366783142,0.7046874761581421
4.907036542892456,-1.527555586174073,1.6207721936974087,-90.40696566579504,-0.0439453125,-0.22802734375,0.7998046875,-25.81787109375,8.30078125,2.38037109375,0.0,0.0,0.0,-0.0006441912264563143,0.019422683864831924,0.7093467116355896,0.7045918107032776
4.9187397956848145,-1.2015189607427472,1.6396114562538906,-90.41459498709794,-0.01123046875,-0.33642578125,1.22802734375,4.57763671875,0.0,0.91552734375,0.0,0.0,0.0,-0.002766722347587347,0.017519988119602203,0.7094431519508362,0.7045395374298096
4.9429051876068115,-1.0013502352751802,1.6678166157097525,-90.42383623304497,-0.01611328125,-0.2841796875,1.07080078125,5.55419921875,-4.69970703125,-0.30517578125,0.0,0.0,0.0,-0.00417340686544776,0.016453737393021584,0.709525465965271,0.7044753432273865
4.958343029022217,-0.7265189510820582,1.7181609795865644,-90.43921098886666,-0.03955078125,-0.2509765625,0.90869140625,-6.77490234375,1.953125,-0.244140625,0.0,0.0,0.0,-0.006176788825541735,0.01506060641258955,0.7096508145332336,0.704365611076355
4.982763767242432,-0.4790484442086554,1.6997840354595277,-90.43945687567678,-0.04150390625,-0.27880859375,0.9755859375,-4.21142578125,1.3427734375,1.0986328125,0.0,0.0,0.0,-0.0075841182842850685,0.013415061868727207,0.7096853852272034,0.7043501734733582
5.002607107162476,-0.2623305972689705,1.6560312310186012,-90.42792751635781,-0.0263671875,-0.2724609375,0.9736328125,-2.9296875,-0.3662109375,0.54931640625,0.0,0.0,0.0,-0.008643998764455318,0.01180482842028141,0.7096431851387024,0.7044093608856201
5.022659063339233,0.0114219314156626,1.6471076955896853,-90.42195793102321,-0.017578125,-0.283203125,0.99951171875,0.54931640625,-3.41796875,0.06103515625,0.0,0.0,0.0,-0.010270977392792702,0.010055182501673698,0.709633469581604,0.7044245004653931
5.044205904006958,0.24010999086693563,1.650570494777176,-90.42195110083405,-0.0224609375,-0.29443359375,0.99658203125,-3.0517578125,1.52587890625,0.732421875,0.0,0.0,0.0,-0.011698205024003983,0.008660251274704933,0.70965176820755,0.7044022679328918
5.062733173370361,0.46538369027869286,1.6545953971890177,-90.42903400700335,-0.0283203125,-0.29345703125,0.97607421875,-2.74658203125,1.89208984375,1.3427734375,0.0,0.0,0.0,-0.013108327053487301,0.007289075758308172,0.7097107172012329,0.7043336629867554
5.084550857543945,0.6631063008888963,1.6967458819393415,-90.42671857287472,-0.0107421875,-0.30419921875,0.99609375,1.52587890625,0.42724609375,0.0,0.0,0.0,0.0,-0.014584491960704327,0.00632389634847641,0.7097057104110718,0.7043188810348511
5.102761745452881,0.9051719936947035,1.7832234406294019,-90.43277695066851,-0.01708984375,-0.3046875,0.95849609375,-0.244140625,-2.685546875,-0.9765625,0.0,0.0,0.0,-0.016608024016022682,0.005355428904294968,0.709750771522522,0.7042368054389954
5.12278151512146,1.2134599456809279,1.7432941547415073,-90.4309806109168,-0.05126953125,-0.2880859375,0.92529296875,-7.32421875,-3.173828125,-0.79345703125,0.0,0.0,0.0,-0.01825529895722866,0.0032007850240916014,0.7097527980804443,0.7042069435119629
5.1427459716796875,1.466069369491972,1.8005571800824247,-90.42153445929468,-0.00439453125,-0.36279296875,1.154296875,-2.01416015625,6.40869140625,0.3662109375,0.0,0.0,0.0,-0.020162003114819527,0.001989856595173478,0.7096990942955017,0.704213559627533
5.162977695465088,1.6502578001792365,1.7126708948760494,-90.4135567983441,-0.05126953125,-0.294921875,0.951171875,-2.86865234375,-2.197265625,-0.18310546875,0.0,0.0,0.0,-0.02074979990720749,0.00031024948111735284,0.7096529006958008,0.704245924949646
5.183913230895996,1.9579857833752257,1.7314792081378547,-90.40330468439991,-0.009765625,-0.22216796875,0.76220703125,-9.58251953125,2.74658203125,0.6103515625,0.0,0.0,0.0,-0.022757481783628464,-0.0014778014738112688,0.7095884084701538,0.7042472958564758
5.2028913497924805,2.383287789170168,1.8203768949499208,-90.40150151445903,-0.02490234375,-0.25537109375,0.818359375,-14.6484375,1.52587890625,-0.79345703125,0.0,0.0,0.0,-0.025921281427145004,-0.0035643635783344507,0.7095697522163391,0.7041493058204651
5.223501443862915,2.7042522520908188,1.725599162314414,-90.39868747652098,-0.0654296875,-0.3701171875,1.1171875,-5.0048828125,-7.01904296875,-1.46484375,0.0,0.0,0.0,-0.027307169511914253,-0.006133916322141886,0.7095350623130798,0.7041141390800476
5.250663757324219,2.8428231299720377,1.7786893689592769,-90.35171626559881,-0.03515625,-0.3427734375,1.2412109375,8.544921875,1.3427734375,-5.06591796875,0.0,0.0,0.0,-0.028489813208580017,-0.006653801072388887,0.7092415690422058,0.7043582201004028
5.263479232788086,2.8726509929643065,1.8651746116121535,-90.24998059791146,0.00341796875,-0.2607421875,1.09765625,2.5634765625,14.6484375,-10.7421875,0.0,0.0,0.0,-0.02921360172331333,-0.0062804678454995155,0.7086189985275269,0.7049583792686462
5.283946752548218,3.0434806408520836,2.0719092833062187,-89.84415807818598,-0.07958984375,-0.21533203125,0.9267578125,-0.6103515625,5.67626953125,-24.5361328125,0.0,0.0,0.0,-0.03156302496790886,-0.005952251143753529,0.7061200141906738,0.7073634266853333
5.29844069480896,3.2812043076973194,2.273442125617084,-89.15993021770161,-0.10107421875,-0.20263671875,0.84716796875,-3.47900390625,9.1552734375,-39.0625,0.0,0.0,0.0,-0.03430713713169098,-0.005967144854366779,0.7018827795982361,0.7114408016204834
5.317941188812256,3.5165973859317003,2.475811879544688,-88.21291765909018,-0.166015625,-0.234375,0.95166015625,-0.3662109375,14.7705078125,-48.7060546875,0.0,0.0,0.0,-0.03705599159002304,-0.005845092702656984,0.695979654788971,0.7170808911323547
5.344177484512329,3.483181539191059,2.76921418128681,-87.10163222075077,-0.240234375,-0.26220703125,1.123046875,16.845703125,10.8642578125,-56.640625,0.0,0.0,0.0,-0.0386614166200161,-0.0034289644099771976,0.6890105605125427,0.723711371421814
5.363098621368408,3.3597719737199765,2.813364310638361,-85.79740759873683,-0.287109375,-0.0791015625,0.853515625,5.615234375,-10.498046875,-72.08251953125,0.0,0.0,0.0,-0.03817199543118477,-0.0019733887165784836,0.680733859539032,0.7315329313278198
5.383473634719849,3.5943409469423124,3.039664699540162,-84.20310484267246,-0.1298828125,-0.0498046875,0.822265625,-14.70947265625,14.5263671875,-83.43505859375,0.0,0.0,0.0,-0.04103413224220276,-0.0013495085295289755,0.6704983711242676,0.7407742142677307
5.398483753204346,3.9702130871572843,3.3901456115156114,-82.40976354400473,-0.30029296875,-0.20947265625,1.064453125,-1.5869140625,6.65283203125,-89.599609375,0.0,0.0,0.0,-0.045524511486291885,-0.0005674140411429107,0.6588410139083862,0.750903308391571
5.419064998626709,4.072314596852043,3.37112545566783,-80.6021471499717,-0.40380859375,-0.19580078125,1.1396484375,4.57763671875,7.87353515625,-88.56201171875,0.0,0.0,0.0,-0.04609890282154083,-0.0005522196879610419,0.6469130516052246,0.7611690163612366
5.44426155090332,4.119170121445154,3.7322130110940743,-78.77582969799116,-0.30029296875,-0.17138671875,1.17578125,9.21630859375,16.11328125,-87.82958984375,0.0,0.0,0.0,-0.04841186851263046,0.0023578510154038668,0.6347257494926453,0.7712158560752869
5.458501577377319,4.056938133483052,3.7633723340876726,-76.93617288656158,-0.392578125,-0.1181640625,0.95166015625,6.9580078125,-5.37109375,-93.26171875,0.0,0.0,0.0,-0.0481121689081192,0.0036855083890259266,0.6222635507583618,0.781319260597229
5.483084678649902,4.1007563583296225,3.8909457536315246,-75.02826882494524,-0.21484375,-0.10302734375,0.89501953125,3.11279296875,13.427734375,-96.49658203125,0.0,0.0,0.0,-0.04902290552854538,0.0051358845084905624,0.6091799139976501,0.7914987206459045
5.503006935119629,4.304378811639689,4.045696922769681,-73.04685143729205,-0.373046875,-0.1142578125,0.865234375,1.40380859375,-1.03759765625,-98.14453125,0.0,0.0,0.0,-0.051152922213077545,0.0060096061788499355,0.5954262614250183,0.801757276058197
5.523437738418579,4.3564841903836005,4.147873564545309,-71.09260454215718,-0.34912109375,-0.18212890625,1.13623046875,10.80322265625,6.04248046875,-95.0927734375,0.0,0.0,0.0,-0.0519288033246994,0.007341776974499226,0.5816792249679565,0.8117257952690125
5.543022155761719,4.356434244625294,4.474853076247214,-69.15704504459144,-0.2763671875,-0.09521484375,0.982421875,10.7421875,19.6533203125,-96.74072265625,0.0,0.0,0.0,-0.053410787135362625,0.010566388256847858,0.5679144263267517,0.8212848901748657
5.559278249740601,4.550039371743891,4.612451505945352,-67.13118361600898,-0.38720703125,0.0107421875,0.72998046875,-11.04736328125,0.18310546875,-101.806640625,0.0,0.0,0.0,-0.05528116971254349,0.011574115604162216,0.5533390045166016,0.8310391306877136
5.583130598068237,4.842903796088875,4.678506265408545,-65.09741965855682,-0.384765625,-0.13134765625,0.97802734375,-1.40380859375,2.86865234375,-97.65625,0.0,0.0,0.0,-0.05752431973814964,0.011662655510008335,0.5385416746139526,0.840552031993866
5.6038758754730225,4.8551678276304555,4.433169285516272,-63.1982787296456,-0.3837890625,-0.17529296875,1.15283203125,10.986328125,-9.8876953125,-91.85791015625,0.0,0.0,0.0,-0.0562971867620945,0.010735881514847279,0.5245065093040466,0.8494753837585449
5.62298846244812,4.855328337075951,4.486666742190398,-61.43863758434273,-0.14990234375,-0.13623046875,1.16064453125,13.36669921875,2.8076171875,-84.41162109375,0.0,0.0,0.0,-0.056364331394433975,0.011999431066215038,0.5114085674285889,0.8574032783508301
5.642913818359375,4.920513528080437,4.487981980492448,-59.85323456476688,-0.23583984375,-0.1220703125,0.93896484375,2.44140625,-2.0751953125,-74.89013671875,0.0,0.0,0.0,-0.05669032782316208,0.012503869831562042,0.4995049834251404,0.8643637895584106
5.663423538208008,5.142136091174426,4.611156758210812,-58.49422499542027,-0.1884765625,-0.13134765625,0.8994140625,-3.35693359375,0.1220703125,-62.6220703125,0.0,0.0,0.0,-0.058743543922901154,0.013166241347789764,0.48926490545272827,0.8700550198554993
5.683426141738892,5.284008084858876,4.451538652402198,-57.49150541393821,-0.2998046875,-0.1513671875,0.94140625,0.54931640625,-11.77978515625,-42.724609375,0.0,0.0,0.0,-0.059042058885097504,0.011863215826451778,0.4816197454929352,0.874308705329895
5.703842401504517,5.345472530312998,4.434009398784184,-56.795792590364464,-0.0283203125,-0.1591796875,1.12060546875,14.34326171875,0.42724609375,-28.13720703125,0.0,0.0,0.0,-0.05936707556247711,0.011831524781882763,0.47630575299263,0.8771935701370239
5.723052740097046,5.236767508351306,4.435329332841289,-56.35430282279318,-0.1435546875,-0.02587890625,0.78857421875,-1.5869140625,-7.75146484375,-18.49365234375,0.0,0.0,0.0,-0.058492571115493774,0.012518932111561298,0.4729112386703491,0.8790773153305054
5.743258476257324,5.466920123944995,4.43907697226151,-56.08456157699645,-0.17236328125,-0.02294921875,0.8837890625,-15.13671875,-2.74658203125,-12.8173828125,0.0,0.0,0.0,-0.06024594232439995,0.011739731766283512,0.470865935087204,0.8800669312477112
5.758090972900391,5.487447403721822,4.5166632254778,-55.91289843258652,-0.16943359375,-0.10693359375,1.208984375,1.89208984375,-9.6435546875,-9.09423828125,0.0,0.0,0.0,-0.06070174276828766,0.012343366630375385,0.46956533193588257,0.8807221055030823
5.783034324645996,5.291222472169703,4.351821732501421,-55.80036082072681,-0.10546875,-0.07958984375,1.14013671875,14.5263671875,-5.92041015625,-7.87353515625,0.0,0.0,0.0,-0.05851094424724579,0.011935348622500896,0.4686456322669983,0.8813655972480774
5.8008482456207275,5.109042970872068,4.287327244376752,-55.61419035451977,0.015625,-0.04833984375,0.9404296875,1.8310546875,3.11279296875,-7.6904296875,0.0,0.0,0.0,-0.05682772025465965,0.012275737710297108,0.46718108654022217,0.8822481036186218
5.818046569824219,5.27865236277594,4.142368858961102,-55.40246815062771,-0.05126953125,-0.11181640625,0.978515625,-1.0986328125,0.48828125,-10.25390625,0.0,0.0,0.0,-0.0575268529355526,0.010572569444775581,0.4655381441116333,0.8830929398536682
5.844620704650879,5.1986763971237915,4.020998958730914,-55.19339947522821,-0.14208984375,-0.0830078125,1.04052734375,7.26318359375,-18.5546875,-7.568359375,0.0,0.0,0.0,-0.05640222132205963,0.010063402354717255,0.4638935327529907,0.8840363621711731
5.8595290184021,5.084316832302975,3.994074353022724,-55.045150219293085,0.01123046875,-0.06591796875,1.06005859375,3.90625,7.99560546875,-11.04736328125,0.0,0.0,0.0,-0.05539819970726967,0.010389965958893299,0.4627336263656616,0.8847037553787231
5.882882356643677,4.893830113427313,4.00135832288572,-54.78272069100285,-0.13720703125,-0.017578125,0.77880859375,5.06591796875,-11.23046875,-9.765625,0.0,0.0,0.0,-0.05393088608980179,0.011339029297232628,0.46068960428237915,0.8858488202095032
5.897919654846191,5.003796159064518,3.9073266816953307,-54.67217749438078,-0.2158203125,0.01220703125,0.7744140625,-13.48876953125,-12.3291015625,-7.9345703125,0.0,0.0,0.0,-0.05439528450369835,0.010221381671726704,0.4598267674446106,0.8862820863723755
5.917908668518066,5.053785886713018,3.8433085992652707,-54.55113971209899,-0.05859375,-0.099609375,1.13134765625,-2.86865234375,4.150390625,-5.67626953125,0.0,0.0,0.0,-0.05451640486717224,0.009582486003637314,0.45888152718544006,0.8867717385292053
5.943069934844971,5.0133793413568695,3.786426356970581,-54.462371158550916,-0.1484375,-0.10107421875,1.22021484375,13.48876953125,-8.1787109375,-5.43212890625,0.0,0.0,0.0,-0.05397000163793564,0.009345234371721745,0.4581793248653412,0.8871706128120422
5.968753337860107,4.606471675327006,3.6381660019780533,-54.31508495928876,0.00390625,-0.04296875,1.068359375,17.76123046875,-0.06103515625,-6.8359375,0.0,0.0,0.0,-0.050216976553201675,0.009887033142149448,0.4569752514362335,0.8880056738853455
5.982672214508057,4.325639482978646,3.5270330612098335,-54.15069938143947,-0.0654296875,0.01708984375,0.837890625,3.7841796875,-3.41796875,-8.1787109375,0.0,0.0,0.0,-0.04758485034108162,0.010212813504040241,0.4556562900543213,0.8888244032859802
6.0032007694244385,4.271310023886249,3.538764124552742,-54.05068492142298,-0.15478515625,-0.01513671875,0.927734375,-5.79833984375,-13.85498046875,-3.47900390625,0.0,0.0,0.0,-0.047200679779052734,0.010561144910752773,0.45487743616104126,0.8892396092414856
6.022852182388306,4.124425525124655,3.4628382476349993,-53.95599800895909,0.02294921875,-0.06884765625,1.171875,8.11767578125,4.39453125,-6.16455078125,0.0,0.0,0.0,-0.04575198516249657,0.010592110455036163,0.45411646366119385,0.8897038698196411
6.043374300003052,3.96187769504893,3.561621779497013,-53.841944095103635,-0.07275390625,-0.00146484375,0.81396484375,5.55419921875,3.90625,-3.23486328125,0.0,0.0,0.0,-0.04486776888370514,0.012048761360347271,0.45322975516319275,0.8901823163032532
6.059158086776733,3.9437358588397298,3.4043374639504287,-53.831473415106004,-0.2353515625,0.048828125,0.7646484375,-12.5732421875,-17.63916015625,0.06103515625,0.0,0.0,0.0,-0.04410633072257042,0.01090136170387268,0.4531233012676239,0.890289306640625
6.086855411529541,3.944055170183428,3.284635623981605,-53.84950169942025,-0.0341796875,-0.02099609375,1.20654296875,-2.9296875,-5.7373046875,1.3427734375,0.0,0.0,0.0,-0.043638925999403,0.00996227003633976,0.4532451331615448,0.8902613520622253
6.098714351654053,3.60254699234326,3.064274724893364,-53.856198699901455,-0.04296875,-0.0439453125,1.2216796875,11.53564453125,-9.8876953125,-1.40380859375,0.0,0.0,0.0,-0.04011760279536247,0.00959683395922184,0.4532357454299927,0.8904357552528381
6.124053478240967,3.2123227036913873,2.8855434019095285,-53.88473523025377,0.0361328125,0.0146484375,0.9921875,6.89697265625,-3.23486328125,2.01416015625,0.0,0.0,0.0,-0.036382727324962616,0.009741030633449554,0.4534015655517578,0.8905103206634521
6.1428587436676025,3.028396594956934,2.554411988965902,-54.166921080718254,-0.029296875,-0.0078125,0.81494140625,-5.2490234375,-17.333984375,20.01953125,0.0,0.0,0.0,-0.03366585075855255,0.007810648530721664,0.455540269613266,0.8895441293716431
6.164188623428345,3.232473682733629,2.126191784848072,-54.737829272682944,0.173828125,-0.14794921875,1.05126953125,-7.8125,-7.38525390625,29.60205078125,0.0,0.0,0.0,-0.033569447696208954,0.0035060483496636152,0.459920734167099,0.8873183727264404
6.18313455581665,3.3324142913297248,1.9014102592629523,-55.522546291331125,0.234375,-0.146484375,0.9677734375,-10.3759765625,5.37109375,42.29736328125,0.0,0.0,0.0,-0.033451493829488754,0.001134407939389348,0.4659545123577118,0.8841754198074341
6.204172372817993,3.536670671572133,1.6332071934116517,-56.52714417483494,0.0263671875,-0.16064453125,0.81884765625,-1.5869140625,-23.62060546875,57.12890625,0.0,0.0,0.0,-0.033922117203474045,-0.002064004074782133,0.4736420810222626,0.8800615072250366
6.2229530811309814,3.8362636860232255,1.1660580059542163,-57.85615555334685,0.16943359375,-0.166015625,0.9990234375,-11.1083984375,-17.63916015625,69.15283203125,0.0,0.0,0.0,-0.03421292454004288,-0.007288709282875061,0.4837133586406708,0.8745272159576416
6.243322849273682,3.897761855536374,1.056500597728448,-59.28972346767331,0.33935546875,-0.26025390625,1.2841796875,5.859375,-5.55419921875,75.01220703125,0.0,0.0,0.0,-0.03411278873682022,-0.008812149055302143,0.49458786845207214,0.8684132695198059
6.263592004776001,3.7574676355501966,0.8516504179150719,-60.8724080719595,0.240234375,-0.20166015625,1.0517578125,6.04248046875,3.0517578125,85.63232421875,0.0,0.0,0.0,-0.03202842175960541,-0.010202957317233086,0.5065024495124817,0.8615831136703491
6.283584833145142,3.72149174853127,0.7941442271675314,-62.63593559490011,0.18994140625,-0.18798828125,0.94873046875,9.21630859375,-5.0048828125,95.88623046875,0.0,0.0,0.0,-0.031338997185230255,-0.010960019193589687,0.5196927189826965,0.8537079095840454
6.302875995635986,3.8203852037502384,0.8419555513576207,-64.62117105829934,0.2216796875,-0.11669921875,0.82666015625,-12.0849609375,12.5732421875,106.01806640625,0.0,0.0,0.0,-0.03209609538316727,-0.011609991081058979,0.5344040393829346,0.8445397615432739
6.3234546184539795,4.106625198373956,0.580422912282778,-66.78983125185925,0.08837890625,-0.197265625,0.8046875,-12.02392578125,-21.78955078125,110.83984375,0.0,0.0,0.0,-0.032699547708034515,-0.015494344756007195,0.5501977205276489,0.8342500329017639
6.343246221542358,4.273543922631666,0.18483342999658112,-69.07933798240421,0.37548828125,-0.33154296875,1.21142578125,8.60595703125,-8.97216796875,113.95263671875,0.0,0.0,0.0,-0.031626809388399124,-0.019811993464827538,0.5666312575340271,0.8231258988380432
6.362920761108398,4.103615646270919,0.4273521564434305,-71.41481188606335,0.43212890625,-0.27734375,1.22509765625,16.05224609375,4.0283203125,121.27685546875,0.0,0.0,0.0,-0.031247464939951897,-0.01786991022527218,0.5833763480186462,0.8114039301872253
6.382780075073242,4.009459781015001,0.02896745592499224,-73.88035308208704,0.14013671875,-0.2509765625,0.97216796875,15.07568359375,-24.5361328125,126.77001953125,0.0,0.0,0.0,-0.028111658990383148,-0.02082158625125885,0.6006200313568115,0.798768937587738
6.402755260467529,3.8895050106034748,0.10454529668491508,-76.53295949909905,0.34814453125,-0.11328125,0.76513671875,-3.47900390625,14.6484375,137.75634765625,0.0,0.0,0.0,-0.027209017425775528,-0.020301224663853645,0.6189871430397034,0.7846670746803284
6.422796726226807,4.06572474496345,-0.16205566958930095,-79.34858204103175,0.16259765625,-0.1748046875,0.75439453125,-4.7607421875,-16.357421875,142.02880859375,0.0,0.0,0.0,-0.026400523260235786,-0.023734351620078087,0.6379814743995667,0.769232988357544
6.443211078643799,4.201006886759307,-0.24644560497193072,-82.2675521752959,0.3916015625,-0.34716796875,1.16162109375,8.97216796875,-8.9111328125,145.32470703125,0.0,0.0,0.0,-0.026191920042037964,-0.025729380548000336,0.6573164463043213,0.7527198791503906
6.4630091190338135,4.101082499862491,-0.39236750062780207,-85.21582382109942,0.37353515625,-0.3310546875,1.177734375,20.01953125,-34.7900390625,146.484375,0.0,0.0,0.0,-0.024018313735723495,-0.026741327717900276,0.6764499545097351,0.7356109619140625
6.482844114303589,3.9438771583781844,-0.4239302316692541,-88.31223543981133,0.427734375,-0.1298828125,0.86328125,-0.91552734375,-1.89208984375,157.958984375,0.0,0.0,0.0,-0.022111520171165466,-0.02662300318479538,0.6961072087287903,0.7171033024787903
6.503281116485596,4.135361938646315,-0.6341770346593073,-91.49317747969134,0.16748046875,-0.2080078125,0.73876953125,3.96728515625,-31.1279296875,161.0107421875,0.0,0.0,0.0,-0.021216081455349922,-0.029701722785830498,0.7156437635421753,0.6975111365318298
6.5228705406188965,4.283267123802003,-0.9640508923828579,-94.81428866171834,0.46435546875,-0.3232421875,1.076171875,-2.01416015625,0.732421875,165.83251953125,0.0,0.0,0.0,-0.019101383164525032,-0.03319971263408661,0.7354284524917603,0.676518976688385
6.54282283782959,4.207337618346263,-0.7748461146370421,-98.18444060198603,0.43896484375,-0.2607421875,1.10107421875,3.84521484375,10.80322265625,173.40087890625,0.0,0.0,0.0,-0.01893039420247078,-0.03216664865612984,0.7550753951072693,0.6545747518539429
6.563877582550049,4.341817212914644,-0.8354985146318727,-101.68779489144731,0.2900390625,-0.18603515625,0.732421875,-1.953125,-19.8974609375,176.69677734375,0.0,0.0,0.0,-0.018268795683979988,-0.03397329896688461,0.7746769785881042,0.631179690361023
6.583590507507324,4.564949674702029,-1.2041035470133625,-105.30177092470612,0.3525390625,-0.3076171875,0.93408203125,5.126953125,-17.333984375,182.9833984375,0.0,0.0,0.0,-0.015813589096069336,-0.038027793169021606,0.7940253019332886,0.606488049030304
6.602766275405884,4.611546505880326,-0.9902517114824384,-108.93690005382444,0.58740234375,-0.373046875,1.26171875,13.916015625,7.87353515625,188.65966796875,0.0,0.0,0.0,-0.016353579238057137,-0.03775772452354431,0.8129043579101562,0.5809418559074402
6.623504638671875,4.566355839897406,-0.820465108186116,-112.64485949006263,0.3818359375,-0.2900390625,0.9140625,8.7890625,-13.7939453125,185.6689453125,0.0,0.0,0.0,-0.016137095168232918,-0.03711865842342377,0.831331193447113,0.5543016791343689
6.643066644668579,4.467042754931304,-1.3816389465622114,-116.39843092957815,0.4033203125,-0.21337890625,0.83154296875,3.0517578125,-16.29638671875,186.09619140625,0.0,0.0,0.0,-0.010296608321368694,-0.03946840018033981,0.8489304780960083,0.5269281268119812
6.662806272506714,4.399495599134463,-1.508040988663406,-120.19355724000404,0.63623046875,-0.21630859375,1.0576171875,13.3056640625,-14.6484375,188.65966796875,0.0,0.0,0.0,-0.007734499406069517,-0.03982628509402275,0.8659030795097351,0.49856388568878174
6.682831048965454,4.440631267184512,-1.2499002855634154,-123.99115607890947,0.6162109375,-0.1611328125,0.970703125,0.732421875,2.86865234375,186.95068359375,0.0,0.0,0.0,-0.008567007258534431,-0.039321355521678925,0.8819975852966309,0.46953243017196655
6.703030109405518,4.430816285347203,-1.4239807833310014,-127.75088834905635,0.5009765625,-0.23046875,1.0068359375,6.77490234375,-25.08544921875,182.6171875,0.0,0.0,0.0,-0.005871647968888283,-0.04017214477062225,0.8968871235847473,0.44039225578308105
6.722833871841431,4.464826358545635,-1.7547568129943754,-131.45964008723826,0.63232421875,-0.1396484375,0.84521484375,-1.8310546875,-10.986328125,182.0068359375,0.0,0.0,0.0,-0.0020608201157301664,-0.04179544746875763,0.9105734825134277,0.4112236797809601
6.742709636688232,4.593652690915361,-1.7135790965922495,-135.08891574423788,0.681640625,-0.1708984375,1.0224609375,3.41796875,5.859375,179.99267578125,0.0,0.0,0.0,-0.0014978224644437432,-0.042740598320961,0.9231016039848328,0.3821708559989929
6.762882947921753,4.610860925642386,-1.3016922226574468,-138.60024769464974,0.64892578125,-0.20166015625,1.02685546875,5.43212890625,6.53076171875,173.03466796875,0.0,0.0,0.0,-0.0036007838789373636,-0.041639141738414764,0.9344658255577087,0.35359135270118713
6.783350706100464,4.403394356490071,-1.622229265146443,-141.98149186212953,0.5869140625,-0.23583984375,1.04736328125,15.625,-28.13720703125,165.34423828125,0.0,0.0,0.0,0.0008621728047728539,-0.040926262736320496,0.944496214389801,0.325962096452713
6.802891731262207,4.317169194634184,-1.5632439649176242,-145.2855548919882,0.7421875,-0.1376953125,0.96728515625,9.765625,-0.732421875,165.83251953125,0.0,0.0,0.0,0.0017753893043845892,-0.04001373425126076,0.953544020652771,0.29857930541038513
6.823147296905518,4.491969103420443,-1.6706528517626003,-148.56614939185866,0.48828125,-0.1240234375,0.74658203125,-3.72314453125,-14.0380859375,163.14697265625,0.0,0.0,0.0,0.0034080357290804386,-0.04166664555668831,0.9616153240203857,0.27119800448417664
6.843231678009033,4.641273196695513,-1.4651847532727496,-151.78408373628346,0.58544921875,-0.197265625,0.84326171875,1.0986328125,14.09912109375,162.17041015625,0.0,0.0,0.0,0.0025209581945091486,-0.04238114133477211,0.9688374400138855,0.24403205513954163
6.863221645355225,4.752562591484408,-1.4853871721771779,-154.84959557919024,0.630859375,-0.26708984375,1.08642578125,10.19287109375,-21.54541015625,150.2685546875,0.0,0.0,0.0,0.0036138701252639294,-0.043283700942993164,0.9749729037284851,0.2180398404598236
6.883202314376831,4.536183052352051,-1.7214372292323492,-157.73733125837992,0.7890625,-0.24560546875,1.173828125,16.66259765625,-10.31494140625,142.51708984375,0.0,0.0,0.0,0.007088163867592812,-0.04172423854470253,0.9801931977272034,0.19346892833709717
6.902958869934082,4.420786152551039,-1.6121905946138166,-160.5595654234292,0.73876953125,-0.15380859375,0.9931640625,3.7841796875,4.2724609375,140.380859375,0.0,0.0,0.0,0.007345020305365324,-0.040385130792856216,0.9847214818000793,0.1692296415567398
6.9227705001831055,4.445493934986737,-1.6988720984836254,-163.32815528273719,0.47998046875,-0.166015625,0.80517578125,4.82177734375,-19.47021484375,135.31494140625,0.0,0.0,0.0,0.009035022929310799,-0.04051819443702698,0.9884986877441406,0.14542047679424286
6.942891836166382,4.44872418757733,-1.7451694685554988,-166.06696551726392,0.52880859375,-0.1484375,0.7578125,2.25830078125,8.97216796875,137.87841796875,0.0,0.0,0.0,0.010398045182228088,-0.04036738723516464,0.9916825890541077,0.12177061289548874
6.962825059890747,4.580915668773757,-1.4115055495336788,-168.7053173294781,0.6494140625,-0.205078125,0.939453125,4.45556640625,-0.732421875,128.47900390625,0.0,0.0,0.0,0.008315316401422024,-0.04097951576113701,0.9942275285720825,0.09880904853343964
6.984170198440552,4.510792250999351,-1.6307515269616204,-171.18380173397898,0.73583984375,-0.25634765625,1.1904296875,5.43212890625,-12.02392578125,117.5537109375,0.0,0.0,0.0,0.01115298643708229,-0.040326446294784546,0.9961256980895996,0.07735107839107513
7.003951549530029,4.415811640401154,-1.6966649868863592,-173.46535812433004,0.7978515625,-0.1796875,1.0712890625,5.615234375,4.45556640625,109.68017578125,0.0,0.0,0.0,0.01257509645074606,-0.03930206224322319,0.9974915385246277,0.05751554295420647
7.018717288970947,4.243564941704011,-1.326305129496705,-175.4729283063152,0.6513671875,-0.1748046875,0.97119140625,15.5029296875,6.16455078125,95.0927734375,0.0,0.0,0.0,0.010094793513417244,-0.03744907304644585,0.9984508156776428,0.039894357323646545
7.039047002792358,4.138090599219735,-1.6735455435978064,-177.28649379511532,0.41796875,-0.0849609375,0.71044921875,1.77001953125,-21.484375,84.47265625,0.0,0.0,0.0,0.013735546730458736,-0.03643539547920227,0.9989488124847412,0.024186793714761734
7.060093402862549,4.126328159695327,-1.8151571363201502,-178.80861511203102,0.6337890625,-0.0693359375,0.853515625,2.3193359375,5.31005859375,70.86181640625,0.0,0.0,0.0,0.015454206615686417,-0.03615933284163475,0.9991664290428162,0.01095875259488821
7.078721046447754,4.095048027730784,-1.9616273414199001,179.9621111194411,0.52587890625,-0.07666015625,0.87353515625,1.52587890625,-13.18359375,56.57958984375,0.0,0.0,0.0,0.01711847260594368,-0.03571753576397896,0.999215304851532,0.000281231856206432
7.102967023849487,3.9843135858119525,-2.2403323567286244,179.1010974726693,0.78564453125,-0.099609375,1.2080078125,11.16943359375,-4.69970703125,36.80419921875,0.0,0.0,0.0,0.01980956643819809,-0.03460172191262245,0.9991791844367981,-0.007158567197620869
7.124631881713867,3.733749376770504,-2.3594948251964287,178.61115434312595,0.77783203125,-0.04248046875,1.17578125,11.65771484375,-4.2724609375,18.85986328125,0.0,0.0,0.0,0.020971324294805527,-0.03231864422559738,0.9991921186447144,-0.011439962312579155
7.143202304840088,3.632037614745259,-2.4339481560177987,178.44075478371246,0.65966796875,0.0244140625,0.9658203125,3.662109375,2.74658203125,2.62451171875,0.0,0.0,0.0,0.021657070145010948,-0.03139127790927887,0.9991889595985413,-0.01292361132800579
7.159527063369751,3.6031664051236154,-2.6357187742891455,178.59855947429645,0.513671875,0.04150390625,0.8046875,-1.77001953125,-6.77490234375,-14.70947265625,0.0,0.0,0.0,0.023370245471596718,-0.031146585941314697,0.9991754293441772,-0.011497282423079014
7.179415225982666,3.5583744514334947,-2.6873191459212995,179.11717573797551,0.63134765625,0.04736328125,0.935546875,-0.1220703125,7.32421875,-34.66796875,0.0,0.0,0.0,0.023676259443163872,-0.030857661738991737,0.9992190003395081,-0.006970146205276251
7.204535484313965,3.4047758767177787,-2.78476524136646,-179.95763051534558,0.564453125,0.07421875,0.919921875,3.173828125,5.06591796875,-52.55126953125,0.0,0.0,0.0,0.024277562275528908,-0.02970811165869236,0.9992631077766418,0.0010913670994341373
7.2231175899505615,3.449956083973532,-3.0480444878781214,-178.6629135166563,0.4794921875,0.1572265625,0.8525390625,-15.625,-5.7373046875,-74.52392578125,0.0,0.0,0.0,0.026231100782752037,-0.030399484559893608,0.9991158843040466,0.012459159828722477
7.243243932723999,3.509739662561596,-3.087793627526657,-176.88282961516757,0.5625,0.12060546875,1.05224609375,-7.568359375,20.93505859375,-97.2900390625,0.0,0.0,0.0,0.026087593287229538,-0.031333498656749725,0.9987760782241821,0.0280012097209692
7.262857675552368,3.3314836780553105,-2.9982240208549906,-174.76477429316827,0.2236328125,0.23388671875,0.9873046875,-0.6103515625,20.01953125,-108.2763671875,0.0,0.0,0.0,0.024796005338430405,-0.030222605913877487,0.9981579184532166,0.04639480635523796
7.2801220417022705,3.0040126061765764,-2.656224923168228,-172.52102983006242,-0.01953125,0.2822265625,1.0908203125,5.92041015625,23.3154296875,-107.84912109375,0.0,0.0,0.0,0.021411478519439697,-0.027660254389047623,0.9972205758094788,0.06578630208969116
7.3028504848480225,2.5854364157233927,-2.3241413391656196,-170.2951941229603,-0.1767578125,0.3369140625,1.17529296875,11.23046875,18.49365234375,-111.328125,0.0,0.0,0.0,0.018294772133231163,-0.024189872667193413,0.9959188103675842,0.0850062146782875
7.324813604354858,2.1943188663941293,-2.02184741178461,-168.0479526029994,-0.1904296875,0.36376953125,1.0546875,6.9580078125,12.20703125,-111.81640625,0.0,0.0,0.0,0.015550714917480946,-0.02087736874818802,0.9941933155059814,0.1044129878282547
7.34414529800415,1.966066324050174,-1.8064394670616868,-165.8056014984842,-0.20068359375,0.36279296875,0.962890625,-0.732421875,9.09423828125,-112.6708984375,0.0,0.0,0.0,0.01352097000926733,-0.018970096483826637,0.9920353293418884,0.12378779798746109
7.362878799438477,1.722908067781429,-1.730009223362421,-163.55978065787068,-0.22509765625,0.31103515625,1.0302734375,5.92041015625,2.01416015625,-111.4501953125,0.0,0.0,0.0,0.012790462002158165,-0.017036693170666695,0.9894691109657288,0.14316847920417786
7.3827173709869385,1.366025667728091,-1.483773753429174,-161.3519083482857,-0.1689453125,0.322265625,0.98193359375,4.39453125,10.009765625,-108.3984375,0.0,0.0,0.0,0.010844847187399864,-0.013859718106687069,0.9866099953651428,0.16214519739151
7.4028236865997314,1.1838596133653851,-1.4171555033594545,-159.18143815459572,-0.23095703125,0.34912109375,0.93017578125,0.3662109375,-2.62451171875,-109.2529296875,0.0,0.0,0.0,0.010296085849404335,-0.012394416145980358,0.9833914637565613,0.18078067898750305
7.42286491394043,0.9266244439389498,-1.2881898991636835,-156.9846034307095,-0.14111328125,0.3076171875,1.00634765625,6.28662109375,8.23974609375,-107.97119140625,0.0,0.0,0.0,0.009401907213032246,-0.010165752843022346,0.9797858595848083,0.19956952333450317
7.446045160293579,0.6955685358275273,-1.1506607318525977,-154.86612463698168,-0.20263671875,0.3447265625,0.9765625,-2.8076171875,3.662109375,-103.515625,0.0,0.0,0.0,0.008479863405227661,-0.008108957670629025,0.9759620428085327,0.21762463450431824
7.462776184082031,0.5670314192804689,-1.065913452178372,-152.87502887127457,-0.2314453125,0.32666015625,1.09912109375,0.732421875,-0.67138671875,-94.7265625,0.0,0.0,0.0,0.00788187887519598,-0.006991349160671234,0.9720500111579895,0.23453736305236816
7.486565351486206,0.30503883633413464,-0.9446738591509433,-150.68149995894663,-0.1787109375,0.27197265625,0.97412109375,2.01416015625,0.54931640625,-82.45849609375,0.0,0.0,0.0,0.0073017217218875885,-0.004661459010094404,0.967406153678894,0.253081738948822
7.503016233444214,0.16766913793191263,-0.903277043086848,-149.53240259336204,-0.17626953125,0.28173828125,0.92724609375,-0.244140625,-1.89208984375,-73.54736328125,0.0,0.0,0.0,0.007221058011054993,-0.003482920816168189,0.9648275971412659,0.26276105642318726
7.523494482040405,-0.023920247950676977,-0.8517785906837154,-148.22683925427077,-0.169921875,0.27587890625,0.984375,0.91552734375,-3.72314453125,-60.05859375,0.0,0.0,0.0,0.007206335663795471,-0.0018339272355660796,0.9617793560028076,0.2737249433994293
7.542819261550903,-0.2806412938971433,-0.8680261699761478,-147.26588627956335,-0.15625,0.28466796875,1.05712890625,4.8828125,-2.8076171875,-41.93115234375,0.0,0.0,0.0,0.007957998663187027,0.00021522288443520665,0.9594509601593018,0.28176310658454895
7.559091091156006,-0.5021003326574485,-0.7826873852476284,-146.59460162755616,-0.08544921875,0.33837890625,1.01806640625,0.67138671875,3.11279296875,-28.50341796875,0.0,0.0,0.0,0.007801224943250418,0.0022336593829095364,0.9577860832214355,0.2873675525188446
7.582778453826904,-0.6144367207409126,-0.7303463649773513,-146.17748197494348,-0.12841796875,0.33203125,0.99560546875,-3.23486328125,-3.11279296875,-16.05224609375,0.0,0.0,0.0,0.007657439447939396,0.003276030533015728,0.9567331671714783,0.2908473610877991
7.60292649269104,-0.7562480964964793,-0.6924963914440496,-145.9397777314487,-0.08203125,0.31201171875,1.00390625,0.1220703125,-0.9765625,-9.1552734375,0.0,0.0,0.0,0.007710800040513277,0.004540126770734787,0.9561243653297424,0.2928243577480316
7.623548269271851,-0.965310208511079,-0.637924033749294,-145.79690383439035,-0.06640625,0.3095703125,0.97216796875,1.708984375,0.42724609375,-6.40869140625,0.0,0.0,0.0,0.007797701749950647,0.006414255127310753,0.9557501673698425,0.29400643706321716
7.644630193710327,-1.153655342916825,-0.5881876634303189,-145.68778473221025,-0.052734375,0.3203125,0.98388671875,1.52587890625,1.15966796875,-5.55419921875,0.0,0.0,0.0,0.007873840630054474,0.008105291053652763,0.9554588794708252,0.2949080467224121
7.662776708602905,-1.3501705575086702,-0.5064761360378994,-145.58907483832522,-0.0498046875,0.33740234375,1.01611328125,0.1220703125,2.74658203125,-4.33349609375,0.0,0.0,0.0,0.007706870790570974,0.009947538375854492,0.9551899433135986,0.29572594165802
7.6827521324157715,-1.4981656023406253,-0.47401011247871316,-145.52457053180362,-0.06982421875,0.3447265625,1.0224609375,-2.62451171875,-3.23486328125,-1.77001953125,0.0,0.0,0.0,0.007824523374438286,0.011260567232966423,0.9550097584724426,0.29625725746154785
7.699687480926514,-1.5972036654709276,-0.48914559823604986,-145.48311128354163,-0.00439453125,0.3388671875,1.04248046875,-3.5400390625,-1.46484375,-1.15966796875,0.0,0.0,0.0,0.008211060427129269,0.01204383559525013,0.9548923969268799,0.2965940535068512
7.7227089405059814,-1.7887514115454692,-0.5324477169134614,-145.49884803938934,0.02490234375,0.3076171875,1.06201171875,3.662109375,-2.62451171875,2.62451171875,0.0,0.0,0.0,0.00906578078866005,0.013529111631214619,0.9549118280410767,0.2964426279067993
7.74377965927124,-2.029838306226702,-0.5996008561725573,-145.6053853300632,0.02099609375,0.3212890625,1.0078125,3.5400390625,-2.5634765625,7.62939453125,0.0,0.0,0.0,0.01023470051586628,0.015373815782368183,0.9551567435264587,0.2955241799354553
7.764033317565918,-2.229815146067274,-0.6520871780452558,-145.80010036292194,-0.0185546875,0.30908203125,0.9736328125,0.06103515625,-1.40380859375,11.77978515625,0.0,0.0,0.0,0.011159119196236134,0.016924206167459488,0.9556294083595276,0.29387325048446655
7.7831292152404785,-2.41060598452928,-0.6590685918723609,-146.04750347503813,-0.04443359375,0.2939453125,0.986328125,0.18310546875,-1.708984375,13.3056640625,0.0,0.0,0.0,0.011641181074082851,0.018439140170812607,0.95623379945755,0.2917901277542114
7.798554182052612,-2.5709280267092276,-0.6693372476809462,-146.31024719203018,-0.02978515625,0.27685546875,0.98486328125,-1.15966796875,-0.79345703125,12.939453125,0.0,0.0,0.0,0.012089766561985016,0.01977856270968914,0.9568736553192139,0.28957828879356384
7.823265790939331,-2.7275690238133614,-0.6702287474501916,-146.54133981240838,-0.0087890625,0.24609375,1.001953125,-1.03759765625,0.06103515625,11.16943359375,0.0,0.0,0.0,0.01245049200952053,0.02110944129526615,0.9574276804924011,0.28763100504875183
7.842946290969849,-2.864534807239627,-0.6443736533164901,-146.7279542409115,-0.0146484375,0.2216796875,0.9873046875,-2.3193359375,0.67138671875,8.11767578125,0.0,0.0,0.0,0.01254191529005766,0.02233920246362686,0.9578685164451599,0.2860623002052307
7.858347177505493,-3.007458863499671,-0.5902130813234922,-146.86403892993482,-0.02783203125,0.19189453125,1.00439453125,-1.3427734375,-0.06103515625,5.9814453125,0.0,0.0,0.0,0.01241790410131216,0.023683976382017136,0.9581778645515442,0.2849213778972626
7.883158922195435,-3.183887772402978,-0.5402589453638701,-146.96550822024452,-0.03759765625,0.189453125,1.01806640625,0.48828125,-1.40380859375,4.5166015625,0.0,0.0,0.0,0.012416517361998558,0.025294512510299683,0.9583907723426819,0.2840654253959656
7.90305233001709,-3.3547974615700915,-0.49240381191355753,-147.0302037720629,-0.03076171875,0.18505859375,1.01513671875,1.15966796875,-2.01416015625,2.38037109375,0.0,0.0,0.0,0.012424834072589874,0.026849638670682907,0.9585105180740356,0.28351789712905884
7.92325496673584,-3.5129682076048963,-0.42839472078720947,-147.0623603026753,-0.03271484375,0.14599609375,1.0009765625,-0.1220703125,-1.5869140625,0.9765625,0.0,0.0,0.0,0.01227286085486412,0.028334587812423706,0.9585493206977844,0.2832484543323517
7.942729711532593,-3.70900658961531,-0.3794414209844058,-147.07132151086637,-0.0234375,0.16650390625,1.02490234375,1.15966796875,-1.15966796875,-0.06103515625,0.0,0.0,0.0,0.01234561949968338,0.030096452683210373,0.9585191011428833,0.2831657826900482
7.95857310295105,-3.8391690777414196,-0.29767666614122784,-147.05369962280773,-0.029296875,0.115234375,0.96142578125,-5.43212890625,1.40380859375,-0.79345703125,0.0,0.0,0.0,0.011988213285803795,0.03138552978634834,0.9584360718727112,0.2833225727081299
7.982913017272949,-3.6215050361582763,-0.14817377700871284,-147.04389147115958,-0.033203125,-0.03759765625,0.943359375,-11.23046875,1.64794921875,0.6103515625,0.0,0.0,0.0,0.010202130302786827,0.029933925718069077,0.9584603905677795,0.28346696496009827
8.004539728164673,-3.1744913530957444,-0.1348594571398969,-147.08383441742583,-0.0078125,-0.220703125,1.03955078125,-8.85009765625,-2.3193359375,2.13623046875,0.0,0.0,0.0,0.00897575356066227,0.02623089589178562,0.9586678743362427,0.2831735908985138
8.022772789001465,-2.879537958081795,-0.12982739531016935,-147.19942853893912,0.0087890625,-0.20654296875,1.0234375,-6.8359375,0.732421875,8.23974609375,0.0,0.0,0.0,0.008180763572454453,0.02378394640982151,0.9590171575546265,0.2822296917438507
8.044212102890015,-2.7251835802457345,-0.1274297854680833,-147.36436394701659,0.02880859375,-0.05078125,1.1298828125,14.34326171875,-7.26318359375,6.16455078125,0.0,0.0,0.0,0.007748137228190899,0.022509217262268066,0.9594534039497375,0.28086018562316895
8.06286334991455,-3.0168552828069046,-0.1107034859540485,-147.52119875073842,-0.0009765625,0.201171875,0.96240234375,5.37109375,1.708984375,5.615234375,0.0,0.0,0.0,0.008288742043077946,0.025003621354699135,0.9597755670547485,0.27953001856803894
8.082622766494751,-3.2113929441906195,-0.05648461055916086,-147.57847671711815,-0.052734375,0.1787109375,0.85595703125,-11.65771484375,4.7607421875,2.0751953125,0.0,0.0,0.0,0.008295807987451553,0.026769381016492844,0.9598679542541504,0.2790486216545105
8.10265827178955,-3.1382992479009046,0.11888288427908339,-147.61011415335363,-0.07080078125,0.04541015625,1.052734375,-4.7607421875,3.23486328125,1.220703125,0.0,0.0,0.0,0.0066414945758879185,0.02658601477742195,0.9599497318267822,0.278828889131546
8.123584747314453,-3.142517530043622,0.3375728416199037,-147.66418193082347,-0.0478515625,0.0634765625,1.06787109375,3.72314453125,-2.86865234375,2.197265625,0.0,0.0,0.0,0.004806910175830126,0.027155593037605286,0.9600620269775391,0.2784249186515808
8.142747640609741,-3.279405193181256,0.38597190892415784,-147.69592865008568,-0.0166015625,0.09814453125,0.96728515625,1.52587890625,-0.91552734375,2.01416015625,0.0,0.0,0.0,0.004726130980998278,0.028421267867088318,0.960101306438446,0.27816420793533325
8.163643836975098,-3.4550768048603375,0.3894519169867058,-147.73570767181184,-0.01220703125,0.09619140625,0.96484375,-1.8310546875,-0.42724609375,2.197265625,0.0,0.0,0.0,0.005113021470606327,0.029903307557106018,0.960152804851532,0.2778242826461792
8.182767868041992,-3.622104385257945,0.49900476285955175,-147.7725497121949,-0.02392578125,0.07763671875,1.02978515625,0.67138671875,-0.9765625,1.40380859375,0.0,0.0,0.0,0.004589867312461138,0.03156965225934982,0.9601854681968689,0.27753573656082153
8.203142404556274,-3.777131750170663,0.6381601555233354,-147.78847771333935,-0.0302734375,0.0888671875,1.013671875,-0.1220703125,0.06103515625,0.244140625,0.0,0.0,0.0,0.003794659161940217,0.03320581465959549,0.9601636528968811,0.2774326205253601
8.222866296768188,-3.913276630236058,0.7616621953524779,-147.7921386947345,-0.041015625,0.09326171875,0.99755859375,0.0,-1.0986328125,0.06103515625,0.0,0.0,0.0,0.0030882663559168577,0.034645240753889084,0.9601157903671265,0.2774307131767273
8.243487119674683,-4.049126531506673,0.9015846502765658,-147.79537620440107,-0.0322265625,0.08544921875,1.00146484375,0.3662109375,-1.15966796875,-0.06103515625,0.0,0.0,0.0,0.0022436806466430426,0.036121681332588196,0.9600614309310913,0.27743881940841675
8.262762308120728,-4.230111176586378,0.9713367832365574,-147.78707069437033,-0.0185546875,0.0830078125,0.99560546875,-0.48828125,-0.8544921875,-0.9765625,0.0,0.0,0.0,0.002100145909935236,0.037806324660778046,0.959972083568573,0.2775246798992157
8.282761096954346,-4.17396659472205,1.0687207666489529,-147.76077446606578,-0.021484375,0.06591796875,1.00732421875,-0.48828125,-0.1220703125,-1.3427734375,0.0,0.0,0.0,0.0011568166082724929,0.03757104650139809,0.9599109292030334,0.2777736783027649
8.302676439285278,-3.9812873851228137,1.15316367601829,-147.73044842615093,-0.03125,0.0517578125,1.0048828125,-0.3662109375,-0.18310546875,-1.220703125,0.0,0.0,0.0,-8.219734809244983e-06,0.036161188036203384,0.9598852396011353,0.2780517637729645
8.322839498519897,-3.7969871100878905,1.2659379966214284,-147.7003682730462,-0.03564453125,0.046875,1.00146484375,-0.6103515625,-0.3662109375,-1.220703125,0.0,0.0,0.0,-0.0013911589048802853,0.03489069640636444,0.9598500728607178,0.27833178639411926
8.342821598052979,-3.598821551037841,1.3395629535625229,-147.66666811968136,-0.02978515625,0.041015625,1.0087890625,0.0,-1.03759765625,-1.64794921875,0.0,0.0,0.0,-0.0024795171339064837,0.033409878611564636,0.9598144888877869,0.27862870693206787
8.364888429641724,-3.3828878951922383,1.352652264054912,-147.63243521156124,-0.0244140625,0.041015625,1.00341796875,-0.42724609375,-0.48828125,-1.52587890625,0.0,0.0,0.0,-0.0031047710217535496,0.03163384646177292,0.9597901701927185,0.27891305088996887
8.382883548736572,-3.1651743347376122,1.3669626843048523,-147.59970494505853,-0.02587890625,0.037109375,1.00048828125,-0.42724609375,-0.42724609375,-1.3427734375,0.0,0.0,0.0,-0.003746041562408209,0.029846100136637688,0.9597664475440979,0.27918365597724915
8.4027738571167,-2.949576425378398,1.4028087977295485,-147.56918765984693,-0.029296875,0.0322265625,1.00537109375,-0.48828125,-0.54931640625,-1.220703125,0.0,0.0,0.0,-0.004564111120998859,0.028128663077950478,0.9597406387329102,0.27943846583366394
8.422915697097778,-2.7360651388106225,1.4126588910080589,-147.5374409405847,-0.0244140625,0.0302734375,1.005859375,-0.3662109375,-0.244140625,-1.40380859375,0.0,0.0,0.0,-0.005159975495189428,0.02636578679084778,0.9597124457359314,0.279697060585022
8.445148706436157,-2.466510015668777,1.3954177859956542,-147.49926018312433,-0.0263671875,0.0263671875,1.00390625,-0.244140625,-0.42724609375,-1.0986328125,0.0,0.0,0.0,-0.005665450356900692,0.024068063125014305,0.9596811532974243,0.2800012230873108
8.463038444519043,-2.303812561761546,1.404713886899453,-147.47900184204607,-0.0263671875,0.02490234375,1.00390625,-0.06103515625,-0.91552734375,-1.03759765625,0.0,0.0,0.0,-0.006136840209364891,0.022729238495230675,0.9596635103225708,0.28016385436058044
8.477819204330444,-2.084395295995825,1.4083523500146602,-147.45629829324497,-0.02490234375,0.0224609375,1.00390625,-0.244140625,-0.54931640625,-0.9765625,0.0,0.0,0.0,-0.006699615623801947,0.020901866257190704,0.9596491456031799,0.280342161655426
8.502775192260742,-1.8671410657628826,1.4059539931206335,-147.43545255589808,-0.025390625,0.02099609375,1.0009765625,-0.42724609375,-0.30517578125,-0.67138671875,0.0,0.0,0.0,-0.007207545451819897,0.019077884033322334,0.959636390209198,0.2805032730102539
8.522823572158813,-1.6535304212870245,1.428602366799867,-147.41600017714188,-0.02685546875,0.021484375,1.00244140625,-0.18310546875,-0.48828125,-0.54931640625,0.0,0.0,0.0,-0.00791716668754816,0.017345702275633812,0.9596195220947266,0.2806544005870819
8.542967796325684,-1.4447835118304504,1.4830628801469636,-147.3986651570284,-0.02783203125,0.0224609375,1.00146484375,-0.244140625,-0.732421875,-0.54931640625,0.0,0.0,0.0,-0.008882151916623116,0.01573214866220951,0.9595996141433716,0.28078874945640564
8.563530206680298,-1.2799329475090786,1.6191374306082484,-147.38437640128473,-0.02880859375,0.02197265625,1.00244140625,-0.48828125,-0.91552734375,-0.18310546875,0.0,0.0,0.0,-0.010423867963254452,0.014686034061014652,0.9595670700073242,0.28090354800224304
8.583174467086792,-1.0237345794543102,1.6882519013761959,-147.38840621289503,-0.0341796875,-0.0400390625,0.94677734375,-6.77490234375,2.0751953125,1.3427734375,0.0,0.0,0.0,-0.011631129309535027,0.012709495611488819,0.9595975279808044,0.2808484435081482
8.609203577041626,-0.5632288715426229,1.7833245060847769,-147.38952636391892,-0.01416015625,-0.25634765625,0.9599609375,-9.765625,1.3427734375,-1.220703125,0.0,0.0,0.0,-0.01355596724897623,0.009085818193852901,0.9596303701400757,0.2807905375957489
8.623477458953857,-0.27112577316625774,1.8404785685640916,-147.3478485496035,0.01220703125,-0.19970703125,1.10498046875,-2.50244140625,5.43212890625,-0.48828125,0.0,0.0,0.0,-0.01474786177277565,0.006784973666071892,0.9595403075218201,0.28110286593437195
8.646159648895264,-0.31869414539313556,1.7814002070078316,-147.28793413020415,-0.01806640625,0.0244140625,1.10888671875,13.427734375,-3.173828125,-2.5634765625,0.0,0.0,0.0,-0.01413277629762888,0.0070457966066896915,0.959398627281189,0.28161168098449707
8.663014650344849,-0.613194213281352,1.8667128982792873,-147.26434265681092,-0.04541015625,0.12353515625,0.89111328125,3.23486328125,-0.54931640625,-2.9296875,0.0,0.0,0.0,-0.014121271669864655,0.00972389243543148,0.9593067765235901,0.28184494376182556
8.680570602416992,-0.8005122046298047,1.9563937089683778,-147.25453450516278,-0.072265625,0.083984375,0.98779296875,-2.62451171875,-0.79345703125,1.03759765625,0.0,0.0,0.0,-0.014410344883799553,0.011513669975101948,0.9592514038085938,0.2819513976573944
8.702893733978271,-0.9370668426845473,1.979034932293324,-147.26327714730039,-0.03857421875,0.07080078125,1.06396484375,-1.64794921875,-1.03759765625,0.18310546875,0.0,0.0,0.0,-0.014264855533838272,0.012711337767541409,0.9592547416687012,0.28189578652381897
8.722924709320068,-1.164856853155646,1.8893276546211997,-147.2932070362434,-0.00927734375,0.078125,1.04345703125,1.28173828125,-0.18310546875,1.15966796875,0.0,0.0,0.0,-0.012957219034433365,0.014394331723451614,0.9593161344528198,0.2816689908504486
8.742606163024902,-1.3581260203444425,1.8139055041547454,-147.3105420563569,-0.01318359375,0.09326171875,0.978515625,-0.30517578125,-0.48828125,0.3662109375,0.0,0.0,0.0,-0.011853069998323917,0.015825333073735237,0.9593454599380493,0.2815409004688263
8.758694410324097,-1.5401904756432445,1.8218084599112732,-147.33155171824384,-0.048828125,0.0966796875,0.9921875,-1.03759765625,-1.89208984375,0.54931640625,0.0,0.0,0.0,-0.011475092731416225,0.017366817221045494,0.959369421005249,0.28138408064842224
8.783687353134155,-1.7495112277118057,1.8273347232800483,-147.38612492971225,-0.0576171875,0.08203125,1.01513671875,1.15966796875,-3.96728515625,4.2724609375,0.0,0.0,0.0,-0.011016459204256535,0.019127540290355682,0.9594691395759583,0.2809482216835022
8.803698539733887,-1.972234198314107,1.7913473103168973,-147.5276737700716,-0.02685546875,0.09228515625,0.99951171875,0.06103515625,-2.99072265625,7.6904296875,0.0,0.0,0.0,-0.010194837115705013,0.020891699939966202,0.9597827196121216,0.27977997064590454
8.822880268096924,-2.135272307906192,1.631489080670276,-147.66905868589086,0.015625,0.08544921875,1.00146484375,-1.0986328125,-1.89208984375,5.9814453125,0.0,0.0,0.0,-0.008484622463583946,0.02185722067952156,0.9601237177848816,0.2785906195640564
8.842817783355713,-2.2423587884780023,1.5635293387588838,-147.77470805197262,-0.03271484375,0.0400390625,1.017578125,-0.732421875,-0.06103515625,4.7607421875,0.0,0.0,0.0,-0.0076756044290959835,0.02258247323334217,0.9603705406188965,0.27770429849624634
8.859452486038208,-1.8962993567730786,1.6158169981762702,-147.86914224743722,-0.06396484375,-0.16259765625,0.95703125,-8.544921875,-0.8544921875,4.7607421875,0.0,0.0,0.0,-0.0089688366279006,0.01980123482644558,0.9606546759605408,0.2768937945365906
8.883246183395386,-1.6362518569558906,1.6222723807155786,-147.96053017853197,-0.02197265625,-0.17724609375,1.064453125,-2.44140625,1.953125,5.126953125,0.0,0.0,0.0,-0.009665369056165218,0.017629003152251244,0.9609166383743286,0.2761070132255554
8.903166770935059,-1.3300963113728852,1.5961273770681217,-148.07604233777525,-0.041015625,-0.2314453125,0.89208984375,-8.056640625,-1.5869140625,7.26318359375,0.0,0.0,0.0,-0.010198854841291904,0.014988461509346962,0.9612419605255127,0.2751096785068512
8.922942876815796,-1.0349055672852776,1.4876254465125323,-148.27870771082786,-0.02490234375,-0.28955078125,1.00537109375,-1.89208984375,-4.638671875,12.6953125,0.0,0.0,0.0,-0.01001889817416668,0.012234291061758995,0.9617769718170166,0.27337726950645447
8.942814588546753,-0.8206244436928477,1.40386875771137,-148.5594284857154,0.05029296875,-0.27783203125,1.10400390625,2.25830078125,-1.8310546875,14.5263671875,0.0,0.0,0.0,-0.009852099232375622,0.010212011635303497,0.9624752402305603,0.27099844813346863
8.964073181152344,-0.626589281460805,1.3109156460796085,-148.8800375653558,-0.00048828125,-0.2607421875,0.97021484375,-4.0283203125,-4.150390625,18.24951171875,0.0,0.0,0.0,-0.009553543291985989,0.008335854858160019,0.9632560014724731,0.26828575134277344
8.982791900634766,-0.3933502474554905,1.186994670194421,-149.3042742750836,-0.0458984375,-0.2763671875,0.95947265625,-3.41796875,-6.2255859375,23.98681640625,0.0,0.0,0.0,-0.009080332703888416,0.00605163024738431,0.9642698764801025,0.2646973133087158
9.008158445358276,-0.12854102522953265,1.0957790946544874,-149.80373868832996,0.01025390625,-0.25732421875,0.9638671875,-6.7138671875,-1.64794921875,26.85546875,0.0,0.0,0.0,-0.0089400764554739,0.0035736889112740755,0.9654335975646973,0.26047131419181824
9.022926807403564,0.1593890143269399,1.0159933070820413,-150.37571238980516,-0.00146484375,-0.2880859375,1.01171875,-2.25830078125,-8.85009765625,29.296875,0.0,0.0,0.0,-0.008927039802074432,0.0009219652856700122,0.9667335152626038,0.2556284964084625
9.042821884155273,0.41862248099306665,0.8901166559384086,-151.01535960557686,0.0244140625,-0.28369140625,1.0029296875,-6.40869140625,-1.0986328125,32.77587890625,0.0,0.0,0.0,-0.008434624411165714,-0.0015929712681099772,0.968152642250061,0.2502135932445526
9.06451964378357,0.6761627410959046,0.8923681637652798,-151.74661331849677,0.0380859375,-0.30712890625,1.01220703125,-4.57763671875,3.11279296875,37.9638671875,0.0,0.0,0.0,-0.008991767652332783,-0.0038213927764445543,0.9697233438491821,0.24401059746742249
9.08354139328003,0.8757613058503343,0.7810906684465792,-152.55805345227262,-0.00634765625,-0.32080078125,1.02490234375,-2.44140625,-0.91552734375,42.66357421875,0.0,0.0,0.0,-0.008434220217168331,-0.0058073922991752625,0.9714237451553345,0.23713065683841705
9.102759838104248,0.9032977470977697,0.6895616512567655,-153.44760362939675,0.044921875,-0.33349609375,1.10107421875,9.033203125,-3.72314453125,45.59326171875,0.0,0.0,0.0,-0.0076667084358632565,-0.006290014833211899,0.9732373952865601,0.22958803176879883
9.122880697250366,0.9491053712618122,0.6231978257336291,-154.3936531313352,0.060546875,-0.24951171875,0.9287109375,7.38525390625,-4.7607421875,48.27880859375,0.0,0.0,0.0,-0.007138379849493504,-0.006871246267110109,0.9750992059707642,0.2215476930141449
9.142857551574707,1.1231286661950994,0.49486609510934715,-155.3926775804763,0.05126953125,-0.18994140625,0.8115234375,-4.5166015625,-4.0283203125,51.025390625,0.0,0.0,0.0,-0.006307618226855993,-0.008655590936541557,0.9769850373268127,0.21303926408290863
9.163329601287842,1.4259951555276262,0.4072449066201328,-156.47411509214277,0.09619140625,-0.2294921875,0.9267578125,-7.32421875,4.08935546875,56.15234375,0.0,0.0,0.0,-0.006015792489051819,-0.01145798247307539,0.9789264798164368,0.20380257070064545
9.184021472930908,1.6328298254600084,0.4083036659827641,-157.55978732109463,0.2275390625,-0.251953125,1.109375,-1.5869140625,2.197265625,52.67333984375,0.0,0.0,0.0,-0.006267121527343988,-0.013282986357808113,0.9807910323143005,0.19450786709785461
9.203254222869873,1.7259587077411918,0.14289286684152938,-158.62729124685424,0.091796875,-0.25244140625,1.0751953125,1.8310546875,-7.99560546875,54.01611328125,0.0,0.0,0.0,-0.004018057137727737,-0.014568839222192764,0.9825482368469238,0.18539299070835114
9.222838163375854,1.872047916351302,0.010686835641293283,-159.74865804440861,0.08203125,-0.21728515625,0.97509765625,1.52587890625,-7.080078125,56.7626953125,0.0,0.0,0.0,-0.0029637874104082584,-0.016065135598182678,0.9842934608459473,0.1757829189300537
9.243509531021118,2.1233967433736556,-0.1449015160866817,-160.94790265887946,0.0634765625,-0.1884765625,0.94775390625,-5.37109375,-7.32421875,61.82861328125,0.0,0.0,0.0,-0.0018196316668763757,-0.018482783809304237,0.9860365390777588,0.1654905527830124
9.262871980667114,2.3521916454263923,-0.442837609354451,-162.18883874804405,0.11181640625,-0.20556640625,1.0009765625,-0.3662109375,-14.2822265625,62.56103515625,0.0,0.0,0.0,0.0006396584794856608,-0.020875833928585052,0.9877170324325562,0.15485116839408875
9.283109903335571,2.5069744041894597,-0.6463829562320903,-163.43833989442783,0.1953125,-0.19091796875,0.998046875,0.48828125,-3.90625,61.767578125,0.0,0.0,0.0,0.002429973566904664,-0.022459523752331734,0.9893037676811218,0.1441105157136917
9.302767753601074,2.600835717537421,-0.8245777892009628,-164.73660859148552,0.1552734375,-0.1669921875,1.0009765625,4.82177734375,-1.28173828125,65.5517578125,0.0,0.0,0.0,0.0041162860579788685,-0.0234484001994133,0.9908396005630493,0.13292895257472992
9.322821378707886,2.6670544015406947,-1.0533416352373173,-166.05591427118685,0.1376953125,-0.13720703125,1.052734375,2.74658203125,-10.07080078125,66.2841796875,0.0,0.0,0.0,0.006296773441135883,-0.024214746430516243,0.9922688007354736,0.12155941128730774
9.342670202255249,2.7903706922409244,-1.2302189887483177,-167.4216105957309,0.1708984375,-0.11962890625,1.09375,1.52587890625,-4.69970703125,68.9697265625,0.0,0.0,0.0,0.00800059363245964,-0.02537592686712742,0.9936010837554932,0.10976789146661758
9.364261150360107,2.8025083652828604,-1.3056560802535815,-168.8426860940654,0.17041015625,-0.134765625,1.03369140625,5.37109375,2.685546875,71.96044921875,0.0,0.0,0.0,0.00895931851118803,-0.02544393762946129,0.9948744773864746,0.09745405614376068
9.38333773612976,2.762399146599018,-1.5513065017957346,-170.2995927647858,0.0615234375,-0.0537109375,0.8935546875,8.23974609375,-15.07568359375,71.83837890625,0.0,0.0,0.0,0.011447052471339703,-0.025159887969493866,0.9960108399391174,0.08484380692243576
9.403478860855103,2.5492018352896517,-1.7100187537656746,-171.82686404433568,0.07080078125,0.078125,0.8681640625,1.77001953125,-1.40380859375,77.880859375,0.0,0.0,0.0,0.013295529410243034,-0.02324826270341873,0.997076153755188,0.07156912982463837
9.423006534576416,2.3347452078520643,-1.6927240744569676,-173.38816332633056,0.2041015625,0.0947265625,1.08154296875,6.591796875,6.65283203125,79.9560546875,0.0,0.0,0.0,0.013568894006311893,-0.021188601851463318,0.9980024695396423,0.05794933810830116
9.439154863357544,2.1813861166441217,-1.7390784339197285,-175.0157291036529,0.041015625,0.12744140625,0.904296875,0.3662109375,-7.8125,82.82470703125,0.0,0.0,0.0,0.014331046491861343,-0.019674597308039665,0.9987456798553467,0.043758027255535126
9.462780237197876,2.11355892309131,-1.8897596640862029,-176.68289631778296,0.07568359375,0.13037109375,0.96923828125,-5.92041015625,-7.01904296875,83.0078125,0.0,0.0,0.0,0.015947071835398674,-0.018910206854343414,0.9992663860321045,0.029238270595669746
9.482778549194336,2.1263209181120675,-1.9876339270149583,-178.2929221693167,0.169921875,0.08935546875,1.07861328125,-2.38037109375,-4.69970703125,78.67431640625,0.0,0.0,0.0,0.017063239589333534,-0.018808063119649887,0.9995617270469666,0.01521353144198656
9.50282597541809,2.057837599512111,-2.110989064416093,-179.7326987255987,0.14794921875,0.07958984375,1.02197265625,-2.0751953125,3.173828125,67.07763671875,0.0,0.0,0.0,0.018375910818576813,-0.01799692213535309,0.9996656775474548,0.0026626705657690763
9.52360987663269,1.9758155653167206,-2.163838293449301,179.07537498025502,0.09912109375,0.08984375,1.00146484375,-2.197265625,-2.62451171875,55.17578125,0.0,0.0,0.0,0.019017599523067474,-0.017085421830415726,0.9996432065963745,-0.0077406372874975204
9.54283356666565,1.7798079191575724,-2.160750621057632,178.16910450004272,0.11962890625,0.06787109375,1.1064453125,6.77490234375,3.173828125,41.32080078125,0.0,0.0,0.0,0.019098404794931412,-0.015225177630782127,0.9995787143707275,-0.015679363161325455
9.562893867492676,1.5239718712939319,-2.117637826686277,177.47444694069574,0.06201171875,0.107421875,0.98486328125,2.86865234375,8.48388671875,31.18896484375,0.0,0.0,0.0,0.018765727058053017,-0.01288607157766819,0.9995035529136658,-0.021786484867334366
9.582807064056396,1.2715211426593849,-1.8829721635985028,176.97783754652247,0.0322265625,0.1083984375,0.986328125,7.75146484375,9.521484375,22.27783203125,0.0,0.0,0.0,0.016717128455638885,-0.010657260194420815,0.9994605779647827,-0.02618284709751606
9.60287618637085,1.063069425441002,-1.794605523994405,176.66658582604498,-0.03564453125,0.1943359375,0.95361328125,-4.69970703125,2.197265625,13.73291015625,0.0,0.0,0.0,0.01592273637652397,-0.0088163698092103,0.9994156360626221,-0.028935402631759644
9.622771501541138,0.9359518143025427,-1.8043110093615815,176.4759825670666,-0.0302734375,0.09326171875,1.04638671875,-0.06103515625,-8.11767578125,8.7890625,0.0,0.0,0.0,0.015988070517778397,-0.007678645197302103,0.9993739724159241,-0.030614657327532768
9.644365310668945,0.6620189134286891,-1.8050362900740722,176.27548919417004,-0.0205078125,0.072265625,1.033203125,9.1552734375,-3.2958984375,10.55908203125,0.0,0.0,0.0,0.01593039371073246,-0.005261548329144716,0.9993342161178589,-0.03240123763680458
9.662945747375488,0.25326173355720677,-1.7571051174083905,176.07569250056883,0.05029296875,0.1142578125,1.03369140625,12.20703125,1.77001953125,10.43701171875,0.0,0.0,0.0,0.015399668365716934,-0.001683577080257237,0.9992949962615967,-0.03420132398605347
9.68333911895752,-0.005677198293111388,-1.73459985753661,175.89088124200663,0.0068359375,0.169921875,0.92529296875,-2.9296875,0.42724609375,9.8876953125,0.0,0.0,0.0,0.015125153586268425,0.0005921719712205231,0.9992426633834839,-0.03584778681397438
9.702696084976196,-0.19360073818844617,-1.7198954207489245,175.70421217199018,-0.005859375,0.23388671875,0.96875,1.220703125,-0.9765625,9.58251953125,0.0,0.0,0.0,0.014934475533664227,0.0022506059613078833,0.9991825222969055,-0.03750016912817955
9.723265409469604,-0.3702088461759733,-1.6768381216645758,175.549412764641,0.05810546875,0.11474609375,0.95068359375,1.0986328125,2.685546875,7.32421875,0.0,0.0,0.0,0.014496108517050743,0.0037960608024150133,0.9991319179534912,-0.03887180984020233
9.743155002593994,-0.481500962368366,-1.5652619656522457,175.39007811168295,0.00341796875,0.171875,0.96630859375,-5.9814453125,5.126953125,8.4228515625,0.0,0.0,0.0,0.013478914275765419,0.004747424740344286,0.9990866184234619,-0.0402715727686882
9.76288104057312,-0.6176768450892903,-1.5440097253280454,175.23693161011292,-0.05908203125,0.12451171875,1.10888671875,-0.67138671875,-4.2724609375,7.6904296875,0.0,0.0,0.0,0.01323782280087471,0.005944946315139532,0.9990280866622925,-0.04162183776497841
9.782777070999146,-0.8487084740126476,-1.4857031751479968,175.1101632991175,0.01513671875,0.126953125,1.0458984375,2.86865234375,2.9296875,6.103515625,0.0,0.0,0.0,0.012636765837669373,0.00795199815183878,0.9989742636680603,-0.04275015741586685
