time,orientation.x,orientation.y,orientation.z,orientation.w,orientation_covariance,angular_velocity.x,angular_velocity.y,angular_velocity.z,angular_velocity_covariance,linear_acceleration.x,linear_acceleration.y,linear_acceleration.z,linear_acceleration_covariance
0.2206878662109375,0.015554307959973812,0.019895264878869057,0.1592404544353485,0.9869167804718018,[0. 0. 0. 0. 0. 0. 0. 0. 0.],0.0,-0.79345703125,-0.1220703125,[0. 0. 0. 0. 0. 0. 0. 0. 0.],-0.03564453125,0.03759765625,1.005859375,[0. 0. 0. 0. 0. 0. 0. 0. 0.]
0.24446368217468262,0.014711957424879074,0.01945681869983673,0.1592007726430893,0.9869449138641357,[0. 0. 0. 0. 0. 0. 0. 0. 0.],-0.244140625,-1.15966796875,-0.18310546875,[0. 0. 0. 0. 0. 0. 0. 0. 0.],-0.03369140625,0.03515625,1.005859375,[0. 0. 0. 0. 0. 0. 0. 0. 0.]
0.2612121105194092,0.01509895920753479,0.018659833818674088,0.15918613970279694,0.9869568347930908,[0. 0. 0. 0. 0. 0. 0. 0. 0.],-0.1220703125,-0.732421875,-0.244140625,[0. 0. 0. 0. 0. 0. 0. 0. 0.],-0.0322265625,0.0361328125,1.005859375,[0. 0. 0. 0. 0. 0. 0. 0. 0.]
0.2827913761138916,0.015598163940012455,0.01848425902426243,0.15916991233825684,0.986954927444458,[0. 0. 0. 0. 0. 0. 0. 0. 0.],-0.18310546875,-0.3662109375,-0.18310546875,[0. 0. 0. 0. 0. 0. 0. 0. 0.],-0.03173828125,0.037109375,1.0048828125,[0. 0. 0. 0. 0. 0. 0. 0. 0.]
0.3000335693359375,0.015446530655026436,0.018356159329414368,0.15914197266101837,0.986964225769043,[0. 0. 0. 0. 0. 0. 0. 0. 0.],0.0,-0.54931640625,-0.06103515625,[0. 0. 0. 0. 0. 0. 0. 0. 0.],-0.0322265625,0.03662109375,1.00439453125,[0. 0. 0. 0. 0. 0. 0. 0. 0.]
0.31568241119384766,0.015350070782005787,0.01916438899934292,0.1590876430273056,0.9869590997695923,[0. 0. 0. 0. 0. 0. 0. 0. 0.],0.0,-0.9765625,-0.1220703125,[0. 0. 0. 0. 0. 0. 0. 0. 0.],-0.033203125,0.03662109375,1.0048828125,[0. 0. 0. 0. 0. 0. 0. 0. 0.]
0.33990979194641113,0.01520673930644989,0.019193977117538452,0.1590525060892105,0.9869664311408997,[0. 0. 0. 0. 0. 0. 0. 0. 0.],0.0,-0.8544921875,-0.1220703125,[0. 0. 0. 0. 0. 0. 0. 0. 0.],-0.03369140625,0.037109375,1.0068359375,[0. 0. 0. 0. 0. 0. 0. 0. 0.]
0.36151957511901855,0.015077722258865833,0.019284488633275032,0.15902411937713623,0.9869711995124817,[0. 0. 0. 0. 0. 0. 0. 0. 0.],0.0,-0.42724609375,-0.244140625,[0. 0. 0. 0. 0. 0. 0. 0. 0.],-0.03369140625,0.0361328125,1.00537109375,[0. 0. 0. 0. 0. 0. 0. 0. 0.]
0.38022661209106445,0.01538916863501072,0.019886715337634087,0.15899914503097534,0.9869585037231445,[0. 0. 0. 0. 0. 0. 0. 0. 0.],-0.244140625,-0.48828125,-0.18310546875,[0. 0. 0. 0. 0. 0. 0. 0. 0.],-0.0341796875,0.037109375,1.001953125,[0. 0. 0. 0. 0. 0. 0. 0. 0.]
0.4014265537261963,0.015286129899322987,0.019089816138148308,0.15897108614444733,0.9869803190231323,[0. 0. 0. 0. 0. 0. 0. 0. 0.],-0.3662109375,-0.42724609375,-0.18310546875,[0. 0. 0. 0. 0. 0. 0. 0. 0.],-0.033203125,0.0361328125,1.00341796875,[0. 0. 0. 0. 0. 0. 0. 0. 0.]
0.4157693386077881,0.015379033982753754,0.01895885169506073,0.1589590162038803,0.9869832992553711,[0. 0. 0. 0. 0. 0. 0. 0. 0.],0.3662109375,-0.79345703125,0.0,[0. 0. 0. 0. 0. 0. 0. 0. 0.],-0.03271484375,0.0361328125,1.00439453125,[0. 0. 0. 0. 0. 0. 0. 0. 0.]
0.440293550491333,0.01546337641775608,0.018748417496681213,0.1589345932006836,0.9869900345802307,[0. 0. 0. 0. 0. 0. 0. 0. 0.],0.06103515625,-0.8544921875,-0.18310546875,[0. 0. 0. 0. 0. 0. 0. 0. 0.],-0.03271484375,0.0361328125,1.00390625,[0. 0. 0. 0. 0. 0. 0. 0. 0.]
0.4604465961456299,0.014225340448319912,0.01850426010787487,0.15889674425125122,0.9870193004608154,[0. 0. 0. 0. 0. 0. 0. 0. 0.],-0.3662109375,-0.732421875,-0.18310546875,[0. 0. 0. 0. 0. 0. 0. 0. 0.],-0.0322265625,0.0341796875,1.00439453125,[0. 0. 0. 0. 0. 0. 0. 0. 0.]
0.4799213409423828,0.01534411869943142,0.018313510343432426,0.1588696986436844,0.9870104789733887,[0. 0. 0. 0. 0. 0. 0. 0. 0.],-0.18310546875,-0.42724609375,-0.244140625,[0. 0. 0. 0. 0. 0. 0. 0. 0.],-0.03173828125,0.0361328125,1.005859375,[0. 0. 0. 0. 0. 0. 0. 0. 0.]
0.5004737377166748,0.015099046751856804,0.018808815628290176,0.15883156657218933,0.9870111346244812,[0. 0. 0. 0. 0. 0. 0. 0. 0.],0.244140625,-0.67138671875,-0.06103515625,[0. 0. 0. 0. 0. 0. 0. 0. 0.],-0.03271484375,0.0361328125,1.00537109375,[0. 0. 0. 0. 0. 0. 0. 0. 0.]
0.5206069946289062,0.015095417387783527,0.018755801022052765,0.15879978239536285,0.9870173335075378,[0. 0. 0. 0. 0. 0. 0. 0. 0.],0.1220703125,-0.91552734375,-0.06103515625,[0. 0. 0. 0. 0. 0. 0. 0. 0.],-0.0322265625,0.03662109375,1.00439453125,[0. 0. 0. 0. 0. 0. 0. 0. 0.]
0.5411250591278076,0.015768321231007576,0.018495796248316765,0.15878549218177795,0.9870139956474304,[0. 0. 0. 0. 0. 0. 0. 0. 0.],-0.244140625,-0.79345703125,-0.244140625,[0. 0. 0. 0. 0. 0. 0. 0. 0.],-0.03173828125,0.037109375,1.00341796875,[0. 0. 0. 0. 0. 0. 0. 0. 0.]
0.5550849437713623,0.015155652537941933,0.018113350495696068,0.15875788033008575,0.9870349764823914,[0. 0. 0. 0. 0. 0. 0. 0. 0.],-0.42724609375,-0.54931640625,-0.18310546875,[0. 0. 0. 0. 0. 0. 0. 0. 0.],-0.03125,0.03564453125,1.001953125,[0. 0. 0. 0. 0. 0. 0. 0. 0.]
0.5799329280853271,0.015003703534603119,0.019199514761567116,0.15870913863182068,0.98702472448349,[0. 0. 0. 0. 0. 0. 0. 0. 0.],0.1220703125,-0.30517578125,-0.06103515625,[0. 0. 0. 0. 0. 0. 0. 0. 0.],-0.033203125,0.03564453125,1.00390625,[0. 0. 0. 0. 0. 0. 0. 0. 0.]
0.6024882793426514,0.014675374142825603,0.019867226481437683,0.15866318345069885,0.9870238304138184,[0. 0. 0. 0. 0. 0. 0. 0. 0.],0.18310546875,-0.79345703125,-0.1220703125,[0. 0. 0. 0. 0. 0. 0. 0. 0.],-0.03466796875,0.03564453125,1.00537109375,[0. 0. 0. 0. 0. 0. 0. 0. 0.]
0.6227705478668213,0.014588768593966961,0.01971934363245964,0.15863510966300964,0.9870325922966003,[0. 0. 0. 0. 0. 0. 0. 0. 0.],-0.18310546875,-0.9765625,-0.244140625,[0. 0. 0. 0. 0. 0. 0. 0. 0.],-0.03466796875,0.03564453125,1.0068359375,[0. 0. 0. 0. 0. 0. 0. 0. 0.]
0.6405234336853027,0.015123337507247925,0.01955432817339897,0.1586104780435562,0.9870318174362183,[0. 0. 0. 0. 0. 0. 0. 0. 0.],-0.3662109375,-0.67138671875,-0.18310546875,[0. 0. 0. 0. 0. 0. 0. 0. 0.],-0.03369140625,0.0361328125,1.0029296875,[0. 0. 0. 0. 0. 0. 0. 0. 0.]
0.6607723236083984,0.015686772763729095,0.019743235781788826,0.15859967470169067,0.9870209693908691,[0. 0. 0. 0. 0. 0. 0. 0. 0.],0.1220703125,-0.244140625,-0.06103515625,[0. 0. 0. 0. 0. 0. 0. 0. 0.],-0.0341796875,0.03759765625,1.00244140625,[0. 0. 0. 0. 0. 0. 0. 0. 0.]
0.6802670955657959,0.016121404245495796,0.01848544552922249,0.15860290825366974,0.987037718296051,[0. 0. 0. 0. 0. 0. 0. 0. 0.],-0.06103515625,-0.54931640625,0.0,[0. 0. 0. 0. 0. 0. 0. 0. 0.],-0.03173828125,0.0380859375,1.00537109375,[0. 0. 0. 0. 0. 0. 0. 0. 0.]
0.700139045715332,0.015585689805448055,0.019026249647140503,0.15854883193969727,0.9870446920394897,[0. 0. 0. 0. 0. 0. 0. 0. 0.],-0.18310546875,-0.732421875,-0.1220703125,[0. 0. 0. 0. 0. 0. 0. 0. 0.],-0.03369140625,0.037109375,1.005859375,[0. 0. 0. 0. 0. 0. 0. 0. 0.]
0.7200102806091309,0.014776366762816906,0.018856022506952286,0.15850822627544403,0.9870670437812805,[0. 0. 0. 0. 0. 0. 0. 0. 0.],0.06103515625,-0.79345703125,-0.1220703125,[0. 0. 0. 0. 0. 0. 0. 0. 0.],-0.03271484375,0.03564453125,1.0048828125,[0. 0. 0. 0. 0. 0. 0. 0. 0.]
0.7401788234710693,0.015425202436745167,0.019266769289970398,0.15848959982395172,0.9870522022247314,[0. 0. 0. 0. 0. 0. 0. 0. 0.],0.1220703125,-0.732421875,-0.18310546875,[0. 0. 0. 0. 0. 0. 0. 0. 0.],-0.033203125,0.03662109375,1.00390625,[0. 0. 0. 0. 0. 0. 0. 0. 0.]
0.7604155540466309,0.01591908000409603,0.01891944743692875,0.1584775298833847,0.9870530366897583,[0. 0. 0. 0. 0. 0. 0. 0. 0.],-0.3662109375,-0.54931640625,-0.18310546875,[0. 0. 0. 0. 0. 0. 0. 0. 0.],-0.0322265625,0.0380859375,1.0068359375,[0. 0. 0. 0. 0. 0. 0. 0. 0.]
0.7757878303527832,0.015416393987834454,0.01847982220351696,0.15844985842704773,0.9870737195014954,[0. 0. 0. 0. 0. 0. 0. 0. 0.],-0.3662109375,-0.48828125,-0.06103515625,[0. 0. 0. 0. 0. 0. 0. 0. 0.],-0.03173828125,0.03662109375,1.00537109375,[0. 0. 0. 0. 0. 0. 0. 0. 0.]
0.8004715442657471,0.014561880379915237,0.01913084276020527,0.15839925408363342,0.9870824217796326,[0. 0. 0. 0. 0. 0. 0. 0. 0.],0.1220703125,-0.48828125,0.0,[0. 0. 0. 0. 0. 0. 0. 0. 0.],-0.03515625,0.0341796875,1.00244140625,[0. 0. 0. 0. 0. 0. 0. 0. 0.]
0.8151431083679199,0.014189131557941437,0.019893746823072433,0.15835274755954742,0.9870802164077759,[0. 0. 0. 0. 0. 0. 0. 0. 0.],0.18310546875,-0.9765625,-0.1220703125,[0. 0. 0. 0. 0. 0. 0. 0. 0.],-0.03564453125,0.03466796875,1.005859375,[0. 0. 0. 0. 0. 0. 0. 0. 0.]
0.8400483131408691,0.015496822074055672,0.018857061862945557,0.15839356184005737,0.9870743751525879,[0. 0. 0. 0. 0. 0. 0. 0. 0.],-0.30517578125,-0.8544921875,-0.06103515625,[0. 0. 0. 0. 0. 0. 0. 0. 0.],-0.0322265625,0.037109375,1.005859375,[0. 0. 0. 0. 0. 0. 0. 0. 0.]
0.8623247146606445,0.016120946034789085,0.018572725355625153,0.15837588906288147,0.9870726466178894,[0. 0. 0. 0. 0. 0. 0. 0. 0.],-0.244140625,-0.48828125,-0.244140625,[0. 0. 0. 0. 0. 0. 0. 0. 0.],-0.03173828125,0.03759765625,1.0048828125,[0. 0. 0. 0. 0. 0. 0. 0. 0.]
0.8968982696533203,0.01583593338727951,0.01918475143611431,0.15834034979343414,0.9870712161064148,[0. 0. 0. 0. 0. 0. 0. 0. 0.],0.1220703125,-0.244140625,0.0,[0. 0. 0. 0. 0. 0. 0. 0. 0.],-0.033203125,0.037109375,1.0048828125,[0. 0. 0. 0. 0. 0. 0. 0. 0.]
0.9149866104125977,0.014704667031764984,0.019258810207247734,0.15829230844974518,0.9870949983596802,[0. 0. 0. 0. 0. 0. 0. 0. 0.],0.0,-0.67138671875,-0.06103515625,[0. 0. 0. 0. 0. 0. 0. 0. 0.],-0.03369140625,0.03564453125,1.00537109375,[0. 0. 0. 0. 0. 0. 0. 0. 0.]
0.9220292568206787,0.015869110822677612,0.018941259011626244,0.15827958285808563,0.9870851635932922,[0. 0. 0. 0. 0. 0. 0. 0. 0.],-0.244140625,-1.03759765625,-0.244140625,[0. 0. 0. 0. 0. 0. 0. 0. 0.],-0.033203125,0.03759765625,1.00341796875,[0. 0. 0. 0. 0. 0. 0. 0. 0.]
0.9399523735046387,0.015442883595824242,0.01920761726796627,0.15824344754219055,0.9870924949645996,[0. 0. 0. 0. 0. 0. 0. 0. 0.],-0.244140625,-0.8544921875,-0.18310546875,[0. 0. 0. 0. 0. 0. 0. 0. 0.],-0.033203125,0.03662109375,1.001953125,[0. 0. 0. 0. 0. 0. 0. 0. 0.]
0.9602456092834473,0.015629258006811142,0.018829533830285072,0.15823227167129517,0.987098753452301,[0. 0. 0. 0. 0. 0. 0. 0. 0.],0.0,-0.18310546875,-0.1220703125,[0. 0. 0. 0. 0. 0. 0. 0. 0.],-0.033203125,0.037109375,1.00634765625,[0. 0. 0. 0. 0. 0. 0. 0. 0.]
0.98203444480896,0.015461697243154049,0.01866779290139675,0.15818867087364197,0.9871113300323486,[0. 0. 0. 0. 0. 0. 0. 0. 0.],-0.06103515625,-0.48828125,-0.244140625,[0. 0. 0. 0. 0. 0. 0. 0. 0.],-0.03271484375,0.0361328125,1.0048828125,[0. 0. 0. 0. 0. 0. 0. 0. 0.]
1.0012047290802002,0.014623386785387993,0.019211487844586372,0.1581348031759262,0.9871224164962769,[0. 0. 0. 0. 0. 0. 0. 0. 0.],-0.18310546875,-1.03759765625,-0.06103515625,[0. 0. 0. 0. 0. 0. 0. 0. 0.],-0.03369140625,0.03515625,1.00390625,[0. 0. 0. 0. 0. 0. 0. 0. 0.]
1.0201325416564941,0.015091034583747387,0.018876047804951668,0.15811948478221893,0.9871242046356201,[0. 0. 0. 0. 0. 0. 0. 0. 0.],-0.1220703125,-0.9765625,-0.18310546875,[0. 0. 0. 0. 0. 0. 0. 0. 0.],-0.03271484375,0.03564453125,1.0029296875,[0. 0. 0. 0. 0. 0. 0. 0. 0.]
1.039884328842163,0.014895481988787651,0.018898077309131622,0.1580784171819687,0.9871334433555603,[0. 0. 0. 0. 0. 0. 0. 0. 0.],0.06103515625,-0.48828125,-0.244140625,[0. 0. 0. 0. 0. 0. 0. 0. 0.],-0.033203125,0.0361328125,1.00244140625,[0. 0. 0. 0. 0. 0. 0. 0. 0.]
1.0600926876068115,0.015349366702139378,0.019436495378613472,0.15805137157440186,0.9871203303337097,[0. 0. 0. 0. 0. 0. 0. 0. 0.],-0.244140625,-0.3662109375,-0.18310546875,[0. 0. 0. 0. 0. 0. 0. 0. 0.],-0.03369140625,0.03662109375,1.0029296875,[0. 0. 0. 0. 0. 0. 0. 0. 0.]
1.0801079273223877,0.015468068420886993,0.01963171176612377,0.1580216884613037,0.9871193766593933,[0. 0. 0. 0. 0. 0. 0. 0. 0.],-0.18310546875,-0.732421875,-0.18310546875,[0. 0. 0. 0. 0. 0. 0. 0. 0.],-0.0341796875,0.0361328125,1.00341796875,[0. 0. 0. 0. 0. 0. 0. 0. 0.]
1.1032545566558838,0.014504200778901577,0.01826005056500435,0.15801087021827698,0.9871619939804077,[0. 0. 0. 0. 0. 0. 0. 0. 0.],0.0,-0.8544921875,0.06103515625,[0. 0. 0. 0. 0. 0. 0. 0. 0.],-0.0322265625,0.03466796875,1.0048828125,[0. 0. 0. 0. 0. 0. 0. 0. 0.]
1.1162371635437012,0.015885619446635246,0.019179638475179672,0.15799428522586823,0.9871259331703186,[0. 0. 0. 0. 0. 0. 0. 0. 0.],0.18310546875,-0.8544921875,-0.06103515625,[0. 0. 0. 0. 0. 0. 0. 0. 0.],-0.033203125,0.03759765625,1.00244140625,[0. 0. 0. 0. 0. 0. 0. 0. 0.]
1.1350476741790771,0.015517967753112316,0.018862450495362282,0.1579640507698059,0.9871427416801453,[0. 0. 0. 0. 0. 0. 0. 0. 0.],-0.06103515625,-0.48828125,-0.1220703125,[0. 0. 0. 0. 0. 0. 0. 0. 0.],-0.0322265625,0.03662109375,1.0029296875,[0. 0. 0. 0. 0. 0. 0. 0. 0.]
1.155219554901123,0.015411761589348316,0.018894603475928307,0.15793006122112274,0.9871492385864258,[0. 0. 0. 0. 0. 0. 0. 0. 0.],-0.3662109375,-0.6103515625,-0.244140625,[0. 0. 0. 0. 0. 0. 0. 0. 0.],-0.0322265625,0.037109375,1.005859375,[0. 0. 0. 0. 0. 0. 0. 0. 0.]
1.1761736869812012,0.015267313458025455,0.02017270028591156,0.15786588191986084,0.9871364235877991,[0. 0. 0. 0. 0. 0. 0. 0. 0.],0.0,-0.244140625,-0.18310546875,[0. 0. 0. 0. 0. 0. 0. 0. 0.],-0.03515625,0.03662109375,1.00439453125,[0. 0. 0. 0. 0. 0. 0. 0. 0.]
1.200042963027954,0.014412089250981808,0.019617147743701935,0.15784069895744324,0.9871646165847778,[0. 0. 0. 0. 0. 0. 0. 0. 0.],0.244140625,-0.67138671875,-0.1220703125,[0. 0. 0. 0. 0. 0. 0. 0. 0.],-0.03466796875,0.03466796875,1.00341796875,[0. 0. 0. 0. 0. 0. 0. 0. 0.]
1.2199559211730957,0.014342817477881908,0.018583543598651886,0.15782687067985535,0.9871878027915955,[0. 0. 0. 0. 0. 0. 0. 0. 0.],0.0,-1.15966796875,-0.18310546875,[0. 0. 0. 0. 0. 0. 0. 0. 0.],-0.03173828125,0.03466796875,1.00537109375,[0. 0. 0. 0. 0. 0. 0. 0. 0.]
1.2404727935791016,0.015223679132759571,0.01861465722322464,0.1578112542629242,0.9871764779090881,[0. 0. 0. 0. 0. 0. 0. 0. 0.],-0.30517578125,-0.91552734375,-0.30517578125,[0. 0. 0. 0. 0. 0. 0. 0. 0.],-0.0322265625,0.0361328125,1.00439453125,[0. 0. 0. 0. 0. 0. 0. 0. 0.]
1.2603886127471924,0.014590544626116753,0.018845373764634132,0.15777534246444702,0.987187385559082,[0. 0. 0. 0. 0. 0. 0. 0. 0.],-0.06103515625,-0.244140625,-0.18310546875,[0. 0. 0. 0. 0. 0. 0. 0. 0.],-0.03271484375,0.03515625,1.00341796875,[0. 0. 0. 0. 0. 0. 0. 0. 0.]
1.282076120376587,0.014793391339480877,0.01834820955991745,0.15775394439697266,0.9871971607208252,[0. 0. 0. 0. 0. 0. 0. 0. 0.],0.0,-0.30517578125,-0.18310546875,[0. 0. 0. 0. 0. 0. 0. 0. 0.],-0.0322265625,0.03515625,1.0048828125,[0. 0. 0. 0. 0. 0. 0. 0. 0.]
1.2955386638641357,0.015382452867925167,0.018855992704629898,0.15772640705108643,0.9871830344200134,[0. 0. 0. 0. 0. 0. 0. 0. 0.],-0.244140625,-0.9765625,-0.18310546875,[0. 0. 0. 0. 0. 0. 0. 0. 0.],-0.03271484375,0.03662109375,1.00634765625,[0. 0. 0. 0. 0. 0. 0. 0. 0.]
1.3201396465301514,0.015494200401008129,0.01844378001987934,0.15771150588989258,0.9871914386749268,[0. 0. 0. 0. 0. 0. 0. 0. 0.],-0.244140625,-1.0986328125,-0.1220703125,[0. 0. 0. 0. 0. 0. 0. 0. 0.],-0.03173828125,0.03662109375,1.0029296875,[0. 0. 0. 0. 0. 0. 0. 0. 0.]
1.3397698402404785,0.015402277931571007,0.019121725112199783,0.15766064822673798,0.9871880412101746,[0. 0. 0. 0. 0. 0. 0. 0. 0.],0.06103515625,-0.54931640625,-0.30517578125,[0. 0. 0. 0. 0. 0. 0. 0. 0.],-0.03369140625,0.037109375,1.00341796875,[0. 0. 0. 0. 0. 0. 0. 0. 0.]
1.3599696159362793,0.016117190942168236,0.019078044220805168,0.15765713155269623,0.9871781468391418,[0. 0. 0. 0. 0. 0. 0. 0. 0.],-0.1220703125,-0.244140625,-0.1220703125,[0. 0. 0. 0. 0. 0. 0. 0. 0.],-0.0322265625,0.0380859375,1.00439453125,[0. 0. 0. 0. 0. 0. 0. 0. 0.]
1.380183458328247,0.014937462285161018,0.01909794472157955,0.1576017439365387,0.9872051477432251,[0. 0. 0. 0. 0. 0. 0. 0. 0.],-0.30517578125,-0.54931640625,-0.244140625,[0. 0. 0. 0. 0. 0. 0. 0. 0.],-0.033203125,0.0361328125,1.00537109375,[0. 0. 0. 0. 0. 0. 0. 0. 0.]
1.401566743850708,0.014274644665420055,0.018903741613030434,0.15756763517856598,0.9872240424156189,[0. 0. 0. 0. 0. 0. 0. 0. 0.],0.06103515625,-0.91552734375,-0.1220703125,[0. 0. 0. 0. 0. 0. 0. 0. 0.],-0.03369140625,0.0341796875,1.0029296875,[0. 0. 0. 0. 0. 0. 0. 0. 0.]
1.4199395179748535,0.01469087228178978,0.020137667655944824,0.15753130614757538,0.9871993660926819,[0. 0. 0. 0. 0. 0. 0. 0. 0.],0.1220703125,-0.732421875,-0.1220703125,[0. 0. 0. 0. 0. 0. 0. 0. 0.],-0.03466796875,0.03564453125,1.0048828125,[0. 0. 0. 0. 0. 0. 0. 0. 0.]
1.4412994384765625,0.01540825143456459,0.01909746415913105,0.15753982961177826,0.9872077107429504,[0. 0. 0. 0. 0. 0. 0. 0. 0.],-0.244140625,-0.54931640625,-0.18310546875,[0. 0. 0. 0. 0. 0. 0. 0. 0.],-0.033203125,0.03662109375,1.00390625,[0. 0. 0. 0. 0. 0. 0. 0. 0.]
1.4600391387939453,0.015603793784976006,0.019094416871666908,0.15750451385974884,0.9872103333473206,[0. 0. 0. 0. 0. 0. 0. 0. 0.],-0.30517578125,-0.54931640625,-0.18310546875,[0. 0. 0. 0. 0. 0. 0. 0. 0.],-0.033203125,0.03662109375,1.00390625,[0. 0. 0. 0. 0. 0. 0. 0. 0.]
1.4803218841552734,0.016045397147536278,0.0197613388299942,0.15746094286441803,0.9871971011161804,[0. 0. 0. 0. 0. 0. 0. 0. 0.],-0.06103515625,-0.6103515625,-0.18310546875,[0. 0. 0. 0. 0. 0. 0. 0. 0.],-0.0341796875,0.0380859375,1.0029296875,[0. 0. 0. 0. 0. 0. 0. 0. 0.]
1.4999229907989502,0.015278223901987076,0.019259469583630562,0.1574232429265976,0.9872252345085144,[0. 0. 0. 0. 0. 0. 0. 0. 0.],0.1220703125,-0.79345703125,-0.244140625,[0. 0. 0. 0. 0. 0. 0. 0. 0.],-0.033203125,0.0361328125,1.00390625,[0. 0. 0. 0. 0. 0. 0. 0. 0.]
1.5200324058532715,0.014955607242882252,0.018148107454180717,0.15741658210754395,0.9872522950172424,[0. 0. 0. 0. 0. 0. 0. 0. 0.],0.0,-0.8544921875,-0.18310546875,[0. 0. 0. 0. 0. 0. 0. 0. 0.],-0.03125,0.03564453125,1.005859375,[0. 0. 0. 0. 0. 0. 0. 0. 0.]
1.539794921875,0.015210144221782684,0.018839504569768906,0.1573808491230011,0.9872410893440247,[0. 0. 0. 0. 0. 0. 0. 0. 0.],-0.244140625,-0.67138671875,-0.18310546875,[0. 0. 0. 0. 0. 0. 0. 0. 0.],-0.0322265625,0.0361328125,1.005859375,[0. 0. 0. 0. 0. 0. 0. 0. 0.]
1.5604958534240723,0.014942723326385021,0.019166335463523865,0.15732991695404053,0.9872470498085022,[0. 0. 0. 0. 0. 0. 0. 0. 0.],-0.1220703125,-0.42724609375,-0.18310546875,[0. 0. 0. 0. 0. 0. 0. 0. 0.],-0.033203125,0.03564453125,1.00537109375,[0. 0. 0. 0. 0. 0. 0. 0. 0.]
1.5811645984649658,0.014239707961678505,0.018285201862454414,0.15730087459087372,0.9872787594795227,[0. 0. 0. 0. 0. 0. 0. 0. 0.],0.18310546875,-0.48828125,-0.06103515625,[0. 0. 0. 0. 0. 0. 0. 0. 0.],-0.0322265625,0.03466796875,1.00341796875,[0. 0. 0. 0. 0. 0. 0. 0. 0.]
1.6019527912139893,0.013701538555324078,0.019493430852890015,0.15723592042922974,0.987273633480072,[0. 0. 0. 0. 0. 0. 0. 0. 0.],0.0,-1.0986328125,-0.1220703125,[0. 0. 0. 0. 0. 0. 0. 0. 0.],-0.0341796875,0.03369140625,1.00439453125,[0. 0. 0. 0. 0. 0. 0. 0. 0.]
1.6200945377349854,0.014543330296874046,0.019561372697353363,0.1572265326976776,0.9872617125511169,[0. 0. 0. 0. 0. 0. 0. 0. 0.],-0.06103515625,-1.0986328125,-0.1220703125,[0. 0. 0. 0. 0. 0. 0. 0. 0.],-0.0341796875,0.03515625,1.00341796875,[0. 0. 0. 0. 0. 0. 0. 0. 0.]
1.6402206420898438,0.014908448792994022,0.019042644649744034,0.15722033381462097,0.9872673749923706,[0. 0. 0. 0. 0. 0. 0. 0. 0.],0.18310546875,-0.67138671875,-0.1220703125,[0. 0. 0. 0. 0. 0. 0. 0. 0.],-0.033203125,0.03564453125,1.00390625,[0. 0. 0. 0. 0. 0. 0. 0. 0.]
1.6599314212799072,0.015130646526813507,0.018666911870241165,0.1571958065032959,0.9872751832008362,[0. 0. 0. 0. 0. 0. 0. 0. 0.],-0.1220703125,-0.30517578125,-0.244140625,[0. 0. 0. 0. 0. 0. 0. 0. 0.],-0.03173828125,0.03662109375,1.00439453125,[0. 0. 0. 0. 0. 0. 0. 0. 0.]
1.6752681732177734,0.015560911037027836,0.019391939043998718,0.1571643203496933,0.9872595071792603,[0. 0. 0. 0. 0. 0. 0. 0. 0.],-0.3662109375,-0.48828125,-0.1220703125,[0. 0. 0. 0. 0. 0. 0. 0. 0.],-0.03369140625,0.037109375,1.00390625,[0. 0. 0. 0. 0. 0. 0. 0. 0.]
1.7000093460083008,0.014072426594793797,0.0190768763422966,0.1571100503206253,0.9872966408729553,[0. 0. 0. 0. 0. 0. 0. 0. 0.],-0.1220703125,-0.8544921875,-0.18310546875,[0. 0. 0. 0. 0. 0. 0. 0. 0.],-0.03369140625,0.0341796875,1.00390625,[0. 0. 0. 0. 0. 0. 0. 0. 0.]
1.7210655212402344,0.014947498217225075,0.018833396956324577,0.1571020931005478,0.9872896671295166,[0. 0. 0. 0. 0. 0. 0. 0. 0.],0.244140625,-0.732421875,-0.1220703125,[0. 0. 0. 0. 0. 0. 0. 0. 0.],-0.03271484375,0.03564453125,1.00537109375,[0. 0. 0. 0. 0. 0. 0. 0. 0.]
1.7438251972198486,0.014611350372433662,0.019754331558942795,0.1570361852645874,0.9872872233390808,[0. 0. 0. 0. 0. 0. 0. 0. 0.],-0.18310546875,-0.9765625,-0.18310546875,[0. 0. 0. 0. 0. 0. 0. 0. 0.],-0.03466796875,0.03564453125,1.00537109375,[0. 0. 0. 0. 0. 0. 0. 0. 0.]
1.7602405548095703,0.015005900524556637,0.019366394728422165,0.15703421831130981,0.9872891902923584,[0. 0. 0. 0. 0. 0. 0. 0. 0.],-0.42724609375,-0.54931640625,-0.1220703125,[0. 0. 0. 0. 0. 0. 0. 0. 0.],-0.03369140625,0.0361328125,1.00439453125,[0. 0. 0. 0. 0. 0. 0. 0. 0.]
1.78110933303833,0.014818424358963966,0.019350439310073853,0.1569957286119461,0.9872985482215881,[0. 0. 0. 0. 0. 0. 0. 0. 0.],-0.18310546875,-0.48828125,-0.18310546875,[0. 0. 0. 0. 0. 0. 0. 0. 0.],-0.0341796875,0.03564453125,1.00390625,[0. 0. 0. 0. 0. 0. 0. 0. 0.]
1.8010566234588623,0.014510015025734901,0.01981838420033455,0.15697096288204193,0.987297773361206,[0. 0. 0. 0. 0. 0. 0. 0. 0.],0.1220703125,-0.732421875,-0.06103515625,[0. 0. 0. 0. 0. 0. 0. 0. 0.],-0.03466796875,0.03515625,1.00439453125,[0. 0. 0. 0. 0. 0. 0. 0. 0.]
1.8160226345062256,0.014316683635115623,0.01893184520304203,0.15695638954639435,0.9873203635215759,[0. 0. 0. 0. 0. 0. 0. 0. 0.],0.0,-0.91552734375,-0.1220703125,[0. 0. 0. 0. 0. 0. 0. 0. 0.],-0.03369140625,0.03466796875,1.00537109375,[0. 0. 0. 0. 0. 0. 0. 0. 0.]
1.8352265357971191,0.01447382289916277,0.01874103955924511,0.15693004429340363,0.9873258471488953,[0. 0. 0. 0. 0. 0. 0. 0. 0.],-0.30517578125,-0.79345703125,-0.1220703125,[0. 0. 0. 0. 0. 0. 0. 0. 0.],-0.03271484375,0.03515625,1.0048828125,[0. 0. 0. 0. 0. 0. 0. 0. 0.]
1.8600828647613525,0.01533849909901619,0.01941516250371933,0.15689487755298615,0.9873053431510925,[0. 0. 0. 0. 0. 0. 0. 0. 0.],-0.18310546875,-0.30517578125,-0.18310546875,[0. 0. 0. 0. 0. 0. 0. 0. 0.],-0.03369140625,0.0361328125,1.0048828125,[0. 0. 0. 0. 0. 0. 0. 0. 0.]
1.8802039623260498,0.015789257362484932,0.01904987171292305,0.15687602758407593,0.9873083829879761,[0. 0. 0. 0. 0. 0. 0. 0. 0.],0.18310546875,-0.48828125,-0.1220703125,[0. 0. 0. 0. 0. 0. 0. 0. 0.],-0.033203125,0.037109375,1.00390625,[0. 0. 0. 0. 0. 0. 0. 0. 0.]
1.9001445770263672,0.014770152978599072,0.01827581413090229,0.1568358838558197,0.9873451590538025,[0. 0. 0. 0. 0. 0. 0. 0. 0.],-0.06103515625,-0.91552734375,-0.1220703125,[0. 0. 0. 0. 0. 0. 0. 0. 0.],-0.03173828125,0.03515625,1.005859375,[0. 0. 0. 0. 0. 0. 0. 0. 0.]
1.9153034687042236,0.015922939404845238,0.018735431134700775,0.15680761635303497,0.9873230457305908,[0. 0. 0. 0. 0. 0. 0. 0. 0.],-0.18310546875,-0.8544921875,-0.18310546875,[0. 0. 0. 0. 0. 0. 0. 0. 0.],-0.033203125,0.0380859375,1.00439453125,[0. 0. 0. 0. 0. 0. 0. 0. 0.]
1.9402005672454834,0.015105676837265491,0.019640959799289703,0.1567469835281372,0.9873279333114624,[0. 0. 0. 0. 0. 0. 0. 0. 0.],-0.1220703125,-0.42724609375,-0.244140625,[0. 0. 0. 0. 0. 0. 0. 0. 0.],-0.0341796875,0.03564453125,1.0029296875,[0. 0. 0. 0. 0. 0. 0. 0. 0.]
1.9622688293457031,0.014320621266961098,0.01923048123717308,0.1567211002111435,0.9873518943786621,[0. 0. 0. 0. 0. 0. 0. 0. 0.],0.06103515625,-0.244140625,-0.1220703125,[0. 0. 0. 0. 0. 0. 0. 0. 0.],-0.03369140625,0.03466796875,1.00341796875,[0. 0. 0. 0. 0. 0. 0. 0. 0.]
1.9801979064941406,0.015096613205969334,0.01855853572487831,0.15671908855438232,0.9873534440994263,[0. 0. 0. 0. 0. 0. 0. 0. 0.],-0.06103515625,-0.9765625,-0.1220703125,[0. 0. 0. 0. 0. 0. 0. 0. 0.],-0.0322265625,0.0361328125,1.00439453125,[0. 0. 0. 0. 0. 0. 0. 0. 0.]
2.0006089210510254,0.014981670305132866,0.019026484340429306,0.15667326748371124,0.9873536229133606,[0. 0. 0. 0. 0. 0. 0. 0. 0.],-0.18310546875,-1.0986328125,-0.06103515625,[0. 0. 0. 0. 0. 0. 0. 0. 0.],-0.033203125,0.03564453125,1.00537109375,[0. 0. 0. 0. 0. 0. 0. 0. 0.]
2.02032732963562,0.01466715894639492,0.01933998428285122,0.15664619207382202,0.9873564839363098,[0. 0. 0. 0. 0. 0. 0. 0. 0.],-0.06103515625,-0.67138671875,-0.1220703125,[0. 0. 0. 0. 0. 0. 0. 0. 0.],-0.03369140625,0.03515625,1.00537109375,[0. 0. 0. 0. 0. 0. 0. 0. 0.]
2.0402722358703613,0.015558650717139244,0.019710224121809006,0.15663358569145203,0.987337589263916,[0. 0. 0. 0. 0. 0. 0. 0. 0.],-0.06103515625,-0.18310546875,-0.1220703125,[0. 0. 0. 0. 0. 0. 0. 0. 0.],-0.03369140625,0.03759765625,1.00439453125,[0. 0. 0. 0. 0. 0. 0. 0. 0.]
2.056114912033081,0.01586192660033703,0.018511023372411728,0.15663206577301025,0.9873561263084412,[0. 0. 0. 0. 0. 0. 0. 0. 0.],-0.1220703125,-0.6103515625,-0.18310546875,[0. 0. 0. 0. 0. 0. 0. 0. 0.],-0.03173828125,0.037109375,1.00341796875,[0. 0. 0. 0. 0. 0. 0. 0. 0.]
2.0754520893096924,0.014697783626616001,0.01881769299507141,0.15658357739448547,0.9873761534690857,[0. 0. 0. 0. 0. 0. 0. 0. 0.],-0.244140625,-0.54931640625,-0.1220703125,[0. 0. 0. 0. 0. 0. 0. 0. 0.],-0.03271484375,0.03515625,1.0029296875,[0. 0. 0. 0. 0. 0. 0. 0. 0.]
2.0950214862823486,0.015425982885062695,0.019126730039715767,0.1565527468919754,0.987363874912262,[0. 0. 0. 0. 0. 0. 0. 0. 0.],0.18310546875,-0.67138671875,-0.06103515625,[0. 0. 0. 0. 0. 0. 0. 0. 0.],-0.033203125,0.0361328125,1.00439453125,[0. 0. 0. 0. 0. 0. 0. 0. 0.]
2.115262269973755,0.015264807268977165,0.018751302734017372,0.1565311700105667,0.9873769879341125,[0. 0. 0. 0. 0. 0. 0. 0. 0.],-0.1220703125,-0.67138671875,-0.1220703125,[0. 0. 0. 0. 0. 0. 0. 0. 0.],-0.03271484375,0.0361328125,1.005859375,[0. 0. 0. 0. 0. 0. 0. 0. 0.]
2.13826322555542,0.016279753297567368,0.018491189926862717,0.156528040766716,0.9873661994934082,[0. 0. 0. 0. 0. 0. 0. 0. 0.],-0.30517578125,-0.67138671875,-0.30517578125,[0. 0. 0. 0. 0. 0. 0. 0. 0.],-0.03173828125,0.0380859375,1.00439453125,[0. 0. 0. 0. 0. 0. 0. 0. 0.]
2.160533905029297,0.015678593888878822,0.018974188715219498,0.15648153424263,0.9873741865158081,[0. 0. 0. 0. 0. 0. 0. 0. 0.],-0.1220703125,-0.42724609375,-0.1220703125,[0. 0. 0. 0. 0. 0. 0. 0. 0.],-0.03271484375,0.037109375,1.0029296875,[0. 0. 0. 0. 0. 0. 0. 0. 0.]
2.185377597808838,0.01542394608259201,0.019311964511871338,0.15643489360809326,0.9873790144920349,[0. 0. 0. 0. 0. 0. 0. 0. 0.],0.0,-0.54931640625,-0.06103515625,[0. 0. 0. 0. 0. 0. 0. 0. 0.],-0.033203125,0.03662109375,1.00341796875,[0. 0. 0. 0. 0. 0. 0. 0. 0.]
2.2007782459259033,0.015470092184841633,0.01880996860563755,0.15642580389976501,0.9873894453048706,[0. 0. 0. 0. 0. 0. 0. 0. 0.],-0.244140625,-0.79345703125,-0.1220703125,[0. 0. 0. 0. 0. 0. 0. 0. 0.],-0.033203125,0.03662109375,1.00390625,[0. 0. 0. 0. 0. 0. 0. 0. 0.]
2.2199316024780273,0.015174762345850468,0.019191056489944458,0.15638309717178345,0.9873934388160706,[0. 0. 0. 0. 0. 0. 0. 0. 0.],-0.18310546875,-0.8544921875,-0.18310546875,[0. 0. 0. 0. 0. 0. 0. 0. 0.],-0.03369140625,0.0361328125,1.0048828125,[0. 0. 0. 0. 0. 0. 0. 0. 0.]
2.240755081176758,0.014545729383826256,0.019946938380599022,0.15633781254291534,0.9873951077461243,[0. 0. 0. 0. 0. 0. 0. 0. 0.],-0.18310546875,-0.30517578125,-0.1220703125,[0. 0. 0. 0. 0. 0. 0. 0. 0.],-0.03466796875,0.03564453125,1.0029296875,[0. 0. 0. 0. 0. 0. 0. 0. 0.]
2.2602059841156006,0.015582488849759102,0.019150855019688606,0.15633897483348846,0.9873949289321899,[0. 0. 0. 0. 0. 0. 0. 0. 0.],0.1220703125,-0.244140625,-0.244140625,[0. 0. 0. 0. 0. 0. 0. 0. 0.],-0.03271484375,0.037109375,1.00341796875,[0. 0. 0. 0. 0. 0. 0. 0. 0.]
2.282590866088867,0.013991141691803932,0.01901412010192871,0.15627431869506836,0.9874315857887268,[0. 0. 0. 0. 0. 0. 0. 0. 0.],-0.244140625,-0.48828125,-0.244140625,[0. 0. 0. 0. 0. 0. 0. 0. 0.],-0.033203125,0.0341796875,1.00439453125,[0. 0. 0. 0. 0. 0. 0. 0. 0.]
2.300198793411255,0.014471160247921944,0.018970627337694168,0.15626160800457,0.9874275326728821,[0. 0. 0. 0. 0. 0. 0. 0. 0.],-0.1220703125,-1.0986328125,-0.18310546875,[0. 0. 0. 0. 0. 0. 0. 0. 0.],-0.033203125,0.03515625,1.0048828125,[0. 0. 0. 0. 0. 0. 0. 0. 0.]
2.3200981616973877,0.014795104041695595,0.018553955480456352,0.15624180436134338,0.9874337315559387,[0. 0. 0. 0. 0. 0. 0. 0. 0.],0.18310546875,-0.67138671875,-0.18310546875,[0. 0. 0. 0. 0. 0. 0. 0. 0.],-0.0322265625,0.03515625,1.00341796875,[0. 0. 0. 0. 0. 0. 0. 0. 0.]
2.341639757156372,0.015286114066839218,0.018368754535913467,0.15621797740459442,0.9874334931373596,[0. 0. 0. 0. 0. 0. 0. 0. 0.],0.0,-0.42724609375,-0.244140625,[0. 0. 0. 0. 0. 0. 0. 0. 0.],-0.03125,0.0361328125,1.00341796875,[0. 0. 0. 0. 0. 0. 0. 0. 0.]
2.3599724769592285,0.016005299985408783,0.018473822623491287,0.15619955956935883,0.9874231219291687,[0. 0. 0. 0. 0. 0. 0. 0. 0.],-0.244140625,-0.6103515625,-0.18310546875,[0. 0. 0. 0. 0. 0. 0. 0. 0.],-0.03173828125,0.03759765625,1.00537109375,[0. 0. 0. 0. 0. 0. 0. 0. 0.]
2.3768413066864014,0.01571658067405224,0.018931003287434578,0.15615807473659515,0.9874256253242493,[0. 0. 0. 0. 0. 0. 0. 0. 0.],-0.1220703125,-0.91552734375,0.0,[0. 0. 0. 0. 0. 0. 0. 0. 0.],-0.03369140625,0.03759765625,1.00439453125,[0. 0. 0. 0. 0. 0. 0. 0. 0.]
2.400012493133545,0.015866883099079132,0.019874490797519684,0.1561049520969391,0.9874130487442017,[0. 0. 0. 0. 0. 0. 0. 0. 0.],0.18310546875,-0.732421875,-0.244140625,[0. 0. 0. 0. 0. 0. 0. 0. 0.],-0.03466796875,0.03759765625,1.00341796875,[0. 0. 0. 0. 0. 0. 0. 0. 0.]
2.4204437732696533,0.015164920128881931,0.01863851770758629,0.1560973972082138,0.9874494671821594,[0. 0. 0. 0. 0. 0. 0. 0. 0.],-0.06103515625,-0.6103515625,-0.1220703125,[0. 0. 0. 0. 0. 0. 0. 0. 0.],-0.0322265625,0.03564453125,1.00390625,[0. 0. 0. 0. 0. 0. 0. 0. 0.]
2.4380080699920654,0.01496546994894743,0.01883646659553051,0.15606646239757538,0.9874535202980042,[0. 0. 0. 0. 0. 0. 0. 0. 0.],-0.42724609375,-0.42724609375,-0.18310546875,[0. 0. 0. 0. 0. 0. 0. 0. 0.],-0.03271484375,0.03564453125,1.00439453125,[0. 0. 0. 0. 0. 0. 0. 0. 0.]
2.4610118865966797,0.015311277471482754,0.019026923924684525,0.15604116022586823,0.9874485731124878,[0. 0. 0. 0. 0. 0. 0. 0. 0.],-0.06103515625,-0.54931640625,-0.06103515625,[0. 0. 0. 0. 0. 0. 0. 0. 0.],-0.033203125,0.0361328125,1.00390625,[0. 0. 0. 0. 0. 0. 0. 0. 0.]
2.4799866676330566,0.015159448608756065,0.019721033051609993,0.15598845481872559,0.987445592880249,[0. 0. 0. 0. 0. 0. 0. 0. 0.],0.18310546875,-0.67138671875,-0.18310546875,[0. 0. 0. 0. 0. 0. 0. 0. 0.],-0.0341796875,0.0361328125,1.00390625,[0. 0. 0. 0. 0. 0. 0. 0. 0.]
2.5002477169036865,0.014894712716341019,0.019506700336933136,0.15596874058246613,0.9874570369720459,[0. 0. 0. 0. 0. 0. 0. 0. 0.],-0.1220703125,-0.8544921875,-0.06103515625,[0. 0. 0. 0. 0. 0. 0. 0. 0.],-0.0341796875,0.0361328125,1.00537109375,[0. 0. 0. 0. 0. 0. 0. 0. 0.]
2.519925594329834,0.015104004181921482,0.01932390406727791,0.15595203638076782,0.987460196018219,[0. 0. 0. 0. 0. 0. 0. 0. 0.],-0.48828125,-0.67138671875,-0.18310546875,[0. 0. 0. 0. 0. 0. 0. 0. 0.],-0.033203125,0.03564453125,1.00341796875,[0. 0. 0. 0. 0. 0. 0. 0. 0.]
2.545062303543091,0.015001625753939152,0.018819278106093407,0.1559184044599533,0.9874768257141113,[0. 0. 0. 0. 0. 0. 0. 0. 0.],-0.1220703125,-0.54931640625,-0.244140625,[0. 0. 0. 0. 0. 0. 0. 0. 0.],-0.03173828125,0.03662109375,1.005859375,[0. 0. 0. 0. 0. 0. 0. 0. 0.]
2.5599114894866943,0.016051745042204857,0.020028505474328995,0.15588614344596863,0.9874415993690491,[0. 0. 0. 0. 0. 0. 0. 0. 0.],-0.06103515625,-0.18310546875,-0.18310546875,[0. 0. 0. 0. 0. 0. 0. 0. 0.],-0.03466796875,0.0380859375,1.00537109375,[0. 0. 0. 0. 0. 0. 0. 0. 0.]
2.5803561210632324,0.015110939741134644,0.01966743730008602,0.15584425628185272,0.987470269203186,[0. 0. 0. 0. 0. 0. 0. 0. 0.],-0.06103515625,-0.6103515625,-0.18310546875,[0. 0. 0. 0. 0. 0. 0. 0. 0.],-0.03369140625,0.03564453125,1.00244140625,[0. 0. 0. 0. 0. 0. 0. 0. 0.]
2.6001482009887695,0.015373477712273598,0.01871546171605587,0.15583577752113342,0.9874861240386963,[0. 0. 0. 0. 0. 0. 0. 0. 0.],-0.18310546875,-1.03759765625,-0.18310546875,[0. 0. 0. 0. 0. 0. 0. 0. 0.],-0.0322265625,0.037109375,1.00537109375,[0. 0. 0. 0. 0. 0. 0. 0. 0.]
2.6211090087890625,0.014811468310654163,0.019467849284410477,0.15577569603919983,0.9874895215034485,[0. 0. 0. 0. 0. 0. 0. 0. 0.],-0.1220703125,-0.732421875,-0.244140625,[0. 0. 0. 0. 0. 0. 0. 0. 0.],-0.03466796875,0.03515625,1.0068359375,[0. 0. 0. 0. 0. 0. 0. 0. 0.]
2.640082597732544,0.015209355391561985,0.019528882578015327,0.15575739741325378,0.9874852299690247,[0. 0. 0. 0. 0. 0. 0. 0. 0.],0.0,-0.30517578125,-0.1220703125,[0. 0. 0. 0. 0. 0. 0. 0. 0.],-0.0341796875,0.0361328125,1.00341796875,[0. 0. 0. 0. 0. 0. 0. 0. 0.]
2.6606385707855225,0.015282361768186092,0.019189249724149704,0.15573765337467194,0.9874938130378723,[0. 0. 0. 0. 0. 0. 0. 0. 0.],-0.3662109375,-0.54931640625,-0.18310546875,[0. 0. 0. 0. 0. 0. 0. 0. 0.],-0.033203125,0.037109375,1.0048828125,[0. 0. 0. 0. 0. 0. 0. 0. 0.]
2.679863929748535,0.015319525264203548,0.019246557727456093,0.1557120531797409,0.9874961376190186,[0. 0. 0. 0. 0. 0. 0. 0. 0.],-0.1220703125,-0.732421875,0.0,[0. 0. 0. 0. 0. 0. 0. 0. 0.],-0.03369140625,0.03662109375,1.00439453125,[0. 0. 0. 0. 0. 0. 0. 0. 0.]
2.7022502422332764,0.014501282945275307,0.01907072775065899,0.15567250549793243,0.9875181317329407,[0. 0. 0. 0. 0. 0. 0. 0. 0.],0.244140625,-0.79345703125,-0.18310546875,[0. 0. 0. 0. 0. 0. 0. 0. 0.],-0.03369140625,0.0341796875,1.00634765625,[0. 0. 0. 0. 0. 0. 0. 0. 0.]
2.72012996673584,0.015252267941832542,0.018618689849972725,0.15566056966781616,0.9875172972679138,[0. 0. 0. 0. 0. 0. 0. 0. 0.],0.1220703125,-0.6103515625,-0.244140625,[0. 0. 0. 0. 0. 0. 0. 0. 0.],-0.0322265625,0.0361328125,1.00390625,[0. 0. 0. 0. 0. 0. 0. 0. 0.]
2.740316867828369,0.015026803128421307,0.018873972818255424,0.15562808513641357,0.9875211119651794,[0. 0. 0. 0. 0. 0. 0. 0. 0.],-0.42724609375,-0.54931640625,-0.244140625,[0. 0. 0. 0. 0. 0. 0. 0. 0.],-0.0322265625,0.03564453125,1.0048828125,[0. 0. 0. 0. 0. 0. 0. 0. 0.]
2.7602438926696777,0.014839420095086098,0.01772385649383068,0.15561217069625854,0.987547755241394,[0. 0. 0. 0. 0. 0. 0. 0. 0.],-0.18310546875,-0.48828125,-0.06103515625,[0. 0. 0. 0. 0. 0. 0. 0. 0.],-0.03076171875,0.03515625,1.00537109375,[0. 0. 0. 0. 0. 0. 0. 0. 0.]
2.7810091972351074,0.014820980839431286,0.019145367667078972,0.15554825961589813,0.9875315427780151,[0. 0. 0. 0. 0. 0. 0. 0. 0.],0.30517578125,-0.6103515625,-0.18310546875,[0. 0. 0. 0. 0. 0. 0. 0. 0.],-0.0341796875,0.03564453125,1.0048828125,[0. 0. 0. 0. 0. 0. 0. 0. 0.]
2.799968957901001,0.01486247405409813,0.01899711601436138,0.15551404654979706,0.9875391125679016,[0. 0. 0. 0. 0. 0. 0. 0. 0.],0.1220703125,-0.9765625,-0.1220703125,[0. 0. 0. 0. 0. 0. 0. 0. 0.],-0.03369140625,0.03515625,1.00341796875,[0. 0. 0. 0. 0. 0. 0. 0. 0.]
2.8199241161346436,0.014885547570884228,0.019466709345579147,0.15547987818717957,0.9875350594520569,[0. 0. 0. 0. 0. 0. 0. 0. 0.],-0.30517578125,-0.91552734375,-0.244140625,[0. 0. 0. 0. 0. 0. 0. 0. 0.],-0.0341796875,0.03564453125,1.00439453125,[0. 0. 0. 0. 0. 0. 0. 0. 0.]
2.8403127193450928,0.015432831831276417,0.019530778750777245,0.15547436475753784,0.9875262379646301,[0. 0. 0. 0. 0. 0. 0. 0. 0.],-0.3662109375,-0.3662109375,-0.1220703125,[0. 0. 0. 0. 0. 0. 0. 0. 0.],-0.0341796875,0.03662109375,1.00439453125,[0. 0. 0. 0. 0. 0. 0. 0. 0.]
2.8602817058563232,0.015173974446952343,0.01913880743086338,0.15545156598091125,0.9875415563583374,[0. 0. 0. 0. 0. 0. 0. 0. 0.],0.06103515625,-0.3662109375,-0.18310546875,[0. 0. 0. 0. 0. 0. 0. 0. 0.],-0.033203125,0.0361328125,1.00341796875,[0. 0. 0. 0. 0. 0. 0. 0. 0.]
2.8799617290496826,0.014311102218925953,0.01849481277167797,0.1554224193096161,0.9875712394714355,[0. 0. 0. 0. 0. 0. 0. 0. 0.],0.18310546875,-0.79345703125,-0.18310546875,[0. 0. 0. 0. 0. 0. 0. 0. 0.],-0.0322265625,0.0341796875,1.00439453125,[0. 0. 0. 0. 0. 0. 0. 0. 0.]
2.9000449180603027,0.014542391523718834,0.018518170341849327,0.15538780391216278,0.987572968006134,[0. 0. 0. 0. 0. 0. 0. 0. 0.],-0.244140625,-0.9765625,-0.244140625,[0. 0. 0. 0. 0. 0. 0. 0. 0.],-0.0322265625,0.03515625,1.005859375,[0. 0. 0. 0. 0. 0. 0. 0. 0.]
2.919983386993408,0.01499252114444971,0.01916700229048729,0.15534910559654236,0.9875599145889282,[0. 0. 0. 0. 0. 0. 0. 0. 0.],-0.18310546875,-0.67138671875,-0.244140625,[0. 0. 0. 0. 0. 0. 0. 0. 0.],-0.03271484375,0.03515625,1.0029296875,[0. 0. 0. 0. 0. 0. 0. 0. 0.]
2.942129611968994,0.014726345427334309,0.019279103726148605,0.15532571077346802,0.9875653982162476,[0. 0. 0. 0. 0. 0. 0. 0. 0.],0.06103515625,-0.18310546875,-0.18310546875,[0. 0. 0. 0. 0. 0. 0. 0. 0.],-0.033203125,0.03515625,1.0029296875,[0. 0. 0. 0. 0. 0. 0. 0. 0.]
2.9604008197784424,0.014954711310565472,0.019125565886497498,0.15530751645565033,0.9875677824020386,[0. 0. 0. 0. 0. 0. 0. 0. 0.],-0.1220703125,-0.67138671875,0.0,[0. 0. 0. 0. 0. 0. 0. 0. 0.],-0.03271484375,0.03564453125,1.00537109375,[0. 0. 0. 0. 0. 0. 0. 0. 0.]
2.9803261756896973,0.014501679688692093,0.018295902758836746,0.15528015792369843,0.9875946640968323,[0. 0. 0. 0. 0. 0. 0. 0. 0.],-0.1220703125,-1.15966796875,-0.1220703125,[0. 0. 0. 0. 0. 0. 0. 0. 0.],-0.03125,0.03466796875,1.005859375,[0. 0. 0. 0. 0. 0. 0. 0. 0.]
3.000192165374756,0.014709509909152985,0.01994006521999836,0.15524068474769592,0.9875659346580505,[0. 0. 0. 0. 0. 0. 0. 0. 0.],0.18310546875,-0.8544921875,-0.1220703125,[0. 0. 0. 0. 0. 0. 0. 0. 0.],-0.03564453125,0.03564453125,1.00439453125,[0. 0. 0. 0. 0. 0. 0. 0. 0.]
3.0210700035095215,0.015046237036585808,0.019091058522462845,0.15522992610931396,0.987579345703125,[0. 0. 0. 0. 0. 0. 0. 0. 0.],0.18310546875,-0.732421875,-0.18310546875,[0. 0. 0. 0. 0. 0. 0. 0. 0.],-0.033203125,0.03564453125,1.00390625,[0. 0. 0. 0. 0. 0. 0. 0. 0.]
3.0403971672058105,0.014483049511909485,0.01842586323618889,0.15520250797271729,0.9876047372817993,[0. 0. 0. 0. 0. 0. 0. 0. 0.],-0.3662109375,-0.54931640625,-0.18310546875,[0. 0. 0. 0. 0. 0. 0. 0. 0.],-0.0322265625,0.03466796875,1.00732421875,[0. 0. 0. 0. 0. 0. 0. 0. 0.]
3.055182456970215,0.012149746529757977,0.017336515709757805,0.15513472259044647,0.9876665472984314,[0. 0. 0. 0. 0. 0. 0. 0. 0.],-10.25390625,1.220703125,0.42724609375,[0. 0. 0. 0. 0. 0. 0. 0. 0.],-0.0244140625,-0.08837890625,0.92333984375,[0. 0. 0. 0. 0. 0. 0. 0. 0.]
3.0843863487243652,0.008718878962099552,0.01703420840203762,0.15509101748466492,0.9877148270606995,[0. 0. 0. 0. 0. 0. 0. 0. 0.],-2.13623046875,-0.91552734375,-0.91552734375,[0. 0. 0. 0. 0. 0. 0. 0. 0.],-0.01611328125,-0.2041015625,1.0927734375,[0. 0. 0. 0. 0. 0. 0. 0. 0.]
3.1006219387054443,0.006047544069588184,0.01735084131360054,0.15527674555778503,0.9877001643180847,[0. 0. 0. 0. 0. 0. 0. 0. 0.],-5.9814453125,7.6904296875,2.13623046875,[0. 0. 0. 0. 0. 0. 0. 0. 0.],-0.0576171875,-0.28173828125,1.01904296875,[0. 0. 0. 0. 0. 0. 0. 0. 0.]
3.120027542114258,0.0076548317447304726,0.01700666733086109,0.15550217032432556,0.9876595139503479,[0. 0. 0. 0. 0. 0. 0. 0. 0.],16.90673828125,-3.7841796875,1.8310546875,[0. 0. 0. 0. 0. 0. 0. 0. 0.],-0.0439453125,0.14208984375,1.1123046875,[0. 0. 0. 0. 0. 0. 0. 0. 0.]
3.1407470703125,0.008279616944491863,0.017084678635001183,0.15561836957931519,0.9876348376274109,[0. 0. 0. 0. 0. 0. 0. 0. 0.],-4.7607421875,4.08935546875,0.1220703125,[0. 0. 0. 0. 0. 0. 0. 0. 0.],0.0166015625,-0.025390625,0.86767578125,[0. 0. 0. 0. 0. 0. 0. 0. 0.]
3.1631131172180176,0.005215567070990801,0.016621550545096397,0.15556807816028595,0.9876716136932373,[0. 0. 0. 0. 0. 0. 0. 0. 0.],-15.9912109375,0.67138671875,0.54931640625,[0. 0. 0. 0. 0. 0. 0. 0. 0.],-0.06396484375,-0.05126953125,0.935546875,[0. 0. 0. 0. 0. 0. 0. 0. 0.]
3.1802380084991455,0.0025355888064950705,0.016227824613451958,0.1557542383670807,0.9876592755317688,[0. 0. 0. 0. 0. 0. 0. 0. 0.],-0.54931640625,-4.5166015625,1.89208984375,[0. 0. 0. 0. 0. 0. 0. 0. 0.],-0.037109375,-0.2529296875,1.1142578125,[0. 0. 0. 0. 0. 0. 0. 0. 0.]
3.202608108520508,0.0014927058946341276,0.015884362161159515,0.1557851880788803,0.9876620769500732,[0. 0. 0. 0. 0. 0. 0. 0. 0.],13.61083984375,-4.82177734375,-1.708984375,[0. 0. 0. 0. 0. 0. 0. 0. 0.],0.0029296875,-0.07763671875,1.1611328125,[0. 0. 0. 0. 0. 0. 0. 0. 0.]
3.220472812652588,0.0028017789591103792,0.016421468928456306,0.1560373455286026,0.9876106977462769,[0. 0. 0. 0. 0. 0. 0. 0. 0.],-12.3291015625,3.23486328125,1.64794921875,[0. 0. 0. 0. 0. 0. 0. 0. 0.],-0.06201171875,-0.00830078125,0.7734375,[0. 0. 0. 0. 0. 0. 0. 0. 0.]
3.240767240524292,-0.0005714134313166142,0.016122620552778244,0.1562742441892624,0.9875819683074951,[0. 0. 0. 0. 0. 0. 0. 0. 0.],-12.5732421875,4.69970703125,2.0751953125,[0. 0. 0. 0. 0. 0. 0. 0. 0.],-0.03662109375,-0.23095703125,0.9072265625,[0. 0. 0. 0. 0. 0. 0. 0. 0.]
3.2603251934051514,-0.00288688694126904,0.015896908938884735,0.15636661648750305,0.9875669479370117,[0. 0. 0. 0. 0. 0. 0. 0. 0.],3.11279296875,-2.3193359375,0.06103515625,[0. 0. 0. 0. 0. 0. 0. 0. 0.],-0.0224609375,-0.248046875,1.16357421875,[0. 0. 0. 0. 0. 0. 0. 0. 0.]
3.2781519889831543,-0.004367742221802473,0.015977991744875908,0.15676723420619965,0.9874967336654663,[0. 0. 0. 0. 0. 0. 0. 0. 0.],9.94873046875,-1.46484375,2.0751953125,[0. 0. 0. 0. 0. 0. 0. 0. 0.],-0.02392578125,-0.17041015625,1.0595703125,[0. 0. 0. 0. 0. 0. 0. 0. 0.]
3.300311326980591,-0.0016948278062045574,0.016148101538419724,0.15707992017269135,0.9874523878097534,[0. 0. 0. 0. 0. 0. 0. 0. 0.],-1.28173828125,6.28662109375,2.74658203125,[0. 0. 0. 0. 0. 0. 0. 0. 0.],-0.0244140625,0.1083984375,0.935546875,[0. 0. 0. 0. 0. 0. 0. 0. 0.]
3.3203399181365967,-0.003697335487231612,0.015854649245738983,0.1573963612318039,0.9874013662338257,[0. 0. 0. 0. 0. 0. 0. 0. 0.],-4.82177734375,-8.7890625,0.6103515625,[0. 0. 0. 0. 0. 0. 0. 0. 0.],-0.06005859375,-0.1875,0.8427734375,[0. 0. 0. 0. 0. 0. 0. 0. 0.]
3.3404576778411865,-0.006848728749901056,0.015460606664419174,0.15782909095287323,0.987321674823761,[0. 0. 0. 0. 0. 0. 0. 0. 0.],-0.732421875,0.06103515625,2.8076171875,[0. 0. 0. 0. 0. 0. 0. 0. 0.],-0.05126953125,-0.232421875,1.0888671875,[0. 0. 0. 0. 0. 0. 0. 0. 0.]
3.360398054122925,-0.007955839857459068,0.015120180323719978,0.15832039713859558,0.9872398972511292,[0. 0. 0. 0. 0. 0. 0. 0. 0.],4.0283203125,-4.150390625,2.9296875,[0. 0. 0. 0. 0. 0. 0. 0. 0.],-0.0625,-0.13232421875,1.0810546875,[0. 0. 0. 0. 0. 0. 0. 0. 0.]
3.377643346786499,-0.009687083773314953,0.014560623094439507,0.15880869328975677,0.9871545433998108,[0. 0. 0. 0. 0. 0. 0. 0. 0.],-1.0986328125,-1.0986328125,2.01416015625,[0. 0. 0. 0. 0. 0. 0. 0. 0.],-0.00244140625,-0.1787109375,0.8916015625,[0. 0. 0. 0. 0. 0. 0. 0. 0.]
3.395164966583252,-0.011343258433043957,0.013741238042712212,0.1588621586561203,0.9871399998664856,[0. 0. 0. 0. 0. 0. 0. 0. 0.],-1.15966796875,3.5400390625,1.220703125,[0. 0. 0. 0. 0. 0. 0. 0. 0.],0.04833984375,-0.18310546875,1.0478515625,[0. 0. 0. 0. 0. 0. 0. 0. 0.]
3.4199929237365723,-0.012202191166579723,0.013278059661388397,0.1587769091129303,0.9871498346328735,[0. 0. 0. 0. 0. 0. 0. 0. 0.],4.39453125,0.3662109375,1.15966796875,[0. 0. 0. 0. 0. 0. 0. 0. 0.],0.00537109375,-0.19384765625,1.04931640625,[0. 0. 0. 0. 0. 0. 0. 0. 0.]
3.4404540061950684,-0.013889716006815434,0.012965891510248184,0.1588558405637741,0.9871189594268799,[0. 0. 0. 0. 0. 0. 0. 0. 0.],-0.18310546875,-1.52587890625,1.15966796875,[0. 0. 0. 0. 0. 0. 0. 0. 0.],-0.041015625,-0.15478515625,0.93505859375,[0. 0. 0. 0. 0. 0. 0. 0. 0.]
3.460217237472534,-0.016455484554171562,0.013054612092673779,0.15922695398330688,0.9870185852050781,[0. 0. 0. 0. 0. 0. 0. 0. 0.],-4.150390625,-0.67138671875,2.74658203125,[0. 0. 0. 0. 0. 0. 0. 0. 0.],-0.080078125,-0.18994140625,0.95556640625,[0. 0. 0. 0. 0. 0. 0. 0. 0.]
3.4798712730407715,-0.019187362864613533,0.01280440017580986,0.15987376868724823,0.9868679046630859,[0. 0. 0. 0. 0. 0. 0. 0. 0.],-3.47900390625,-5.43212890625,3.2958984375,[0. 0. 0. 0. 0. 0. 0. 0. 0.],-0.076171875,-0.2734375,1.0068359375,[0. 0. 0. 0. 0. 0. 0. 0. 0.]
3.5003738403320312,-0.02113664522767067,0.01201409287750721,0.16056327521800995,0.9867261052131653,[0. 0. 0. 0. 0. 0. 0. 0. 0.],1.89208984375,-4.5166015625,4.69970703125,[0. 0. 0. 0. 0. 0. 0. 0. 0.],-0.095703125,-0.28662109375,1.04833984375,[0. 0. 0. 0. 0. 0. 0. 0. 0.]
3.520888090133667,-0.02207052893936634,0.011916358023881912,0.16122305393218994,0.9865992665290833,[0. 0. 0. 0. 0. 0. 0. 0. 0.],2.74658203125,-0.30517578125,0.732421875,[0. 0. 0. 0. 0. 0. 0. 0. 0.],-0.00146484375,-0.19873046875,1.0341796875,[0. 0. 0. 0. 0. 0. 0. 0. 0.]
3.540513277053833,-0.02406136691570282,0.011700774542987347,0.16035984456539154,0.9866960048675537,[0. 0. 0. 0. 0. 0. 0. 0. 0.],-5.615234375,6.77490234375,-7.87353515625,[0. 0. 0. 0. 0. 0. 0. 0. 0.],-0.0146484375,-0.11279296875,0.86669921875,[0. 0. 0. 0. 0. 0. 0. 0. 0.]
3.5625417232513428,-0.027054758742451668,0.013246766291558743,0.15790733695030212,0.9869943261146545,[0. 0. 0. 0. 0. 0. 0. 0. 0.],-5.37109375,12.0849609375,-16.54052734375,[0. 0. 0. 0. 0. 0. 0. 0. 0.],-0.06689453125,-0.13671875,0.9638671875,[0. 0. 0. 0. 0. 0. 0. 0. 0.]
3.579991102218628,-0.029133828356862068,0.016283975914120674,0.15428461134433746,0.9874626398086548,[0. 0. 0. 0. 0. 0. 0. 0. 0.],2.38037109375,8.23974609375,-21.8505859375,[0. 0. 0. 0. 0. 0. 0. 0. 0.],-0.1708984375,-0.13232421875,1.00927734375,[0. 0. 0. 0. 0. 0. 0. 0. 0.]
3.601133346557617,-0.029291542246937752,0.01802968420088291,0.14969372749328613,0.9881340265274048,[0. 0. 0. 0. 0. 0. 0. 0. 0.],5.9814453125,-2.99072265625,-30.57861328125,[0. 0. 0. 0. 0. 0. 0. 0. 0.],-0.21484375,-0.0576171875,1.10009765625,[0. 0. 0. 0. 0. 0. 0. 0. 0.]
3.620303153991699,-0.027434008195996284,0.019445477053523064,0.14334999024868011,0.9891006350517273,[0. 0. 0. 0. 0. 0. 0. 0. 0.],8.1787109375,-2.44140625,-41.32080078125,[0. 0. 0. 0. 0. 0. 0. 0. 0.],-0.0859375,0.072265625,1.1416015625,[0. 0. 0. 0. 0. 0. 0. 0. 0.]
3.641099452972412,-0.025802507996559143,0.020473536103963852,0.13551963865756989,0.9902270436286926,[0. 0. 0. 0. 0. 0. 0. 0. 0.],-2.197265625,8.60595703125,-48.15673828125,[0. 0. 0. 0. 0. 0. 0. 0. 0.],-0.08349609375,0.154296875,0.88671875,[0. 0. 0. 0. 0. 0. 0. 0. 0.]
3.6601665019989014,-0.024882722645998,0.022384189069271088,0.12641271948814392,0.9914129972457886,[0. 0. 0. 0. 0. 0. 0. 0. 0.],1.5869140625,6.28662109375,-55.5419921875,[0. 0. 0. 0. 0. 0. 0. 0. 0.],-0.107421875,0.126953125,0.947265625,[0. 0. 0. 0. 0. 0. 0. 0. 0.]
3.6800522804260254,-0.021404346451163292,0.023720968514680862,0.11635639518499374,0.9926935434341431,[0. 0. 0. 0. 0. 0. 0. 0. 0.],16.7236328125,1.46484375,-58.2275390625,[0. 0. 0. 0. 0. 0. 0. 0. 0.],-0.146484375,0.076171875,1.20068359375,[0. 0. 0. 0. 0. 0. 0. 0. 0.]
3.7001209259033203,-0.019123973324894905,0.02420484833419323,0.10644714534282684,0.9938397407531738,[0. 0. 0. 0. 0. 0. 0. 0. 0.],0.79345703125,-2.197265625,-56.45751953125,[0. 0. 0. 0. 0. 0. 0. 0. 0.],-0.14892578125,0.15380859375,0.91796875,[0. 0. 0. 0. 0. 0. 0. 0. 0.]
3.7151119709014893,-0.01800033636391163,0.025185054168105125,0.0967903807759285,0.9948233962059021,[0. 0. 0. 0. 0. 0. 0. 0. 0.],-0.18310546875,6.2255859375,-55.23681640625,[0. 0. 0. 0. 0. 0. 0. 0. 0.],-0.08935546875,0.12158203125,0.970703125,[0. 0. 0. 0. 0. 0. 0. 0. 0.]
3.7409603595733643,-0.01694684661924839,0.027025524526834488,0.0875164195895195,0.9956521987915039,[0. 0. 0. 0. 0. 0. 0. 0. 0.],0.6103515625,4.69970703125,-52.67333984375,[0. 0. 0. 0. 0. 0. 0. 0. 0.],-0.13232421875,0.08203125,0.99169921875,[0. 0. 0. 0. 0. 0. 0. 0. 0.]
3.760010004043579,-0.016125446185469627,0.028061335906386375,0.07849330455064774,0.9963891506195068,[0. 0. 0. 0. 0. 0. 0. 0. 0.],-1.5869140625,-3.90625,-52.18505859375,[0. 0. 0. 0. 0. 0. 0. 0. 0.],-0.193359375,0.0986328125,0.92529296875,[0. 0. 0. 0. 0. 0. 0. 0. 0.]
3.779729127883911,-0.015100911259651184,0.028588540852069855,0.06950102001428604,0.9970578551292419,[0. 0. 0. 0. 0. 0. 0. 0. 0.],-0.42724609375,-0.42724609375,-51.69677734375,[0. 0. 0. 0. 0. 0. 0. 0. 0.],-0.09765625,0.09033203125,1.01513671875,[0. 0. 0. 0. 0. 0. 0. 0. 0.]
3.800020694732666,-0.013031735084950924,0.02862461283802986,0.06069454923272133,0.9976608753204346,[0. 0. 0. 0. 0. 0. 0. 0. 0.],6.40869140625,-0.67138671875,-49.8046875,[0. 0. 0. 0. 0. 0. 0. 0. 0.],-0.06201171875,0.07177734375,1.15673828125,[0. 0. 0. 0. 0. 0. 0. 0. 0.]
3.820000648498535,-0.010549399070441723,0.02845887281000614,0.05258876830339432,0.9981549978256226,[0. 0. 0. 0. 0. 0. 0. 0. 0.],6.77490234375,-5.7373046875,-44.98291015625,[0. 0. 0. 0. 0. 0. 0. 0. 0.],-0.09033203125,0.0625,1.04443359375,[0. 0. 0. 0. 0. 0. 0. 0. 0.]
3.839891195297241,-0.008884410373866558,0.027922743931412697,0.04565010219812393,0.9985276460647583,[0. 0. 0. 0. 0. 0. 0. 0. 0.],0.18310546875,-8.23974609375,-36.68212890625,[0. 0. 0. 0. 0. 0. 0. 0. 0.],-0.08984375,0.078125,0.88330078125,[0. 0. 0. 0. 0. 0. 0. 0. 0.]
3.8602144718170166,-0.0072996774688363075,0.02714192494750023,0.04025829955935478,0.9987939596176147,[0. 0. 0. 0. 0. 0. 0. 0. 0.],-0.3662109375,-4.0283203125,-27.28271484375,[0. 0. 0. 0. 0. 0. 0. 0. 0.],-0.05224609375,0.0517578125,0.93701171875,[0. 0. 0. 0. 0. 0. 0. 0. 0.]
3.8798818588256836,-0.0058912537060678005,0.026622258126735687,0.03647121414542198,0.9989626407623291,[0. 0. 0. 0. 0. 0. 0. 0. 0.],-1.64794921875,-2.13623046875,-18.6767578125,[0. 0. 0. 0. 0. 0. 0. 0. 0.],-0.04150390625,0.0478515625,0.97802734375,[0. 0. 0. 0. 0. 0. 0. 0. 0.]
3.899866819381714,-0.004773850552737713,0.026059361174702644,0.034170594066381454,0.9990648627281189,[0. 0. 0. 0. 0. 0. 0. 0. 0.],-4.0283203125,-2.197265625,-10.498046875,[0. 0. 0. 0. 0. 0. 0. 0. 0.],-0.04541015625,0.04443359375,0.97509765625,[0. 0. 0. 0. 0. 0. 0. 0. 0.]
3.9203200340270996,-0.003432059660553932,0.024998271837830544,0.03335127606987953,0.9991251826286316,[0. 0. 0. 0. 0. 0. 0. 0. 0.],3.23486328125,4.45556640625,-1.64794921875,[0. 0. 0. 0. 0. 0. 0. 0. 0.],-0.001953125,0.0205078125,1.041015625,[0. 0. 0. 0. 0. 0. 0. 0. 0.]
3.935559034347534,-0.001334413536824286,0.02370084822177887,0.0340263806283474,0.9991390705108643,[0. 0. 0. 0. 0. 0. 0. 0. 0.],-0.67138671875,-10.68115234375,6.8359375,[0. 0. 0. 0. 0. 0. 0. 0. 0.],-0.06884765625,0.119140625,1.00341796875,[0. 0. 0. 0. 0. 0. 0. 0. 0.]
3.9588589668273926,-2.0871433662250638e-05,0.022429117932915688,0.03626646474003792,0.9990904331207275,[0. 0. 0. 0. 0. 0. 0. 0. 0.],-4.57763671875,-2.74658203125,15.380859375,[0. 0. 0. 0. 0. 0. 0. 0. 0.],-0.02490234375,0.1220703125,1.05712890625,[0. 0. 0. 0. 0. 0. 0. 0. 0.]
3.9801583290100098,0.0019595215562731028,0.020792281255126,0.03979986906051636,0.998989462852478,[0. 0. 0. 0. 0. 0. 0. 0. 0.],8.056640625,-11.65771484375,23.01025390625,[0. 0. 0. 0. 0. 0. 0. 0. 0.],0.0048828125,0.18603515625,1.15869140625,[0. 0. 0. 0. 0. 0. 0. 0. 0.]
4.000615119934082,0.003869075560942292,0.019374921917915344,0.04480661079287529,0.9988003373146057,[0. 0. 0. 0. 0. 0. 0. 0. 0.],5.18798828125,-9.33837890625,30.6396484375,[0. 0. 0. 0. 0. 0. 0. 0. 0.],-0.0087890625,0.1669921875,0.96337890625,[0. 0. 0. 0. 0. 0. 0. 0. 0.]
4.020005941390991,0.007086452562361956,0.017724787816405296,0.050864093005657196,0.9985231757164001,[0. 0. 0. 0. 0. 0. 0. 0. 0.],1.953125,-2.5634765625,37.109375,[0. 0. 0. 0. 0. 0. 0. 0. 0.],0.00927734375,0.3203125,0.87060546875,[0. 0. 0. 0. 0. 0. 0. 0. 0.]
4.039923906326294,0.009251357056200504,0.017480237409472466,0.057503122836351395,0.9981493949890137,[0. 0. 0. 0. 0. 0. 0. 0. 0.],0.18310546875,4.5166015625,37.4755859375,[0. 0. 0. 0. 0. 0. 0. 0. 0.],0.05029296875,0.32470703125,0.9580078125,[0. 0. 0. 0. 0. 0. 0. 0. 0.]
4.061357498168945,0.010924449190497398,0.01766216941177845,0.06421799212694168,0.9977197647094727,[0. 0. 0. 0. 0. 0. 0. 0. 0.],2.8076171875,3.23486328125,36.92626953125,[0. 0. 0. 0. 0. 0. 0. 0. 0.],0.01904296875,0.333984375,1.06005859375,[0. 0. 0. 0. 0. 0. 0. 0. 0.]
4.0799407958984375,0.012728026136755943,0.017603082582354546,0.0704193115234375,0.9972808957099915,[0. 0. 0. 0. 0. 0. 0. 0. 0.],3.96728515625,-4.08935546875,34.24072265625,[0. 0. 0. 0. 0. 0. 0. 0. 0.],-0.0224609375,0.31494140625,1.09375,[0. 0. 0. 0. 0. 0. 0. 0. 0.]
4.100133657455444,0.014861032366752625,0.01729886792600155,0.07582694292068481,0.9968602061271667,[0. 0. 0. 0. 0. 0. 0. 0. 0.],4.21142578125,-1.28173828125,29.72412109375,[0. 0. 0. 0. 0. 0. 0. 0. 0.],-0.0166015625,0.287109375,1.03271484375,[0. 0. 0. 0. 0. 0. 0. 0. 0.]
4.119869947433472,0.01675618439912796,0.016877349466085434,0.08040700107812881,0.9964784383773804,[0. 0. 0. 0. 0. 0. 0. 0. 0.],-0.48828125,-2.50244140625,24.96337890625,[0. 0. 0. 0. 0. 0. 0. 0. 0.],-0.05810546875,0.28271484375,0.9384765625,[0. 0. 0. 0. 0. 0. 0. 0. 0.]
4.1362385749816895,0.01835869438946247,0.016352586448192596,0.08459115028381348,0.9961124062538147,[0. 0. 0. 0. 0. 0. 0. 0. 0.],-0.732421875,-5.37109375,23.5595703125,[0. 0. 0. 0. 0. 0. 0. 0. 0.],-0.072265625,0.27099609375,0.95654296875,[0. 0. 0. 0. 0. 0. 0. 0. 0.]
4.160216808319092,0.019920332357287407,0.015577062964439392,0.08820570260286331,0.9957813024520874,[0. 0. 0. 0. 0. 0. 0. 0. 0.],1.15966796875,-3.96728515625,19.6533203125,[0. 0. 0. 0. 0. 0. 0. 0. 0.],-0.00830078125,0.26953125,1.02783203125,[0. 0. 0. 0. 0. 0. 0. 0. 0.]
4.180114984512329,0.021725470200181007,0.014725277200341225,0.09115704894065857,0.9954906105995178,[0. 0. 0. 0. 0. 0. 0. 0. 0.],0.0,-1.5869140625,14.70947265625,[0. 0. 0. 0. 0. 0. 0. 0. 0.],0.0419921875,0.2626953125,1.0439453125,[0. 0. 0. 0. 0. 0. 0. 0. 0.]
4.201419830322266,0.022728320211172104,0.014508460648357868,0.093361034989357,0.9952671527862549,[0. 0. 0. 0. 0. 0. 0. 0. 0.],-3.90625,-1.46484375,11.962890625,[0. 0. 0. 0. 0. 0. 0. 0. 0.],0.0029296875,0.2392578125,0.98046875,[0. 0. 0. 0. 0. 0. 0. 0. 0.]
4.221784353256226,0.02237211912870407,0.015693701803684235,0.09578223526477814,0.9950271248817444,[0. 0. 0. 0. 0. 0. 0. 0. 0.],-2.9296875,0.6103515625,14.22119140625,[0. 0. 0. 0. 0. 0. 0. 0. 0.],-0.06201171875,0.0390625,1.0107421875,[0. 0. 0. 0. 0. 0. 0. 0. 0.]
4.2408287525177,0.020729485899209976,0.016039090231060982,0.09822292625904083,0.9948192834854126,[0. 0. 0. 0. 0. 0. 0. 0. 0.],4.150390625,-4.8828125,13.671875,[0. 0. 0. 0. 0. 0. 0. 0. 0.],-0.03857421875,0.01806640625,1.08349609375,[0. 0. 0. 0. 0. 0. 0. 0. 0.]
4.2602503299713135,0.02178289368748665,0.015186917968094349,0.10041216015815735,0.9945915341377258,[0. 0. 0. 0. 0. 0. 0. 0. 0.],-3.5400390625,2.25830078125,11.29150390625,[0. 0. 0. 0. 0. 0. 0. 0. 0.],0.00537109375,0.03271484375,0.935546875,[0. 0. 0. 0. 0. 0. 0. 0. 0.]
4.279901742935181,0.018925346434116364,0.014366354793310165,0.10234830528497696,0.9944648742675781,[0. 0. 0. 0. 0. 0. 0. 0. 0.],-4.0283203125,-1.77001953125,11.71875,[0. 0. 0. 0. 0. 0. 0. 0. 0.],-0.0283203125,-0.11474609375,0.98046875,[0. 0. 0. 0. 0. 0. 0. 0. 0.]
4.300102710723877,0.016753114759922028,0.013634239323437214,0.10462974011898041,0.9942767024040222,[0. 0. 0. 0. 0. 0. 0. 0. 0.],-1.5869140625,-2.9296875,13.24462890625,[0. 0. 0. 0. 0. 0. 0. 0. 0.],0.0087890625,-0.17626953125,1.0322265625,[0. 0. 0. 0. 0. 0. 0. 0. 0.]
4.319934129714966,0.014985249377787113,0.013250380754470825,0.10719102621078491,0.9940371513366699,[0. 0. 0. 0. 0. 0. 0. 0. 0.],1.3427734375,5.0048828125,15.44189453125,[0. 0. 0. 0. 0. 0. 0. 0. 0.],0.01953125,-0.189453125,1.00830078125,[0. 0. 0. 0. 0. 0. 0. 0. 0.]
4.339960813522339,0.013481234200298786,0.013087872415781021,0.11036393791437149,0.9937137365341187,[0. 0. 0. 0. 0. 0. 0. 0. 0.],-1.89208984375,-1.708984375,19.53125,[0. 0. 0. 0. 0. 0. 0. 0. 0.],-0.04833984375,-0.18115234375,0.98291015625,[0. 0. 0. 0. 0. 0. 0. 0. 0.]
4.360298156738281,0.010697267949581146,0.012538129463791847,0.11414115875959396,0.9933278560638428,[0. 0. 0. 0. 0. 0. 0. 0. 0.],-6.7138671875,1.40380859375,24.35302734375,[0. 0. 0. 0. 0. 0. 0. 0. 0.],-0.0048828125,-0.23779296875,0.91650390625,[0. 0. 0. 0. 0. 0. 0. 0. 0.]
4.380112886428833,0.007691620849072933,0.012396062724292278,0.11879352480173111,0.9928118586540222,[0. 0. 0. 0. 0. 0. 0. 0. 0.],-5.615234375,0.9765625,28.62548828125,[0. 0. 0. 0. 0. 0. 0. 0. 0.],-0.02197265625,-0.28466796875,0.9833984375,[0. 0. 0. 0. 0. 0. 0. 0. 0.]
4.401604175567627,0.00540697667747736,0.01140283327549696,0.12422087043523788,0.9921743869781494,[0. 0. 0. 0. 0. 0. 0. 0. 0.],-2.5634765625,-4.150390625,33.75244140625,[0. 0. 0. 0. 0. 0. 0. 0. 0.],-0.0361328125,-0.298828125,1.0029296875,[0. 0. 0. 0. 0. 0. 0. 0. 0.]
4.419990539550781,0.003735239151865244,0.010906478390097618,0.13044969737529755,0.9913879036903381,[0. 0. 0. 0. 0. 0. 0. 0. 0.],2.8076171875,-2.86865234375,37.17041015625,[0. 0. 0. 0. 0. 0. 0. 0. 0.],0.00341796875,-0.333984375,1.09326171875,[0. 0. 0. 0. 0. 0. 0. 0. 0.]
4.440055847167969,0.003253454575315118,0.009730632416903973,0.1373598426580429,0.9904681444168091,[0. 0. 0. 0. 0. 0. 0. 0. 0.],2.86865234375,-5.0048828125,41.93115234375,[0. 0. 0. 0. 0. 0. 0. 0. 0.],-0.00732421875,-0.29931640625,1.01806640625,[0. 0. 0. 0. 0. 0. 0. 0. 0.]
4.455632209777832,0.0024666546378284693,0.008166870102286339,0.14501385390758514,0.989392876625061,[0. 0. 0. 0. 0. 0. 0. 0. 0.],4.82177734375,-7.9345703125,45.22705078125,[0. 0. 0. 0. 0. 0. 0. 0. 0.],0.00732421875,-0.25634765625,0.96484375,[0. 0. 0. 0. 0. 0. 0. 0. 0.]
4.480036735534668,0.000538210675586015,0.007045689970254898,0.15342479944229126,0.9881351590156555,[0. 0. 0. 0. 0. 0. 0. 0. 0.],-5.615234375,-2.01416015625,50.048828125,[0. 0. 0. 0. 0. 0. 0. 0. 0.],0.05419921875,-0.1923828125,0.84814453125,[0. 0. 0. 0. 0. 0. 0. 0. 0.]
4.499968767166138,-0.0019387822831049562,0.005719542503356934,0.16254210472106934,0.9866831302642822,[0. 0. 0. 0. 0. 0. 0. 0. 0.],-5.615234375,-1.77001953125,53.7109375,[0. 0. 0. 0. 0. 0. 0. 0. 0.],0.078125,-0.228515625,0.9375,[0. 0. 0. 0. 0. 0. 0. 0. 0.]
4.519963264465332,-0.003626905381679535,0.0038699358701705933,0.1716373860836029,0.9851459860801697,[0. 0. 0. 0. 0. 0. 0. 0. 0.],-2.5634765625,-4.82177734375,52.001953125,[0. 0. 0. 0. 0. 0. 0. 0. 0.],0.13720703125,-0.23974609375,1.0400390625,[0. 0. 0. 0. 0. 0. 0. 0. 0.]
4.535336017608643,-0.004305793903768063,0.0017897554207593203,0.1804010421037674,0.9835821390151978,[0. 0. 0. 0. 0. 0. 0. 0. 0.],4.0283203125,-5.06591796875,50.72021484375,[0. 0. 0. 0. 0. 0. 0. 0. 0.],0.138671875,-0.22802734375,1.17138671875,[0. 0. 0. 0. 0. 0. 0. 0. 0.]
4.559930324554443,-0.004748098086565733,-3.343977004988119e-05,0.1895298957824707,0.9818635582923889,[0. 0. 0. 0. 0. 0. 0. 0. 0.],2.01416015625,-6.591796875,54.931640625,[0. 0. 0. 0. 0. 0. 0. 0. 0.],0.08349609375,-0.17333984375,1.05517578125,[0. 0. 0. 0. 0. 0. 0. 0. 0.]
4.579967737197876,-0.0054458933882415295,-0.0009548022644594312,0.19905224442481995,0.979973316192627,[0. 0. 0. 0. 0. 0. 0. 0. 0.],3.90625,2.9296875,55.419921875,[0. 0. 0. 0. 0. 0. 0. 0. 0.],0.1689453125,-0.169921875,0.9775390625,[0. 0. 0. 0. 0. 0. 0. 0. 0.]
4.600454092025757,-0.0055196876637637615,-0.002359941601753235,0.20870567858219147,0.9779601693153381,[0. 0. 0. 0. 0. 0. 0. 0. 0.],6.9580078125,-11.8408203125,58.16650390625,[0. 0. 0. 0. 0. 0. 0. 0. 0.],0.0009765625,-0.1875,0.91943359375,[0. 0. 0. 0. 0. 0. 0. 0. 0.]
4.616417407989502,-0.007300967816263437,-0.004247702192515135,0.21893401443958282,0.9757030606269836,[0. 0. 0. 0. 0. 0. 0. 0. 0.],-7.38525390625,-1.708984375,59.9365234375,[0. 0. 0. 0. 0. 0. 0. 0. 0.],0.09375,-0.15576171875,0.95556640625,[0. 0. 0. 0. 0. 0. 0. 0. 0.]
4.639863014221191,-0.007721444126218557,-0.006603792309761047,0.2293340265750885,0.9732947945594788,[0. 0. 0. 0. 0. 0. 0. 0. 0.],10.25390625,-11.41357421875,60.60791015625,[0. 0. 0. 0. 0. 0. 0. 0. 0.],0.1748046875,-0.24365234375,1.18212890625,[0. 0. 0. 0. 0. 0. 0. 0. 0.]
4.6603381633758545,-0.006324195768684149,-0.007745828945189714,0.23990514874458313,0.9707448482513428,[0. 0. 0. 0. 0. 0. 0. 0. 0.],13.24462890625,0.67138671875,62.744140625,[0. 0. 0. 0. 0. 0. 0. 0. 0.],0.173828125,-0.1484375,0.998046875,[0. 0. 0. 0. 0. 0. 0. 0. 0.]
4.680399417877197,-0.0068281288258731365,-0.008759559132158756,0.25092634558677673,0.9679425358772278,[0. 0. 0. 0. 0. 0. 0. 0. 0.],-5.18798828125,-2.25830078125,66.10107421875,[0. 0. 0. 0. 0. 0. 0. 0. 0.],0.0966796875,-0.04833984375,0.734375,[0. 0. 0. 0. 0. 0. 0. 0. 0.]
4.701478481292725,-0.009001633152365685,-0.009376141242682934,0.26198825240135193,0.9649835824966431,[0. 0. 0. 0. 0. 0. 0. 0. 0.],-2.38037109375,9.27734375,64.453125,[0. 0. 0. 0. 0. 0. 0. 0. 0.],0.13134765625,-0.13818359375,1.10693359375,[0. 0. 0. 0. 0. 0. 0. 0. 0.]
4.7201902866363525,-0.009755031205713749,-0.010939828120172024,0.27213016152381897,0.9621487855911255,[0. 0. 0. 0. 0. 0. 0. 0. 0.],0.9765625,-7.87353515625,58.77685546875,[0. 0. 0. 0. 0. 0. 0. 0. 0.],0.00634765625,-0.1552734375,1.111328125,[0. 0. 0. 0. 0. 0. 0. 0. 0.]
4.740128517150879,-0.010866967961192131,-0.01218257937580347,0.28155967593193054,0.9594048261642456,[0. 0. 0. 0. 0. 0. 0. 0. 0.],0.48828125,-5.55419921875,52.24609375,[0. 0. 0. 0. 0. 0. 0. 0. 0.],0.02392578125,-0.11865234375,0.88134765625,[0. 0. 0. 0. 0. 0. 0. 0. 0.]
4.75570821762085,-0.013344191946089268,-0.01318443100899458,0.2893983721733093,0.957024872303009,[0. 0. 0. 0. 0. 0. 0. 0. 0.],-12.5732421875,8.9111328125,42.3583984375,[0. 0. 0. 0. 0. 0. 0. 0. 0.],0.08740234375,-0.080078125,0.755859375,[0. 0. 0. 0. 0. 0. 0. 0. 0.]
4.780182838439941,-0.01706373505294323,-0.013727854005992413,0.2951468229293823,0.9552009105682373,[0. 0. 0. 0. 0. 0. 0. 0. 0.],-13.12255859375,6.7138671875,30.029296875,[0. 0. 0. 0. 0. 0. 0. 0. 0.],0.00927734375,-0.1015625,0.91259765625,[0. 0. 0. 0. 0. 0. 0. 0. 0.]
4.799903631210327,-0.01954047940671444,-0.012799943797290325,0.29872408509254456,0.9540535807609558,[0. 0. 0. 0. 0. 0. 0. 0. 0.],0.79345703125,0.30517578125,17.333984375,[0. 0. 0. 0. 0. 0. 0. 0. 0.],-0.05712890625,-0.1259765625,1.23095703125,[0. 0. 0. 0. 0. 0. 0. 0. 0.]
4.815474987030029,-0.02069428376853466,-0.010613687336444855,0.3006221652030945,0.9534597992897034,[0. 0. 0. 0. 0. 0. 0. 0. 0.],1.5869140625,6.40869140625,7.50732421875,[0. 0. 0. 0. 0. 0. 0. 0. 0.],-0.03857421875,-0.0634765625,1.224609375,[0. 0. 0. 0. 0. 0. 0. 0. 0.]
4.840394020080566,-0.02225559391081333,-0.009835172444581985,0.30104759335517883,0.9532986879348755,[0. 0. 0. 0. 0. 0. 0. 0. 0.],-10.7421875,-4.7607421875,-1.15966796875,[0. 0. 0. 0. 0. 0. 0. 0. 0.],-0.12353515625,-0.0830078125,0.88720703125,[0. 0. 0. 0. 0. 0. 0. 0. 0.]
4.861045837402344,-0.02359834872186184,-0.0077230362221598625,0.29901692271232605,0.9539247751235962,[0. 0. 0. 0. 0. 0. 0. 0. 0.],8.6669921875,23.98681640625,-17.822265625,[0. 0. 0. 0. 0. 0. 0. 0. 0.],0.05078125,-0.107421875,1.10888671875,[0. 0. 0. 0. 0. 0. 0. 0. 0.]
4.880291223526001,-0.023753119632601738,-0.00613218592479825,0.2947801947593689,0.9552501440048218,[0. 0. 0. 0. 0. 0. 0. 0. 0.],3.2958984375,-6.77490234375,-30.029296875,[0. 0. 0. 0. 0. 0. 0. 0. 0.],-0.28369140625,-0.115234375,0.861328125,[0. 0. 0. 0. 0. 0. 0. 0. 0.]
4.901223421096802,-0.024477625265717506,-0.004674110095947981,0.28878575563430786,0.957069456577301,[0. 0. 0. 0. 0. 0. 0. 0. 0.],-5.92041015625,15.68603515625,-40.34423828125,[0. 0. 0. 0. 0. 0. 0. 0. 0.],-0.13671875,-0.02685546875,0.85107421875,[0. 0. 0. 0. 0. 0. 0. 0. 0.]
4.920183897018433,-0.025176260620355606,-0.00025212918990291655,0.28012359142303467,0.9596337080001831,[0. 0. 0. 0. 0. 0. 0. 0. 0.],6.28662109375,20.81298828125,-56.396484375,[0. 0. 0. 0. 0. 0. 0. 0. 0.],-0.05908203125,-0.05810546875,1.1630859375,[0. 0. 0. 0. 0. 0. 0. 0. 0.]
4.935893297195435,-0.024589555338025093,0.002190215280279517,0.26974940299987793,0.962614119052887,[0. 0. 0. 0. 0. 0. 0. 0. 0.],6.2255859375,-4.21142578125,-65.49072265625,[0. 0. 0. 0. 0. 0. 0. 0. 0.],-0.4052734375,-0.01318359375,1.0126953125,[0. 0. 0. 0. 0. 0. 0. 0. 0.]
4.963632106781006,-0.024715803563594818,0.0036525153554975986,0.2580612003803253,0.9658055305480957,[0. 0. 0. 0. 0. 0. 0. 0. 0.],1.220703125,8.6669921875,-72.32666015625,[0. 0. 0. 0. 0. 0. 0. 0. 0.],-0.24951171875,-0.0009765625,0.88623046875,[0. 0. 0. 0. 0. 0. 0. 0. 0.]
4.9756715297698975,-0.02503390610218048,0.006733008660376072,0.24497756361961365,0.9691821336746216,[0. 0. 0. 0. 0. 0. 0. 0. 0.],0.42724609375,4.33349609375,-81.4208984375,[0. 0. 0. 0. 0. 0. 0. 0. 0.],-0.19677734375,-0.0048828125,0.88818359375,[0. 0. 0. 0. 0. 0. 0. 0. 0.]
5.000114440917969,-0.025714807212352753,0.008487297222018242,0.23025427758693695,0.972753643989563,[0. 0. 0. 0. 0. 0. 0. 0. 0.],0.9765625,-0.48828125,-89.53857421875,[0. 0. 0. 0. 0. 0. 0. 0. 0.],-0.27880859375,-0.0048828125,1.02197265625,[0. 0. 0. 0. 0. 0. 0. 0. 0.]
5.02197265625,-0.02537745051085949,0.010008957237005234,0.2142118662595749,0.9764062762260437,[0. 0. 0. 0. 0. 0. 0. 0. 0.],5.859375,4.150390625,-96.435546875,[0. 0. 0. 0. 0. 0. 0. 0. 0.],-0.236328125,-0.0185546875,1.17041015625,[0. 0. 0. 0. 0. 0. 0. 0. 0.]
5.039901256561279,-0.02478155866265297,0.012540573254227638,0.1970137059688568,0.9800073504447937,[0. 0. 0. 0. 0. 0. 0. 0. 0.],7.6904296875,2.44140625,-99.7314453125,[0. 0. 0. 0. 0. 0. 0. 0. 0.],-0.25927734375,-0.0234375,1.1279296875,[0. 0. 0. 0. 0. 0. 0. 0. 0.]
5.055310010910034,-0.024613000452518463,0.014742904342710972,0.1798418015241623,0.9832770824432373,[0. 0. 0. 0. 0. 0. 0. 0. 0.],5.92041015625,9.46044921875,-99.4873046875,[0. 0. 0. 0. 0. 0. 0. 0. 0.],-0.3291015625,-0.02734375,0.9228515625,[0. 0. 0. 0. 0. 0. 0. 0. 0.]
5.080246210098267,-0.023658961057662964,0.01609535701572895,0.16223859786987305,0.9863365888595581,[0. 0. 0. 0. 0. 0. 0. 0. 0.],7.080078125,0.91552734375,-103.94287109375,[0. 0. 0. 0. 0. 0. 0. 0. 0.],-0.26708984375,-0.021484375,1.00537109375,[0. 0. 0. 0. 0. 0. 0. 0. 0.]
5.100664854049683,-0.02422362007200718,0.019375646486878395,0.14407171308994293,0.9890810251235962,[0. 0. 0. 0. 0. 0. 0. 0. 0.],-2.13623046875,13.61083984375,-105.40771484375,[0. 0. 0. 0. 0. 0. 0. 0. 0.],-0.205078125,-0.0107421875,0.9013671875,[0. 0. 0. 0. 0. 0. 0. 0. 0.]
5.122093915939331,-0.023710453882813454,0.01947055011987686,0.12689828872680664,0.9914411306381226,[0. 0. 0. 0. 0. 0. 0. 0. 0.],7.38525390625,-14.892578125,-95.03173828125,[0. 0. 0. 0. 0. 0. 0. 0. 0.],-0.46923828125,-0.08154296875,0.9345703125,[0. 0. 0. 0. 0. 0. 0. 0. 0.]
5.135339021682739,-0.0240926630795002,0.021400323137640953,0.11167453974485397,0.9932222962379456,[0. 0. 0. 0. 0. 0. 0. 0. 0.],-4.08935546875,22.39990234375,-84.1064453125,[0. 0. 0. 0. 0. 0. 0. 0. 0.],-0.18408203125,-0.04443359375,1.0673828125,[0. 0. 0. 0. 0. 0. 0. 0. 0.]
5.155442714691162,-0.025167396292090416,0.025303862988948822,0.09800682961940765,0.9945456981658936,[0. 0. 0. 0. 0. 0. 0. 0. 0.],-4.69970703125,0.244140625,-75.37841796875,[0. 0. 0. 0. 0. 0. 0. 0. 0.],-0.2197265625,-0.04248046875,0.93505859375,[0. 0. 0. 0. 0. 0. 0. 0. 0.]
5.177402496337891,-0.026824980974197388,0.025013605132699013,0.08661734312772751,0.9955662488937378,[0. 0. 0. 0. 0. 0. 0. 0. 0.],-4.21142578125,-16.29638671875,-59.5703125,[0. 0. 0. 0. 0. 0. 0. 0. 0.],-0.34375,-0.06201171875,0.9033203125,[0. 0. 0. 0. 0. 0. 0. 0. 0.]
5.194953441619873,-0.02692866325378418,0.025065122172236443,0.07818067818880081,0.9962602853775024,[0. 0. 0. 0. 0. 0. 0. 0. 0.],6.04248046875,-2.38037109375,-41.68701171875,[0. 0. 0. 0. 0. 0. 0. 0. 0.],-0.18994140625,-0.0888671875,1.103515625,[0. 0. 0. 0. 0. 0. 0. 0. 0.]
5.2199931144714355,-0.0265048798173666,0.025476636365056038,0.07290299981832504,0.9966611862182617,[0. 0. 0. 0. 0. 0. 0. 0. 0.],2.62451171875,-11.3525390625,-23.8037109375,[0. 0. 0. 0. 0. 0. 0. 0. 0.],-0.20263671875,-0.02099609375,1.0205078125,[0. 0. 0. 0. 0. 0. 0. 0. 0.]
5.240466833114624,-0.025187816470861435,0.02584961988031864,0.0697271078824997,0.9969130754470825,[0. 0. 0. 0. 0. 0. 0. 0. 0.],5.2490234375,3.84521484375,-14.7705078125,[0. 0. 0. 0. 0. 0. 0. 0. 0.],-0.083984375,-0.0087890625,1.072265625,[0. 0. 0. 0. 0. 0. 0. 0. 0.]
5.2601048946380615,-0.02290891855955124,0.027190398424863815,0.06774352490901947,0.9970690608024597,[0. 0. 0. 0. 0. 0. 0. 0. 0.],3.90625,-3.23486328125,-8.48388671875,[0. 0. 0. 0. 0. 0. 0. 0. 0.],-0.1142578125,0.009765625,1.04345703125,[0. 0. 0. 0. 0. 0. 0. 0. 0.]
5.2758238315582275,-0.023279285058379173,0.026837803423404694,0.06666103005409241,0.997143030166626,[0. 0. 0. 0. 0. 0. 0. 0. 0.],-7.568359375,-4.69970703125,-7.38525390625,[0. 0. 0. 0. 0. 0. 0. 0. 0.],-0.1279296875,0.0625,0.85791015625,[0. 0. 0. 0. 0. 0. 0. 0. 0.]
5.295568943023682,-0.02192138135433197,0.02764536812901497,0.06514216214418411,0.9972521662712097,[0. 0. 0. 0. 0. 0. 0. 0. 0.],13.5498046875,11.1083984375,-7.6904296875,[0. 0. 0. 0. 0. 0. 0. 0. 0.],0.00830078125,-0.03271484375,1.21728515625,[0. 0. 0. 0. 0. 0. 0. 0. 0.]
5.3203630447387695,-0.019764333963394165,0.02634589746594429,0.06373025476932526,0.9974235892295837,[0. 0. 0. 0. 0. 0. 0. 0. 0.],4.638671875,-28.74755859375,-8.48388671875,[0. 0. 0. 0. 0. 0. 0. 0. 0.],-0.26611328125,0.03759765625,0.86376953125,[0. 0. 0. 0. 0. 0. 0. 0. 0.]
5.340007543563843,-0.019198020920157433,0.027120936661958694,0.06189259886741638,0.9975296258926392,[0. 0. 0. 0. 0. 0. 0. 0. 0.],-5.55419921875,28.80859375,-11.23046875,[0. 0. 0. 0. 0. 0. 0. 0. 0.],0.16552734375,0.06494140625,0.93505859375,[0. 0. 0. 0. 0. 0. 0. 0. 0.]
5.355630874633789,-0.019717948511242867,0.0284543726593256,0.059987518936395645,0.9975985884666443,[0. 0. 0. 0. 0. 0. 0. 0. 0.],-8.544921875,-5.31005859375,-10.25390625,[0. 0. 0. 0. 0. 0. 0. 0. 0.],-0.16064453125,0.04296875,0.9326171875,[0. 0. 0. 0. 0. 0. 0. 0. 0.]
5.38123631477356,-0.019981736317276955,0.026989782229065895,0.05885005742311478,0.99770188331604,[0. 0. 0. 0. 0. 0. 0. 0. 0.],0.67138671875,-18.00537109375,-6.89697265625,[0. 0. 0. 0. 0. 0. 0. 0. 0.],-0.2255859375,-0.01123046875,1.03564453125,[0. 0. 0. 0. 0. 0. 0. 0. 0.]
5.400053024291992,-0.01842721365392208,0.0259022768586874,0.05754930153489113,0.9978365302085876,[0. 0. 0. 0. 0. 0. 0. 0. 0.],2.86865234375,-4.8828125,-8.60595703125,[0. 0. 0. 0. 0. 0. 0. 0. 0.],0.00341796875,0.01123046875,1.03955078125,[0. 0. 0. 0. 0. 0. 0. 0. 0.]
5.415888547897339,-0.016260461881756783,0.024844713509082794,0.056372035294771194,0.997968316078186,[0. 0. 0. 0. 0. 0. 0. 0. 0.],-0.1220703125,-2.50244140625,-7.87353515625,[0. 0. 0. 0. 0. 0. 0. 0. 0.],-0.0546875,0.0419921875,1.05517578125,[0. 0. 0. 0. 0. 0. 0. 0. 0.]
5.440810918807983,-0.014538783580064774,0.024998150765895844,0.05530714988708496,0.9980505108833313,[0. 0. 0. 0. 0. 0. 0. 0. 0.],4.57763671875,10.19287109375,-6.40869140625,[0. 0. 0. 0. 0. 0. 0. 0. 0.],-0.01416015625,0.0224609375,1.080078125,[0. 0. 0. 0. 0. 0. 0. 0. 0.]
5.462888717651367,-0.0128928879275918,0.0246907826513052,0.05434683337807655,0.9981335997581482,[0. 0. 0. 0. 0. 0. 0. 0. 0.],-9.09423828125,-5.615234375,-4.8828125,[0. 0. 0. 0. 0. 0. 0. 0. 0.],-0.11669921875,0.076171875,0.90576171875,[0. 0. 0. 0. 0. 0. 0. 0. 0.]
5.475128889083862,-0.012548043392598629,0.024451131001114845,0.05326046422123909,0.9982024431228638,[0. 0. 0. 0. 0. 0. 0. 0. 0.],-2.62451171875,3.23486328125,-8.11767578125,[0. 0. 0. 0. 0. 0. 0. 0. 0.],0.0009765625,0.02294921875,1.0595703125,[0. 0. 0. 0. 0. 0. 0. 0. 0.]
5.503494739532471,-0.01045722234994173,0.02409905381500721,0.05200633779168129,0.9983012080192566,[0. 0. 0. 0. 0. 0. 0. 0. 0.],8.11767578125,3.7841796875,-7.38525390625,[0. 0. 0. 0. 0. 0. 0. 0. 0.],-0.04736328125,-0.0078125,1.1455078125,[0. 0. 0. 0. 0. 0. 0. 0. 0.]
5.520035028457642,-0.008774994872510433,0.022920554503798485,0.051064930856227875,0.9983937740325928,[0. 0. 0. 0. 0. 0. 0. 0. 0.],-1.03759765625,-19.8974609375,-7.62939453125,[0. 0. 0. 0. 0. 0. 0. 0. 0.],-0.1669921875,0.06787109375,0.78466796875,[0. 0. 0. 0. 0. 0. 0. 0. 0.]
5.535383701324463,-0.008196868933737278,0.024000316858291626,0.04951786622405052,0.9984511733055115,[0. 0. 0. 0. 0. 0. 0. 0. 0.],-0.18310546875,26.4892578125,-9.70458984375,[0. 0. 0. 0. 0. 0. 0. 0. 0.],0.18408203125,0.048828125,0.97509765625,[0. 0. 0. 0. 0. 0. 0. 0. 0.]
5.55590558052063,-0.008634967729449272,0.02501613460481167,0.048044268041849136,0.998494565486908,[0. 0. 0. 0. 0. 0. 0. 0. 0.],-5.4931640625,-11.29150390625,-7.01904296875,[0. 0. 0. 0. 0. 0. 0. 0. 0.],-0.18212890625,0.0458984375,0.990234375,[0. 0. 0. 0. 0. 0. 0. 0. 0.]
5.575658798217773,-0.008593970909714699,0.023815328255295753,0.047071393579244614,0.9985706210136414,[0. 0. 0. 0. 0. 0. 0. 0. 0.],0.67138671875,-15.31982421875,-5.18798828125,[0. 0. 0. 0. 0. 0. 0. 0. 0.],-0.18505859375,0.01123046875,1.0224609375,[0. 0. 0. 0. 0. 0. 0. 0. 0.]
5.6002888679504395,-0.006815851666033268,0.02270260453224182,0.045885488390922546,0.9986655116081238,[0. 0. 0. 0. 0. 0. 0. 0. 0.],3.96728515625,-13.3056640625,-6.34765625,[0. 0. 0. 0. 0. 0. 0. 0. 0.],-0.04931640625,0.0185546875,1.01513671875,[0. 0. 0. 0. 0. 0. 0. 0. 0.]
5.620148420333862,-0.004447107203304768,0.02210763841867447,0.044685397297143936,0.9987465739250183,[0. 0. 0. 0. 0. 0. 0. 0. 0.],-0.67138671875,-2.74658203125,-6.77490234375,[0. 0. 0. 0. 0. 0. 0. 0. 0.],-0.04248046875,0.04443359375,1.015625,[0. 0. 0. 0. 0. 0. 0. 0. 0.]
5.640077590942383,-0.002485723700374365,0.022362975403666496,0.04372243210673332,0.9987903833389282,[0. 0. 0. 0. 0. 0. 0. 0. 0.],9.33837890625,6.7138671875,-5.79833984375,[0. 0. 0. 0. 0. 0. 0. 0. 0.],-0.02880859375,0.015625,1.11376953125,[0. 0. 0. 0. 0. 0. 0. 0. 0.]
5.6600260734558105,-0.0012163150822743773,0.022248970344662666,0.04300542548298836,0.9988263845443726,[0. 0. 0. 0. 0. 0. 0. 0. 0.],-9.6435546875,-10.986328125,-3.96728515625,[0. 0. 0. 0. 0. 0. 0. 0. 0.],-0.1396484375,0.0830078125,0.88720703125,[0. 0. 0. 0. 0. 0. 0. 0. 0.]
5.680546760559082,-0.0006772571359761059,0.022059913724660873,0.042240649461746216,0.9988637566566467,[0. 0. 0. 0. 0. 0. 0. 0. 0.],-0.67138671875,3.41796875,-4.5166015625,[0. 0. 0. 0. 0. 0. 0. 0. 0.],-0.00830078125,0.02001953125,1.1123046875,[0. 0. 0. 0. 0. 0. 0. 0. 0.]
5.695263862609863,0.0005384141113609076,0.02211081236600876,0.041641153395175934,0.9988877773284912,[0. 0. 0. 0. 0. 0. 0. 0. 0.],8.11767578125,1.15966796875,-2.197265625,[0. 0. 0. 0. 0. 0. 0. 0. 0.],-0.068359375,-0.001953125,1.10546875,[0. 0. 0. 0. 0. 0. 0. 0. 0.]
5.720050096511841,0.0017041636165231466,0.02120525762438774,0.041345760226249695,0.9989184141159058,[0. 0. 0. 0. 0. 0. 0. 0. 0.],-4.5166015625,-15.93017578125,-3.173828125,[0. 0. 0. 0. 0. 0. 0. 0. 0.],-0.12158203125,0.07763671875,0.736328125,[0. 0. 0. 0. 0. 0. 0. 0. 0.]
5.7400102615356445,0.002148070838302374,0.02182743325829506,0.04027588665485382,0.9989479184150696,[0. 0. 0. 0. 0. 0. 0. 0. 0.],1.64794921875,23.74267578125,-6.89697265625,[0. 0. 0. 0. 0. 0. 0. 0. 0.],0.208984375,0.037109375,1.00244140625,[0. 0. 0. 0. 0. 0. 0. 0. 0.]
5.760409355163574,0.0020712115801870823,0.022858118638396263,0.03947532922029495,0.9989569187164307,[0. 0. 0. 0. 0. 0. 0. 0. 0.],-0.18310546875,-12.20703125,-2.38037109375,[0. 0. 0. 0. 0. 0. 0. 0. 0.],-0.1865234375,0.03662109375,1.021484375,[0. 0. 0. 0. 0. 0. 0. 0. 0.]
5.782141923904419,0.0022471637930721045,0.022188887000083923,0.039014168083667755,0.9989897608757019,[0. 0. 0. 0. 0. 0. 0. 0. 0.],-2.44140625,-3.0517578125,-3.2958984375,[0. 0. 0. 0. 0. 0. 0. 0. 0.],-0.03857421875,0.0224609375,1.01806640625,[0. 0. 0. 0. 0. 0. 0. 0. 0.]
5.8003129959106445,0.003143489360809326,0.021869629621505737,0.03882426396012306,0.9990018010139465,[0. 0. 0. 0. 0. 0. 0. 0. 0.],4.33349609375,-10.80322265625,-1.64794921875,[0. 0. 0. 0. 0. 0. 0. 0. 0.],-0.091796875,0.01513671875,1.05810546875,[0. 0. 0. 0. 0. 0. 0. 0. 0.]
5.815305948257446,0.0047433823347091675,0.021872103214263916,0.038484226912260056,0.9990085959434509,[0. 0. 0. 0. 0. 0. 0. 0. 0.],-1.3427734375,-2.44140625,-0.67138671875,[0. 0. 0. 0. 0. 0. 0. 0. 0.],-0.0458984375,0.04638671875,0.9912109375,[0. 0. 0. 0. 0. 0. 0. 0. 0.]
5.8351428508758545,0.0062766969203948975,0.021491868421435356,0.038427021354436874,0.9990106225013733,[0. 0. 0. 0. 0. 0. 0. 0. 0.],9.1552734375,2.9296875,0.8544921875,[0. 0. 0. 0. 0. 0. 0. 0. 0.],-0.02685546875,0.01220703125,1.0751953125,[0. 0. 0. 0. 0. 0. 0. 0. 0.]
5.860403299331665,0.006713282782584429,0.021591270342469215,0.03880860283970833,0.9989908337593079,[0. 0. 0. 0. 0. 0. 0. 0. 0.],-7.080078125,-2.8076171875,1.953125,[0. 0. 0. 0. 0. 0. 0. 0. 0.],-0.0810546875,0.08935546875,0.8779296875,[0. 0. 0. 0. 0. 0. 0. 0. 0.]
5.88005518913269,0.007182535715401173,0.020881423726677895,0.039079729467630386,0.9989921450614929,[0. 0. 0. 0. 0. 0. 0. 0. 0.],5.79833984375,7.2021484375,1.953125,[0. 0. 0. 0. 0. 0. 0. 0. 0.],0.03466796875,-0.00537109375,1.21826171875,[0. 0. 0. 0. 0. 0. 0. 0. 0.]
5.899962425231934,0.008039173670113087,0.021284112706780434,0.039565812796354294,0.9989578723907471,[0. 0. 0. 0. 0. 0. 0. 0. 0.],1.708984375,-0.54931640625,5.06591796875,[0. 0. 0. 0. 0. 0. 0. 0. 0.],-0.10107421875,0.0234375,0.9716796875,[0. 0. 0. 0. 0. 0. 0. 0. 0.]
5.920241355895996,0.008744931779801846,0.02091454528272152,0.04021304100751877,0.9989339113235474,[0. 0. 0. 0. 0. 0. 0. 0. 0.],-4.150390625,-2.685546875,1.708984375,[0. 0. 0. 0. 0. 0. 0. 0. 0.],-0.0390625,0.06591796875,0.7646484375,[0. 0. 0. 0. 0. 0. 0. 0. 0.]
5.939899921417236,0.008677160367369652,0.021733101457357407,0.040232639759778976,0.9989163279533386,[0. 0. 0. 0. 0. 0. 0. 0. 0.],-0.06103515625,18.4326171875,-0.48828125,[0. 0. 0. 0. 0. 0. 0. 0. 0.],0.15185546875,0.03515625,0.998046875,[0. 0. 0. 0. 0. 0. 0. 0. 0.]
5.961961507797241,0.008481377735733986,0.02129625529050827,0.04056956619024277,0.9989137053489685,[0. 0. 0. 0. 0. 0. 0. 0. 0.],-2.685546875,-15.0146484375,2.44140625,[0. 0. 0. 0. 0. 0. 0. 0. 0.],-0.177734375,0.03564453125,1.0400390625,[0. 0. 0. 0. 0. 0. 0. 0. 0.]
5.982382535934448,0.00822344422340393,0.021250881254673004,0.04102921858429909,0.9988982081413269,[0. 0. 0. 0. 0. 0. 0. 0. 0.],-2.0751953125,-1.46484375,0.67138671875,[0. 0. 0. 0. 0. 0. 0. 0. 0.],-0.02099609375,0.0322265625,1.060546875,[0. 0. 0. 0. 0. 0. 0. 0. 0.]
6.0002031326293945,0.00795820727944374,0.01964142918586731,0.04135880991816521,0.9989196062088013,[0. 0. 0. 0. 0. 0. 0. 0. 0.],4.0283203125,-7.50732421875,1.5869140625,[0. 0. 0. 0. 0. 0. 0. 0. 0.],-0.0625,-0.0048828125,1.08203125,[0. 0. 0. 0. 0. 0. 0. 0. 0.]
6.020280361175537,0.0060784169472754,0.01867004856467247,0.04164054989814758,0.9989398121833801,[0. 0. 0. 0. 0. 0. 0. 0. 0.],-9.33837890625,2.197265625,1.89208984375,[0. 0. 0. 0. 0. 0. 0. 0. 0.],0.01123046875,-0.06787109375,0.92333984375,[0. 0. 0. 0. 0. 0. 0. 0. 0.]
6.039895057678223,0.004035465884953737,0.01803208328783512,0.042003728449344635,0.9989466667175293,[0. 0. 0. 0. 0. 0. 0. 0. 0.],-0.3662109375,-2.38037109375,4.69970703125,[0. 0. 0. 0. 0. 0. 0. 0. 0.],0.0146484375,-0.17041015625,1.0244140625,[0. 0. 0. 0. 0. 0. 0. 0. 0.]
6.059848785400391,0.0017955722287297249,0.015473519451916218,0.043915361166000366,0.9989138245582581,[0. 0. 0. 0. 0. 0. 0. 0. 0.],-6.7138671875,-9.033203125,15.9912109375,[0. 0. 0. 0. 0. 0. 0. 0. 0.],0.04833984375,-0.189453125,1.0048828125,[0. 0. 0. 0. 0. 0. 0. 0. 0.]
6.081377029418945,0.0005289089749567211,0.013269460760056973,0.048075903207063675,0.9987554550170898,[0. 0. 0. 0. 0. 0. 0. 0. 0.],1.03759765625,-3.84521484375,26.67236328125,[0. 0. 0. 0. 0. 0. 0. 0. 0.],0.1650390625,-0.23486328125,1.1201171875,[0. 0. 0. 0. 0. 0. 0. 0. 0.]
6.100688695907593,-0.0003069103986490518,0.011737857013940811,0.05480467155575752,0.9984281063079834,[0. 0. 0. 0. 0. 0. 0. 0. 0.],-3.72314453125,3.84521484375,44.00634765625,[0. 0. 0. 0. 0. 0. 0. 0. 0.],0.10009765625,-0.18310546875,0.8876953125,[0. 0. 0. 0. 0. 0. 0. 0. 0.]
6.119835138320923,-0.0018189068650826812,0.009505908004939556,0.0640125721693039,0.9979022741317749,[0. 0. 0. 0. 0. 0. 0. 0. 0.],-2.3193359375,-12.8173828125,57.43408203125,[0. 0. 0. 0. 0. 0. 0. 0. 0.],0.08642578125,-0.177734375,0.85205078125,[0. 0. 0. 0. 0. 0. 0. 0. 0.]
6.140267610549927,-0.0036041277926415205,0.006834795698523521,0.07578165084123611,0.9970945119857788,[0. 0. 0. 0. 0. 0. 0. 0. 0.],-5.0048828125,-4.2724609375,75.3173828125,[0. 0. 0. 0. 0. 0. 0. 0. 0.],0.11181640625,-0.2080078125,0.9794921875,[0. 0. 0. 0. 0. 0. 0. 0. 0.]
6.162365913391113,-0.005923453718423843,0.003362728515639901,0.08994673937559128,0.9959233403205872,[0. 0. 0. 0. 0. 0. 0. 0. 0.],-0.8544921875,-21.3623046875,87.5244140625,[0. 0. 0. 0. 0. 0. 0. 0. 0.],0.080078125,-0.24658203125,1.0595703125,[0. 0. 0. 0. 0. 0. 0. 0. 0.]
6.18075966835022,-0.006352953612804413,-0.00029786856612190604,0.10575965791940689,0.9943714141845703,[0. 0. 0. 0. 0. 0. 0. 0. 0.],8.85009765625,-10.6201171875,94.05517578125,[0. 0. 0. 0. 0. 0. 0. 0. 0.],0.23681640625,-0.26513671875,1.111328125,[0. 0. 0. 0. 0. 0. 0. 0. 0.]
6.200199604034424,-0.006351112853735685,-0.0017991813365370035,0.12337663024663925,0.9923380017280579,[0. 0. 0. 0. 0. 0. 0. 0. 0.],4.82177734375,-2.50244140625,104.67529296875,[0. 0. 0. 0. 0. 0. 0. 0. 0.],0.25341796875,-0.2431640625,1.03125,[0. 0. 0. 0. 0. 0. 0. 0. 0.]
6.217046737670898,-0.005470619071274996,-0.004178551025688648,0.1426924169063568,0.9897432327270508,[0. 0. 0. 0. 0. 0. 0. 0. 0.],7.87353515625,-8.1787109375,114.92919921875,[0. 0. 0. 0. 0. 0. 0. 0. 0.],0.19921875,-0.24267578125,1.03271484375,[0. 0. 0. 0. 0. 0. 0. 0. 0.]
6.239999055862427,-0.006905233021825552,-0.004247039556503296,0.16415226459503174,0.9864017367362976,[0. 0. 0. 0. 0. 0. 0. 0. 0.],-5.31005859375,-19.59228515625,125.1220703125,[0. 0. 0. 0. 0. 0. 0. 0. 0.],0.1552734375,-0.1806640625,0.787109375,[0. 0. 0. 0. 0. 0. 0. 0. 0.]
6.25647234916687,-0.008768416941165924,-0.010346335358917713,0.187281534075737,0.9822127223014832,[0. 0. 0. 0. 0. 0. 0. 0. 0.],-10.80322265625,-29.296875,135.19287109375,[0. 0. 0. 0. 0. 0. 0. 0. 0.],0.13330078125,-0.24365234375,0.87353515625,[0. 0. 0. 0. 0. 0. 0. 0. 0.]
6.280158996582031,-0.00883503071963787,-0.013620375655591488,0.21144765615463257,0.9772545099258423,[0. 0. 0. 0. 0. 0. 0. 0. 0.],1.46484375,8.36181640625,143.85986328125,[0. 0. 0. 0. 0. 0. 0. 0. 0.],0.4453125,-0.28759765625,1.16748046875,[0. 0. 0. 0. 0. 0. 0. 0. 0.]
6.299865484237671,-0.009519635699689388,-0.015058049000799656,0.23652294278144836,0.971462607383728,[0. 0. 0. 0. 0. 0. 0. 0. 0.],0.244140625,-10.31494140625,147.52197265625,[0. 0. 0. 0. 0. 0. 0. 0. 0.],0.31689453125,-0.263671875,1.05126953125,[0. 0. 0. 0. 0. 0. 0. 0. 0.]
6.319941520690918,-0.008160722441971302,-0.017661267891526222,0.26230907440185547,0.9647877812385559,[0. 0. 0. 0. 0. 0. 0. 0. 0.],13.12255859375,-11.23046875,155.82275390625,[0. 0. 0. 0. 0. 0. 0. 0. 0.],0.29345703125,-0.2880859375,1.01318359375,[0. 0. 0. 0. 0. 0. 0. 0. 0.]
6.335939884185791,-0.008923382498323917,-0.018790211528539658,0.2891005873680115,0.9570727944374084,[0. 0. 0. 0. 0. 0. 0. 0. 0.],2.5634765625,-15.0146484375,161.0107421875,[0. 0. 0. 0. 0. 0. 0. 0. 0.],0.31201171875,-0.20361328125,0.81982421875,[0. 0. 0. 0. 0. 0. 0. 0. 0.]
6.3601975440979,-0.009325257502496243,-0.024585381150245667,0.3167805075645447,0.9481344223022461,[0. 0. 0. 0. 0. 0. 0. 0. 0.],-6.103515625,-24.7802734375,169.49462890625,[0. 0. 0. 0. 0. 0. 0. 0. 0.],0.228515625,-0.22705078125,0.83740234375,[0. 0. 0. 0. 0. 0. 0. 0. 0.]
6.375707387924194,-0.010833912529051304,-0.028063436970114708,0.3451962172985077,0.9380483627319336,[0. 0. 0. 0. 0. 0. 0. 0. 0.],-9.09423828125,1.5869140625,174.1943359375,[0. 0. 0. 0. 0. 0. 0. 0. 0.],0.4853515625,-0.2998046875,1.060546875,[0. 0. 0. 0. 0. 0. 0. 0. 0.]
6.400181531906128,-0.010484679602086544,-0.029393116012215614,0.3735356628894806,0.9270907640457153,[0. 0. 0. 0. 0. 0. 0. 0. 0.],23.25439453125,-9.21630859375,177.30712890625,[0. 0. 0. 0. 0. 0. 0. 0. 0.],0.40478515625,-0.39111328125,1.26611328125,[0. 0. 0. 0. 0. 0. 0. 0. 0.]
6.420417308807373,-0.010884816758334637,-0.030862541869282722,0.40277206897735596,0.914715051651001,[0. 0. 0. 0. 0. 0. 0. 0. 0.],-3.5400390625,-2.25830078125,185.36376953125,[0. 0. 0. 0. 0. 0. 0. 0. 0.],0.37939453125,-0.19970703125,0.84521484375,[0. 0. 0. 0. 0. 0. 0. 0. 0.]
6.440082550048828,-0.011056257411837578,-0.03534115478396416,0.4320478141307831,0.901090145111084,[0. 0. 0. 0. 0. 0. 0. 0. 0.],-6.65283203125,-26.67236328125,186.34033203125,[0. 0. 0. 0. 0. 0. 0. 0. 0.],0.28759765625,-0.2744140625,0.84326171875,[0. 0. 0. 0. 0. 0. 0. 0. 0.]
6.4604103565216064,-0.010604551061987877,-0.04004792124032974,0.4614576995372772,0.8861943483352661,[0. 0. 0. 0. 0. 0. 0. 0. 0.],-2.86865234375,-13.61083984375,190.12451171875,[0. 0. 0. 0. 0. 0. 0. 0. 0.],0.43212890625,-0.3212890625,0.96044921875,[0. 0. 0. 0. 0. 0. 0. 0. 0.]
6.4804606437683105,-0.011398429051041603,-0.04018331319093704,0.49132534861564636,0.8699740767478943,[0. 0. 0. 0. 0. 0. 0. 0. 0.],9.1552734375,25.08544921875,200.3173828125,[0. 0. 0. 0. 0. 0. 0. 0. 0.],0.5712890625,-0.32958984375,1.11865234375,[0. 0. 0. 0. 0. 0. 0. 0. 0.]
6.500303745269775,-0.01236903015524149,-0.0416947603225708,0.5207505822181702,0.8526003956794739,[0. 0. 0. 0. 0. 0. 0. 0. 0.],3.41796875,-16.9677734375,197.8759765625,[0. 0. 0. 0. 0. 0. 0. 0. 0.],0.365234375,-0.34033203125,0.9775390625,[0. 0. 0. 0. 0. 0. 0. 0. 0.]
6.5192625522613525,-0.010679695755243301,-0.04607667773962021,0.5498300790786743,0.8339362740516663,[0. 0. 0. 0. 0. 0. 0. 0. 0.],1.89208984375,-21.42333984375,196.71630859375,[0. 0. 0. 0. 0. 0. 0. 0. 0.],0.43505859375,-0.263671875,0.9287109375,[0. 0. 0. 0. 0. 0. 0. 0. 0.]
6.534906625747681,-0.008633626624941826,-0.05005839467048645,0.5783369541168213,0.8142150044441223,[0. 0. 0. 0. 0. 0. 0. 0. 0.],10.68115234375,-12.0849609375,199.27978515625,[0. 0. 0. 0. 0. 0. 0. 0. 0.],0.5439453125,-0.2265625,0.97314453125,[0. 0. 0. 0. 0. 0. 0. 0. 0.]
6.555777311325073,-0.010374138131737709,-0.049868520349264145,0.6060458421707153,0.7937971949577332,[0. 0. 0. 0. 0. 0. 0. 0. 0.],1.220703125,7.080078125,195.12939453125,[0. 0. 0. 0. 0. 0. 0. 0. 0.],0.71533203125,-0.1943359375,0.9775390625,[0. 0. 0. 0. 0. 0. 0. 0. 0.]
6.575266599655151,-0.007900732569396496,-0.051111746579408646,0.6318332552909851,0.773377001285553,[0. 0. 0. 0. 0. 0. 0. 0. 0.],22.705078125,-35.888671875,187.744140625,[0. 0. 0. 0. 0. 0. 0. 0. 0.],0.52783203125,-0.2978515625,1.0986328125,[0. 0. 0. 0. 0. 0. 0. 0. 0.]
6.600485801696777,-0.005241081118583679,-0.05266270041465759,0.65650874376297,0.7524595856666565,[0. 0. 0. 0. 0. 0. 0. 0. 0.],9.6435546875,-11.474609375,186.279296875,[0. 0. 0. 0. 0. 0. 0. 0. 0.],0.66845703125,-0.15380859375,0.96630859375,[0. 0. 0. 0. 0. 0. 0. 0. 0.]
6.619835615158081,-0.004137242212891579,-0.054081253707408905,0.6801983714103699,0.7310187816619873,[0. 0. 0. 0. 0. 0. 0. 0. 0.],8.36181640625,-5.615234375,184.99755859375,[0. 0. 0. 0. 0. 0. 0. 0. 0.],0.53076171875,-0.12109375,0.8359375,[0. 0. 0. 0. 0. 0. 0. 0. 0.]
6.6404149532318115,-0.006900121923536062,-0.05420253053307533,0.7032790184020996,0.7088111042976379,[0. 0. 0. 0. 0. 0. 0. 0. 0.],-6.8359375,12.02392578125,182.31201171875,[0. 0. 0. 0. 0. 0. 0. 0. 0.],0.54833984375,-0.1533203125,0.79541015625,[0. 0. 0. 0. 0. 0. 0. 0. 0.]
6.660818338394165,-0.005390231031924486,-0.05620795115828514,0.7247869372367859,0.6866554021835327,[0. 0. 0. 0. 0. 0. 0. 0. 0.],8.36181640625,-10.07080078125,172.9736328125,[0. 0. 0. 0. 0. 0. 0. 0. 0.],0.64697265625,-0.2978515625,1.13427734375,[0. 0. 0. 0. 0. 0. 0. 0. 0.]
6.679966688156128,-0.0040787807665765285,-0.05519647151231766,0.7444682121276855,0.6653599739074707,[0. 0. 0. 0. 0. 0. 0. 0. 0.],23.92578125,-13.427734375,162.65869140625,[0. 0. 0. 0. 0. 0. 0. 0. 0.],0.71923828125,-0.26171875,1.13720703125,[0. 0. 0. 0. 0. 0. 0. 0. 0.]
6.69607949256897,-0.0023253951221704483,-0.054135918617248535,0.7630285620689392,0.6440895199775696,[0. 0. 0. 0. 0. 0. 0. 0. 0.],12.02392578125,-6.89697265625,160.70556640625,[0. 0. 0. 0. 0. 0. 0. 0. 0.],0.6376953125,-0.1845703125,0.92822265625,[0. 0. 0. 0. 0. 0. 0. 0. 0.]
6.7200071811676025,-0.000794934225268662,-0.055978819727897644,0.7809189558029175,0.6221185326576233,[0. 0. 0. 0. 0. 0. 0. 0. 0.],-0.91552734375,-6.2255859375,162.29248046875,[0. 0. 0. 0. 0. 0. 0. 0. 0.],0.51025390625,-0.1396484375,0.7587890625,[0. 0. 0. 0. 0. 0. 0. 0. 0.]
6.740510940551758,-0.001197442295961082,-0.05691459774971008,0.7978195548057556,0.600202739238739,[0. 0. 0. 0. 0. 0. 0. 0. 0.],4.69970703125,-8.4228515625,154.296875,[0. 0. 0. 0. 0. 0. 0. 0. 0.],0.58642578125,-0.21533203125,0.8935546875,[0. 0. 0. 0. 0. 0. 0. 0. 0.]
6.76157546043396,0.00125733925960958,-0.05690228193998337,0.8132346272468567,0.5791460275650024,[0. 0. 0. 0. 0. 0. 0. 0. 0.],17.2119140625,-3.41796875,142.88330078125,[0. 0. 0. 0. 0. 0. 0. 0. 0.],0.7392578125,-0.25732421875,1.126953125,[0. 0. 0. 0. 0. 0. 0. 0. 0.]
6.776134252548218,0.004603264387696981,-0.05477987974882126,0.8274680376052856,0.5588153004646301,[0. 0. 0. 0. 0. 0. 0. 0. 0.],21.78955078125,-14.22119140625,137.451171875,[0. 0. 0. 0. 0. 0. 0. 0. 0.],0.7236328125,-0.18115234375,1.1298828125,[0. 0. 0. 0. 0. 0. 0. 0. 0.]
6.799933910369873,0.006979132536798716,-0.0552201084792614,0.8408200740814209,0.5384456515312195,[0. 0. 0. 0. 0. 0. 0. 0. 0.],9.33837890625,-2.9296875,136.3525390625,[0. 0. 0. 0. 0. 0. 0. 0. 0.],0.6982421875,-0.10546875,0.93505859375,[0. 0. 0. 0. 0. 0. 0. 0. 0.]
6.820477247238159,0.007282971404492855,-0.05395020544528961,0.8532952070236206,0.5185784697532654,[0. 0. 0. 0. 0. 0. 0. 0. 0.],14.95361328125,5.2490234375,135.31494140625,[0. 0. 0. 0. 0. 0. 0. 0. 0.],0.6533203125,-0.13037109375,0.9677734375,[0. 0. 0. 0. 0. 0. 0. 0. 0.]
6.836140155792236,0.008784390054643154,-0.054157909005880356,0.8651556968688965,0.4984930157661438,[0. 0. 0. 0. 0. 0. 0. 0. 0.],8.30078125,-10.19287109375,136.1083984375,[0. 0. 0. 0. 0. 0. 0. 0. 0.],0.41357421875,-0.09228515625,0.69775390625,[0. 0. 0. 0. 0. 0. 0. 0. 0.]
6.860021114349365,0.007845318876206875,-0.05581408739089966,0.8765171766281128,0.47805947065353394,[0. 0. 0. 0. 0. 0. 0. 0. 0.],-11.16943359375,9.82666015625,131.89697265625,[0. 0. 0. 0. 0. 0. 0. 0. 0.],0.634765625,-0.0625,0.78271484375,[0. 0. 0. 0. 0. 0. 0. 0. 0.]
6.8805577754974365,0.007211422082036734,-0.05631718412041664,0.8866645097732544,0.45891445875167847,[0. 0. 0. 0. 0. 0. 0. 0. 0.],2.50244140625,2.9296875,118.2861328125,[0. 0. 0. 0. 0. 0. 0. 0. 0.],0.7685546875,-0.16357421875,1.1826171875,[0. 0. 0. 0. 0. 0. 0. 0. 0.]
6.901189088821411,0.009015941992402077,-0.056885793805122375,0.8953294157981873,0.4416648745536804,[0. 0. 0. 0. 0. 0. 0. 0. 0.],9.70458984375,-10.7421875,104.248046875,[0. 0. 0. 0. 0. 0. 0. 0. 0.],0.7412109375,-0.13818359375,1.1064453125,[0. 0. 0. 0. 0. 0. 0. 0. 0.]
6.9206037521362305,0.009882355108857155,-0.055378105491399765,0.9027264714241028,0.42652153968811035,[0. 0. 0. 0. 0. 0. 0. 0. 0.],11.53564453125,8.056640625,92.1630859375,[0. 0. 0. 0. 0. 0. 0. 0. 0.],0.74658203125,-0.0966796875,1.04931640625,[0. 0. 0. 0. 0. 0. 0. 0. 0.]
6.940251350402832,0.00982656516134739,-0.055110570043325424,0.9089701175689697,0.413085401058197,[0. 0. 0. 0. 0. 0. 0. 0. 0.],-2.5634765625,-2.13623046875,80.4443359375,[0. 0. 0. 0. 0. 0. 0. 0. 0.],0.51171875,-0.0068359375,0.7197265625,[0. 0. 0. 0. 0. 0. 0. 0. 0.]
6.960906028747559,0.010104494169354439,-0.05582580342888832,0.9135159254074097,0.4028276205062866,[0. 0. 0. 0. 0. 0. 0. 0. 0.],-0.42724609375,2.86865234375,52.79541015625,[0. 0. 0. 0. 0. 0. 0. 0. 0.],0.6552734375,0.0068359375,0.9580078125,[0. 0. 0. 0. 0. 0. 0. 0. 0.]
6.98047137260437,0.011064124293625355,-0.05536038801074028,0.9159651398658752,0.3972667157649994,[0. 0. 0. 0. 0. 0. 0. 0. 0.],4.69970703125,-6.77490234375,25.390625,[0. 0. 0. 0. 0. 0. 0. 0. 0.],0.6162109375,0.02685546875,1.0068359375,[0. 0. 0. 0. 0. 0. 0. 0. 0.]
7.001373529434204,0.013656584545969963,-0.0570661798119545,0.9167828559875488,0.3950520157814026,[0. 0. 0. 0. 0. 0. 0. 0. 0.],-12.14599609375,-5.06591796875,4.57763671875,[0. 0. 0. 0. 0. 0. 0. 0. 0.],0.576171875,0.10791015625,0.8701171875,[0. 0. 0. 0. 0. 0. 0. 0. 0.]
7.015672922134399,0.013926236890256405,-0.05813915655016899,0.9159218072891235,0.3968793749809265,[0. 0. 0. 0. 0. 0. 0. 0. 0.],-3.7841796875,9.82666015625,-17.822265625,[0. 0. 0. 0. 0. 0. 0. 0. 0.],0.65087890625,0.06689453125,0.99267578125,[0. 0. 0. 0. 0. 0. 0. 0. 0.]
7.041604995727539,0.013355225324630737,-0.05842017009854317,0.9136822819709778,0.40198683738708496,[0. 0. 0. 0. 0. 0. 0. 0. 0.],-8.544921875,0.48828125,-38.9404296875,[0. 0. 0. 0. 0. 0. 0. 0. 0.],0.5966796875,0.083984375,1.009765625,[0. 0. 0. 0. 0. 0. 0. 0. 0.]
7.060940265655518,0.015194030478596687,-0.05963963642716408,0.9097312688827515,0.41061100363731384,[0. 0. 0. 0. 0. 0. 0. 0. 0.],-5.18798828125,6.28662109375,-63.4765625,[0. 0. 0. 0. 0. 0. 0. 0. 0.],0.66455078125,0.10693359375,1.1767578125,[0. 0. 0. 0. 0. 0. 0. 0. 0.]
7.080292224884033,0.015110806562006474,-0.058253489434719086,0.9041920304298401,0.42286521196365356,[0. 0. 0. 0. 0. 0. 0. 0. 0.],5.615234375,4.69970703125,-83.3740234375,[0. 0. 0. 0. 0. 0. 0. 0. 0.],0.50341796875,0.11376953125,1.130859375,[0. 0. 0. 0. 0. 0. 0. 0. 0.]
7.1016247272491455,0.016834739595651627,-0.05528019741177559,0.8975980877876282,0.4370107650756836,[0. 0. 0. 0. 0. 0. 0. 0. 0.],9.58251953125,19.4091796875,-93.20068359375,[0. 0. 0. 0. 0. 0. 0. 0. 0.],0.22802734375,0.23291015625,1.0244140625,[0. 0. 0. 0. 0. 0. 0. 0. 0.]
7.120224952697754,0.015161016955971718,-0.050516221672296524,0.8904989957809448,0.4519179165363312,[0. 0. 0. 0. 0. 0. 0. 0. 0.],11.474609375,24.23095703125,-94.42138671875,[0. 0. 0. 0. 0. 0. 0. 0. 0.],0.00927734375,0.302734375,1.00439453125,[0. 0. 0. 0. 0. 0. 0. 0. 0.]
7.139903545379639,0.01359223760664463,-0.045819997787475586,0.8829495906829834,0.46702873706817627,[0. 0. 0. 0. 0. 0. 0. 0. 0.],6.8359375,19.22607421875,-97.5341796875,[0. 0. 0. 0. 0. 0. 0. 0. 0.],-0.13720703125,0.32861328125,0.921875,[0. 0. 0. 0. 0. 0. 0. 0. 0.]
7.159949541091919,0.012064922600984573,-0.04194166883826256,0.8750302791595459,0.48209697008132935,[0. 0. 0. 0. 0. 0. 0. 0. 0.],5.615234375,16.845703125,-97.35107421875,[0. 0. 0. 0. 0. 0. 0. 0. 0.],-0.140625,0.32421875,0.9501953125,[0. 0. 0. 0. 0. 0. 0. 0. 0.]
7.180316686630249,0.012354915961623192,-0.03924064338207245,0.8667430281639099,0.4970555007457733,[0. 0. 0. 0. 0. 0. 0. 0. 0.],1.89208984375,2.8076171875,-99.2431640625,[0. 0. 0. 0. 0. 0. 0. 0. 0.],-0.18798828125,0.3564453125,1.01416015625,[0. 0. 0. 0. 0. 0. 0. 0. 0.]
7.200405597686768,0.012143285945057869,-0.0367182120680809,0.8580136299133301,0.5121688842773438,[0. 0. 0. 0. 0. 0. 0. 0. 0.],2.86865234375,10.07080078125,-100.2197265625,[0. 0. 0. 0. 0. 0. 0. 0. 0.],-0.1064453125,0.34130859375,1.02392578125,[0. 0. 0. 0. 0. 0. 0. 0. 0.]
7.220428466796875,0.011499405838549137,-0.03305185213685036,0.8491809964179993,0.5269412994384766,[0. 0. 0. 0. 0. 0. 0. 0. 0.],4.39453125,11.1083984375,-96.74072265625,[0. 0. 0. 0. 0. 0. 0. 0. 0.],-0.158203125,0.32421875,1.05810546875,[0. 0. 0. 0. 0. 0. 0. 0. 0.]
7.23992133140564,0.01213874388486147,-0.0304874200373888,0.8404175639152527,0.5409449934959412,[0. 0. 0. 0. 0. 0. 0. 0. 0.],4.33349609375,0.0,-93.8720703125,[0. 0. 0. 0. 0. 0. 0. 0. 0.],-0.2177734375,0.33837890625,0.96337890625,[0. 0. 0. 0. 0. 0. 0. 0. 0.]
7.2602667808532715,0.012411470524966717,-0.02790805883705616,0.831551194190979,0.5546078681945801,[0. 0. 0. 0. 0. 0. 0. 0. 0.],2.86865234375,9.58251953125,-91.9189453125,[0. 0. 0. 0. 0. 0. 0. 0. 0.],-0.11572265625,0.326171875,0.93115234375,[0. 0. 0. 0. 0. 0. 0. 0. 0.]
7.280510902404785,0.011255020275712013,-0.025224274024367332,0.8227481245994568,0.5677346587181091,[0. 0. 0. 0. 0. 0. 0. 0. 0.],-0.91552734375,7.26318359375,-87.95166015625,[0. 0. 0. 0. 0. 0. 0. 0. 0.],-0.18212890625,0.33642578125,0.986328125,[0. 0. 0. 0. 0. 0. 0. 0. 0.]
7.3012213706970215,0.01113062258809805,-0.02331317402422428,0.8142850995063782,0.5798899531364441,[0. 0. 0. 0. 0. 0. 0. 0. 0.],1.0986328125,2.74658203125,-82.09228515625,[0. 0. 0. 0. 0. 0. 0. 0. 0.],-0.244140625,0.34228515625,1.078125,[0. 0. 0. 0. 0. 0. 0. 0. 0.]
7.319962739944458,0.011156000196933746,-0.021205080673098564,0.8061453700065613,0.5912322998046875,[0. 0. 0. 0. 0. 0. 0. 0. 0.],1.15966796875,3.662109375,-76.96533203125,[0. 0. 0. 0. 0. 0. 0. 0. 0.],-0.18310546875,0.32958984375,1.0,[0. 0. 0. 0. 0. 0. 0. 0. 0.]
7.340010643005371,0.010915419086813927,-0.019390754401683807,0.7982937097549438,0.6018573045730591,[0. 0. 0. 0. 0. 0. 0. 0. 0.],-1.64794921875,3.2958984375,-73.486328125,[0. 0. 0. 0. 0. 0. 0. 0. 0.],-0.16552734375,0.3203125,0.95361328125,[0. 0. 0. 0. 0. 0. 0. 0. 0.]
7.3606531620025635,0.011216391809284687,-0.017652437090873718,0.7909090518951416,0.6115762591362,[0. 0. 0. 0. 0. 0. 0. 0. 0.],2.99072265625,-2.0751953125,-67.87109375,[0. 0. 0. 0. 0. 0. 0. 0. 0.],-0.2001953125,0.3173828125,1.02490234375,[0. 0. 0. 0. 0. 0. 0. 0. 0.]
7.381089925765991,0.012261292897164822,-0.016179101541638374,0.7840847969055176,0.6203217506408691,[0. 0. 0. 0. 0. 0. 0. 0. 0.],1.8310546875,-5.43212890625,-60.05859375,[0. 0. 0. 0. 0. 0. 0. 0. 0.],-0.19580078125,0.3251953125,1.0400390625,[0. 0. 0. 0. 0. 0. 0. 0. 0.]
7.4003283977508545,0.013267633505165577,-0.01477636955678463,0.7781112790107727,0.6278125643730164,[0. 0. 0. 0. 0. 0. 0. 0. 0.],0.48828125,-3.2958984375,-51.3916015625,[0. 0. 0. 0. 0. 0. 0. 0. 0.],-0.12939453125,0.318359375,1.00732421875,[0. 0. 0. 0. 0. 0. 0. 0. 0.]
7.419998645782471,0.014355422928929329,-0.013280563056468964,0.7731873393058777,0.6338762044906616,[0. 0. 0. 0. 0. 0. 0. 0. 0.],3.11279296875,-1.8310546875,-40.46630859375,[0. 0. 0. 0. 0. 0. 0. 0. 0.],-0.11083984375,0.27978515625,0.986328125,[0. 0. 0. 0. 0. 0. 0. 0. 0.]
7.435638189315796,0.015559474937617779,-0.012037698179483414,0.7697717547416687,0.6380161643028259,[0. 0. 0. 0. 0. 0. 0. 0. 0.],-0.06103515625,-4.94384765625,-25.20751953125,[0. 0. 0. 0. 0. 0. 0. 0. 0.],-0.10400390625,0.298828125,0.97021484375,[0. 0. 0. 0. 0. 0. 0. 0. 0.]
7.455676794052124,0.016770610585808754,-0.011436264961957932,0.7675731778144836,0.6406398415565491,[0. 0. 0. 0. 0. 0. 0. 0. 0.],-1.52587890625,-8.11767578125,-15.9912109375,[0. 0. 0. 0. 0. 0. 0. 0. 0.],-0.0673828125,0.33935546875,1.03515625,[0. 0. 0. 0. 0. 0. 0. 0. 0.]
7.480624437332153,0.018128732219338417,-0.010660127736628056,0.7661759257316589,0.6422865986824036,[0. 0. 0. 0. 0. 0. 0. 0. 0.],1.3427734375,-4.69970703125,-10.07080078125,[0. 0. 0. 0. 0. 0. 0. 0. 0.],-0.0029296875,0.31396484375,1.0615234375,[0. 0. 0. 0. 0. 0. 0. 0. 0.]
7.500424385070801,0.01964464783668518,-0.009543614462018013,0.7653502821922302,0.6432434320449829,[0. 0. 0. 0. 0. 0. 0. 0. 0.],2.197265625,-5.4931640625,-4.82177734375,[0. 0. 0. 0. 0. 0. 0. 0. 0.],-0.01123046875,0.3193359375,1.00244140625,[0. 0. 0. 0. 0. 0. 0. 0. 0.]
7.520115852355957,0.02096891961991787,-0.008626277558505535,0.7649499773979187,0.6436904668807983,[0. 0. 0. 0. 0. 0. 0. 0. 0.],-0.30517578125,-2.74658203125,-2.8076171875,[0. 0. 0. 0. 0. 0. 0. 0. 0.],0.0048828125,0.318359375,0.96533203125,[0. 0. 0. 0. 0. 0. 0. 0. 0.]
7.540652275085449,0.021505393087863922,-0.00769178569316864,0.7647075057029724,0.643972635269165,[0. 0. 0. 0. 0. 0. 0. 0. 0.],-5.126953125,2.38037109375,-1.953125,[0. 0. 0. 0. 0. 0. 0. 0. 0.],0.0107421875,0.263671875,0.9521484375,[0. 0. 0. 0. 0. 0. 0. 0. 0.]
7.560287237167358,0.0204489603638649,-0.006967766676098108,0.764389157295227,0.6443932056427002,[0. 0. 0. 0. 0. 0. 0. 0. 0.],-5.615234375,0.1220703125,-2.9296875,[0. 0. 0. 0. 0. 0. 0. 0. 0.],-0.013671875,0.044921875,1.0,[0. 0. 0. 0. 0. 0. 0. 0. 0.]
7.578330039978027,0.018986301496624947,-0.005305966828018427,0.7641798257827759,0.6447018980979919,[0. 0. 0. 0. 0. 0. 0. 0. 0.],0.0,3.47900390625,-0.79345703125,[0. 0. 0. 0. 0. 0. 0. 0. 0.],-0.05712890625,0.0673828125,1.10986328125,[0. 0. 0. 0. 0. 0. 0. 0. 0.]
7.600062608718872,0.017846371978521347,-0.004234591498970985,0.7641812562942505,0.6447408199310303,[0. 0. 0. 0. 0. 0. 0. 0. 0.],-3.7841796875,0.91552734375,1.03759765625,[0. 0. 0. 0. 0. 0. 0. 0. 0.],-0.08642578125,-0.0107421875,0.99365234375,[0. 0. 0. 0. 0. 0. 0. 0. 0.]
7.619986295700073,0.015794577077031136,-0.005186557769775391,0.764654278755188,0.6442263722419739,[0. 0. 0. 0. 0. 0. 0. 0. 0.],-6.4697265625,-1.64794921875,6.4697265625,[0. 0. 0. 0. 0. 0. 0. 0. 0.],-0.099609375,-0.1337890625,0.9677734375,[0. 0. 0. 0. 0. 0. 0. 0. 0.]
7.641521215438843,0.01406488474458456,-0.0070232064463198185,0.7655957937240601,0.6431297659873962,[0. 0. 0. 0. 0. 0. 0. 0. 0.],-5.0048828125,-4.57763671875,9.33837890625,[0. 0. 0. 0. 0. 0. 0. 0. 0.],-0.03173828125,-0.13818359375,1.01513671875,[0. 0. 0. 0. 0. 0. 0. 0. 0.]
7.661411285400391,0.01255058590322733,-0.009299942292273045,0.7670256495475769,0.6414262652397156,[0. 0. 0. 0. 0. 0. 0. 0. 0.],-5.7373046875,-4.39453125,14.95361328125,[0. 0. 0. 0. 0. 0. 0. 0. 0.],-0.01806640625,-0.17236328125,0.97314453125,[0. 0. 0. 0. 0. 0. 0. 0. 0.]
7.684131383895874,0.012256566435098648,-0.011593764647841454,0.7690240740776062,0.6389972567558289,[0. 0. 0. 0. 0. 0. 0. 0. 0.],0.30517578125,-4.8828125,18.798828125,[0. 0. 0. 0. 0. 0. 0. 0. 0.],0.08447265625,-0.158203125,1.05615234375,[0. 0. 0. 0. 0. 0. 0. 0. 0.]
7.700086355209351,0.01307055912911892,-0.013292303308844566,0.7714221477508545,0.6360506415367126,[0. 0. 0. 0. 0. 0. 0. 0. 0.],2.13623046875,-3.11279296875,23.74267578125,[0. 0. 0. 0. 0. 0. 0. 0. 0.],0.1142578125,-0.11962890625,1.0361328125,[0. 0. 0. 0. 0. 0. 0. 0. 0.]
7.7153239250183105,0.013172029517591,-0.015571940690279007,0.7741708755493164,0.6326479315757751,[0. 0. 0. 0. 0. 0. 0. 0. 0.],-2.685546875,-6.04248046875,26.91650390625,[0. 0. 0. 0. 0. 0. 0. 0. 0.],0.06591796875,-0.0908203125,0.94873046875,[0. 0. 0. 0. 0. 0. 0. 0. 0.]
7.740112066268921,0.012523707933723927,-0.01829724945127964,0.7775448560714722,0.6284365057945251,[0. 0. 0. 0. 0. 0. 0. 0. 0.],-2.01416015625,-3.2958984375,33.02001953125,[0. 0. 0. 0. 0. 0. 0. 0. 0.],0.06494140625,-0.0849609375,0.966796875,[0. 0. 0. 0. 0. 0. 0. 0. 0.]
7.760433197021484,0.011527220718562603,-0.020491456612944603,0.781348466873169,0.6236521005630493,[0. 0. 0. 0. 0. 0. 0. 0. 0.],0.9765625,0.0,35.15625,[0. 0. 0. 0. 0. 0. 0. 0. 0.],0.0849609375,-0.11767578125,1.01171875,[0. 0. 0. 0. 0. 0. 0. 0. 0.]
7.780178785324097,0.010869904421269894,-0.021740661934018135,0.7851132154464722,0.6188752055168152,[0. 0. 0. 0. 0. 0. 0. 0. 0.],2.50244140625,4.150390625,33.50830078125,[0. 0. 0. 0. 0. 0. 0. 0. 0.],0.1142578125,-0.13037109375,1.05322265625,[0. 0. 0. 0. 0. 0. 0. 0. 0.]
7.80068039894104,0.010419349186122417,-0.022638261318206787,0.7887346744537354,0.6142284274101257,[0. 0. 0. 0. 0. 0. 0. 0. 0.],2.74658203125,1.46484375,33.50830078125,[0. 0. 0. 0. 0. 0. 0. 0. 0.],0.04736328125,-0.103515625,0.9931640625,[0. 0. 0. 0. 0. 0. 0. 0. 0.]
7.820034742355347,0.009201823733747005,-0.02381463162600994,0.7923877239227295,0.6094833612442017,[0. 0. 0. 0. 0. 0. 0. 0. 0.],-0.91552734375,2.8076171875,34.48486328125,[0. 0. 0. 0. 0. 0. 0. 0. 0.],0.0419921875,-0.064453125,0.9677734375,[0. 0. 0. 0. 0. 0. 0. 0. 0.]
7.839966058731079,0.006972299888730049,-0.02451421692967415,0.7962273359298706,0.6044605374336243,[0. 0. 0. 0. 0. 0. 0. 0. 0.],-0.30517578125,0.67138671875,37.90283203125,[0. 0. 0. 0. 0. 0. 0. 0. 0.],0.0029296875,-0.0537109375,1.037109375,[0. 0. 0. 0. 0. 0. 0. 0. 0.]
7.860486268997192,0.005445783492177725,-0.024637863039970398,0.8004845380783081,0.5988220572471619,[0. 0. 0. 0. 0. 0. 0. 0. 0.],-2.44140625,-3.90625,41.1376953125,[0. 0. 0. 0. 0. 0. 0. 0. 0.],-0.033203125,-0.06201171875,0.998046875,[0. 0. 0. 0. 0. 0. 0. 0. 0.]
7.880000352859497,0.0032596029341220856,-0.025022223591804504,0.8048921227455139,0.5928845405578613,[0. 0. 0. 0. 0. 0. 0. 0. 0.],-3.60107421875,0.79345703125,42.78564453125,[0. 0. 0. 0. 0. 0. 0. 0. 0.],0.00732421875,-0.05029296875,0.93798828125,[0. 0. 0. 0. 0. 0. 0. 0. 0.]
7.895199537277222,0.0010261274874210358,-0.0250115767121315,0.80916827917099,0.5870435833930969,[0. 0. 0. 0. 0. 0. 0. 0. 0.],3.35693359375,5.4931640625,40.8935546875,[0. 0. 0. 0. 0. 0. 0. 0. 0.],0.03271484375,-0.05419921875,1.11279296875,[0. 0. 0. 0. 0. 0. 0. 0. 0.]
7.920269250869751,-0.00039932201616466045,-0.024091757833957672,0.813218355178833,0.5814597606658936,[0. 0. 0. 0. 0. 0. 0. 0. 0.],3.41796875,2.0751953125,38.330078125,[0. 0. 0. 0. 0. 0. 0. 0. 0.],0.01416015625,-0.04345703125,1.0078125,[0. 0. 0. 0. 0. 0. 0. 0. 0.]
7.935379266738892,-0.0014377981424331665,-0.02239900827407837,0.8168354034423828,0.5764341354370117,[0. 0. 0. 0. 0. 0. 0. 0. 0.],-4.150390625,2.8076171875,33.63037109375,[0. 0. 0. 0. 0. 0. 0. 0. 0.],-0.00244140625,-0.01171875,0.8447265625,[0. 0. 0. 0. 0. 0. 0. 0. 0.]
7.960566282272339,-0.0039545041508972645,-0.02162426896393299,0.819832444190979,0.5721815824508667,[0. 0. 0. 0. 0. 0. 0. 0. 0.],-7.99560546875,5.67626953125,27.03857421875,[0. 0. 0. 0. 0. 0. 0. 0. 0.],-0.015625,-0.03271484375,0.94921875,[0. 0. 0. 0. 0. 0. 0. 0. 0.]
7.9807960987091064,-0.006549951154738665,-0.02105889283120632,0.8220506906509399,0.568987250328064,[0. 0. 0. 0. 0. 0. 0. 0. 0.],-5.79833984375,3.84521484375,18.49365234375,[0. 0. 0. 0. 0. 0. 0. 0. 0.],-0.0498046875,-0.03369140625,1.02197265625,[0. 0. 0. 0. 0. 0. 0. 0. 0.]
7.999959707260132,-0.009120897389948368,-0.020123595371842384,0.8234469294548035,0.5669630765914917,[0. 0. 0. 0. 0. 0. 0. 0. 0.],-4.5166015625,4.45556640625,11.3525390625,[0. 0. 0. 0. 0. 0. 0. 0. 0.],-0.06396484375,-0.0224609375,1.01123046875,[0. 0. 0. 0. 0. 0. 0. 0. 0.]
8.019958734512329,-0.0105368597432971,-0.018554937094449997,0.8242654800415039,0.5658013820648193,[0. 0. 0. 0. 0. 0. 0. 0. 0.],3.41796875,-0.54931640625,7.38525390625,[0. 0. 0. 0. 0. 0. 0. 0. 0.],-0.0927734375,-0.037109375,1.068359375,[0. 0. 0. 0. 0. 0. 0. 0. 0.]
8.039918184280396,-0.01071682758629322,-0.017220472916960716,0.8249598145484924,0.5648273825645447,[0. 0. 0. 0. 0. 0. 0. 0. 0.],0.1220703125,-7.26318359375,7.01904296875,[0. 0. 0. 0. 0. 0. 0. 0. 0.],-0.11181640625,0.017578125,0.96484375,[0. 0. 0. 0. 0. 0. 0. 0. 0.]
8.060861825942993,-0.010849234648048878,-0.016424333676695824,0.8258370757102966,0.563565194606781,[0. 0. 0. 0. 0. 0. 0. 0. 0.],-5.43212890625,0.79345703125,10.07080078125,[0. 0. 0. 0. 0. 0. 0. 0. 0.],-0.0419921875,0.03662109375,1.04052734375,[0. 0. 0. 0. 0. 0. 0. 0. 0.]
8.079968690872192,-0.010995431803166866,-0.01548097562044859,0.8267471790313721,0.5622531771659851,[0. 0. 0. 0. 0. 0. 0. 0. 0.],-6.4697265625,1.89208984375,7.99560546875,[0. 0. 0. 0. 0. 0. 0. 0. 0.],-0.009765625,0.0166015625,1.02685546875,[0. 0. 0. 0. 0. 0. 0. 0. 0.]
8.100053310394287,-0.011238385923206806,-0.013391793705523014,0.8269720673561096,0.5619712471961975,[0. 0. 0. 0. 0. 0. 0. 0. 0.],5.7373046875,8.72802734375,-2.50244140625,[0. 0. 0. 0. 0. 0. 0. 0. 0.],-0.0126953125,-0.0029296875,1.08349609375,[0. 0. 0. 0. 0. 0. 0. 0. 0.]
8.12006163597107,-0.011733273044228554,-0.009983450174331665,0.8261163234710693,0.5632889866828918,[0. 0. 0. 0. 0. 0. 0. 0. 0.],7.2021484375,4.8828125,-12.20703125,[0. 0. 0. 0. 0. 0. 0. 0. 0.],-0.0849609375,0.02978515625,0.974609375,[0. 0. 0. 0. 0. 0. 0. 0. 0.]
8.140060663223267,-0.012584244832396507,-0.00807899422943592,0.8243744969367981,0.5658472776412964,[0. 0. 0. 0. 0. 0. 0. 0. 0.],-5.06591796875,4.08935546875,-21.30126953125,[0. 0. 0. 0. 0. 0. 0. 0. 0.],-0.10009765625,0.08544921875,0.8857421875,[0. 0. 0. 0. 0. 0. 0. 0. 0.]
8.155502796173096,-0.013394794426858425,-0.006779205519706011,0.8217073678970337,0.5697120428085327,[0. 0. 0. 0. 0. 0. 0. 0. 0.],-3.2958984375,-1.220703125,-29.9072265625,[0. 0. 0. 0. 0. 0. 0. 0. 0.],-0.08154296875,0.05712890625,1.06787109375,[0. 0. 0. 0. 0. 0. 0. 0. 0.]
8.181519031524658,-0.013374405913054943,-0.005812864284962416,0.8187367916107178,0.5739838480949402,[0. 0. 0. 0. 0. 0. 0. 0. 0.],3.35693359375,-2.685546875,-29.9072265625,[0. 0. 0. 0. 0. 0. 0. 0. 0.],-0.08935546875,-0.01025390625,1.11474609375,[0. 0. 0. 0. 0. 0. 0. 0. 0.]
8.200318336486816,-0.013362778350710869,-0.0039573428221046925,0.8157610893249512,0.5782210826873779,[0. 0. 0. 0. 0. 0. 0. 0. 0.],5.37109375,1.52587890625,-28.564453125,[0. 0. 0. 0. 0. 0. 0. 0. 0.],-0.0126953125,-0.00927734375,0.970703125,[0. 0. 0. 0. 0. 0. 0. 0. 0.]
8.22087049484253,-0.012128854170441628,-0.001973162405192852,0.813270092010498,0.581756591796875,[0. 0. 0. 0. 0. 0. 0. 0. 0.],1.52587890625,-3.41796875,-22.03369140625,[0. 0. 0. 0. 0. 0. 0. 0. 0.],-0.03173828125,0.01416015625,0.9013671875,[0. 0. 0. 0. 0. 0. 0. 0. 0.]
8.242053508758545,-0.011613307520747185,-0.0012087540235370398,0.8117022514343262,0.5839548110961914,[0. 0. 0. 0. 0. 0. 0. 0. 0.],-4.0283203125,-4.5166015625,-11.29150390625,[0. 0. 0. 0. 0. 0. 0. 0. 0.],-0.03564453125,0.017578125,0.9970703125,[0. 0. 0. 0. 0. 0. 0. 0. 0.]
8.255970001220703,-0.011109470389783382,-0.00025240101967938244,0.8111552596092224,0.5847253203392029,[0. 0. 0. 0. 0. 0. 0. 0. 0.],0.1220703125,-3.96728515625,-2.44140625,[0. 0. 0. 0. 0. 0. 0. 0. 0.],-0.01611328125,-0.00390625,1.08935546875,[0. 0. 0. 0. 0. 0. 0. 0. 0.]
8.286497354507446,-0.009048019535839558,-4.613607598003e-05,0.8112348318099976,0.5846505165100098,[0. 0. 0. 0. 0. 0. 0. 0. 0.],5.79833984375,-1.15966796875,4.0283203125,[0. 0. 0. 0. 0. 0. 0. 0. 0.],0.02294921875,0.01025390625,1.08544921875,[0. 0. 0. 0. 0. 0. 0. 0. 0.]
8.300042152404785,-0.00652987090870738,0.0012409716146066785,0.8122329711914062,0.5832952857017517,[0. 0. 0. 0. 0. 0. 0. 0. 0.],4.0283203125,-5.4931640625,12.63427734375,[0. 0. 0. 0. 0. 0. 0. 0. 0.],-0.0048828125,0.02587890625,0.98486328125,[0. 0. 0. 0. 0. 0. 0. 0. 0.]
8.32032036781311,-0.0036461325362324715,0.0014251467073336244,0.813861608505249,0.5810458064079285,[0. 0. 0. 0. 0. 0. 0. 0. 0.],1.77001953125,-7.62939453125,18.49365234375,[0. 0. 0. 0. 0. 0. 0. 0. 0.],0.0244140625,0.02490234375,0.90185546875,[0. 0. 0. 0. 0. 0. 0. 0. 0.]
8.34107780456543,-0.00047423283103853464,0.0008254332351498306,0.8163891434669495,0.5775014162063599,[0. 0. 0. 0. 0. 0. 0. 0. 0.],2.8076171875,-6.7138671875,28.62548828125,[0. 0. 0. 0. 0. 0. 0. 0. 0.],0.03076171875,0.01904296875,0.94970703125,[0. 0. 0. 0. 0. 0. 0. 0. 0.]
8.360657930374146,0.0023003695532679558,-1.196218136101379e-06,0.8197413682937622,0.5727293491363525,[0. 0. 0. 0. 0. 0. 0. 0. 0.],-1.708984375,-5.31005859375,35.7666015625,[0. 0. 0. 0. 0. 0. 0. 0. 0.],0.0791015625,0.04638671875,0.97509765625,[0. 0. 0. 0. 0. 0. 0. 0. 0.]
8.380311727523804,0.004102190025150776,-0.0008945739245973527,0.8237665295600891,0.5669137835502625,[0. 0. 0. 0. 0. 0. 0. 0. 0.],-3.2958984375,-3.2958984375,43.76220703125,[0. 0. 0. 0. 0. 0. 0. 0. 0.],0.076171875,0.05712890625,1.0185546875,[0. 0. 0. 0. 0. 0. 0. 0. 0.]
8.403311967849731,0.007316126953810453,-0.0012964758789166808,0.8285195827484131,0.5599108934402466,[0. 0. 0. 0. 0. 0. 0. 0. 0.],4.2724609375,-7.26318359375,51.1474609375,[0. 0. 0. 0. 0. 0. 0. 0. 0.],0.04248046875,0.0302734375,1.0888671875,[0. 0. 0. 0. 0. 0. 0. 0. 0.]
8.419984817504883,0.009479698725044727,-0.0008944140863604844,0.8335282206535339,0.5523948669433594,[0. 0. 0. 0. 0. 0. 0. 0. 0.],0.9765625,-4.08935546875,51.025390625,[0. 0. 0. 0. 0. 0. 0. 0. 0.],0.044921875,0.09423828125,0.99658203125,[0. 0. 0. 0. 0. 0. 0. 0. 0.]
8.43995714187622,0.011135432869195938,-0.002403977559879422,0.8382629156112671,0.5451472401618958,[0. 0. 0. 0. 0. 0. 0. 0. 0.],-17.08984375,-13.671875,48.9501953125,[0. 0. 0. 0. 0. 0. 0. 0. 0.],-0.00048828125,0.13525390625,0.998046875,[0. 0. 0. 0. 0. 0. 0. 0. 0.]
8.45629072189331,0.013092674314975739,-0.0047155460342764854,0.8426873087882996,0.5382234454154968,[0. 0. 0. 0. 0. 0. 0. 0. 0.],-4.8828125,-1.3427734375,45.71533203125,[0. 0. 0. 0. 0. 0. 0. 0. 0.],0.16748046875,0.00732421875,1.1044921875,[0. 0. 0. 0. 0. 0. 0. 0. 0.]
8.479945659637451,0.014824865385890007,-0.0050691645592451096,0.8470463752746582,0.5312880277633667,[0. 0. 0. 0. 0. 0. 0. 0. 0.],6.53076171875,-3.35693359375,47.18017578125,[0. 0. 0. 0. 0. 0. 0. 0. 0.],0.11181640625,0.0087890625,1.0244140625,[0. 0. 0. 0. 0. 0. 0. 0. 0.]
8.500475645065308,0.01786940172314644,-0.0037867999635636806,0.8515338897705078,0.5239813327789307,[0. 0. 0. 0. 0. 0. 0. 0. 0.],6.2255859375,-7.6904296875,49.86572265625,[0. 0. 0. 0. 0. 0. 0. 0. 0.],0.033203125,0.05126953125,0.87939453125,[0. 0. 0. 0. 0. 0. 0. 0. 0.]
8.520018815994263,0.018810879439115524,-0.0035593623761087656,0.8561127781867981,0.516434371471405,[0. 0. 0. 0. 0. 0. 0. 0. 0.],-0.9765625,4.5166015625,51.69677734375,[0. 0. 0. 0. 0. 0. 0. 0. 0.],0.08935546875,0.0498046875,0.92724609375,[0. 0. 0. 0. 0. 0. 0. 0. 0.]
8.540163516998291,0.01996895670890808,-0.0042933314107358456,0.8606952428817749,0.5087107419967651,[0. 0. 0. 0. 0. 0. 0. 0. 0.],7.2021484375,-4.0283203125,51.025390625,[0. 0. 0. 0. 0. 0. 0. 0. 0.],0.04638671875,-0.001953125,1.11962890625,[0. 0. 0. 0. 0. 0. 0. 0. 0.]
8.555403709411621,0.021795358508825302,-0.00454346789047122,0.8650001287460327,0.5012776851654053,[0. 0. 0. 0. 0. 0. 0. 0. 0.],6.7138671875,-4.08935546875,48.7060546875,[0. 0. 0. 0. 0. 0. 0. 0. 0.],0.06689453125,0.03466796875,1.0380859375,[0. 0. 0. 0. 0. 0. 0. 0. 0.]
8.575205564498901,0.023144938051700592,-0.003981550689786673,0.8692085146903992,0.4938877820968628,[0. 0. 0. 0. 0. 0. 0. 0. 0.],-7.4462890625,-1.40380859375,48.9501953125,[0. 0. 0. 0. 0. 0. 0. 0. 0.],0.0576171875,0.0791015625,0.92333984375,[0. 0. 0. 0. 0. 0. 0. 0. 0.]
8.600318908691406,0.024267099797725677,-0.004363859537988901,0.8734295964241028,0.48632580041885376,[0. 0. 0. 0. 0. 0. 0. 0. 0.],-8.056640625,-4.69970703125,50.59814453125,[0. 0. 0. 0. 0. 0. 0. 0. 0.],0.044921875,0.03369140625,0.9169921875,[0. 0. 0. 0. 0. 0. 0. 0. 0.]
8.620062828063965,0.02486523985862732,-0.005567940883338451,0.8777092695236206,0.4785155653953552,[0. 0. 0. 0. 0. 0. 0. 0. 0.],3.0517578125,6.7138671875,50.59814453125,[0. 0. 0. 0. 0. 0. 0. 0. 0.],0.12255859375,-0.00927734375,1.07568359375,[0. 0. 0. 0. 0. 0. 0. 0. 0.]
8.639981746673584,0.026179254055023193,-0.005414668004959822,0.8818626403808594,0.47074809670448303,[0. 0. 0. 0. 0. 0. 0. 0. 0.],6.89697265625,0.91552734375,49.01123046875,[0. 0. 0. 0. 0. 0. 0. 0. 0.],0.05859375,0.01708984375,1.05859375,[0. 0. 0. 0. 0. 0. 0. 0. 0.]
8.655713319778442,0.026623981073498726,-0.004165968857705593,0.885910153388977,0.4630734622478485,[0. 0. 0. 0. 0. 0. 0. 0. 0.],-1.953125,-9.033203125,50.048828125,[0. 0. 0. 0. 0. 0. 0. 0. 0.],-0.01513671875,0.06103515625,0.93017578125,[0. 0. 0. 0. 0. 0. 0. 0. 0.]
8.680018186569214,0.02692624367773533,-0.003712258767336607,0.8899050354957581,0.4553353190422058,[0. 0. 0. 0. 0. 0. 0. 0. 0.],-2.44140625,-5.92041015625,50.35400390625,[0. 0. 0. 0. 0. 0. 0. 0. 0.],0.0458984375,0.02587890625,0.97802734375,[0. 0. 0. 0. 0. 0. 0. 0. 0.]
8.699885368347168,0.028198648244142532,-0.0050229174084961414,0.8938841819763184,0.4473821222782135,[0. 0. 0. 0. 0. 0. 0. 0. 0.],-3.90625,-5.37109375,51.3916015625,[0. 0. 0. 0. 0. 0. 0. 0. 0.],0.04443359375,0.0234375,0.96484375,[0. 0. 0. 0. 0. 0. 0. 0. 0.]
8.720096349716187,0.027684159576892853,-0.004895618185400963,0.8980188369750977,0.4390578866004944,[0. 0. 0. 0. 0. 0. 0. 0. 0.],-1.46484375,-4.8828125,54.01611328125,[0. 0. 0. 0. 0. 0. 0. 0. 0.],0.02197265625,0.02685546875,1.025390625,[0. 0. 0. 0. 0. 0. 0. 0. 0.]
8.741478443145752,0.027018198743462563,-0.004582277499139309,0.9021993279457092,0.4304480254650116,[0. 0. 0. 0. 0. 0. 0. 0. 0.],-1.220703125,-6.34765625,55.96923828125,[0. 0. 0. 0. 0. 0. 0. 0. 0.],0.04296875,0.0166015625,0.98876953125,[0. 0. 0. 0. 0. 0. 0. 0. 0.]
8.75995922088623,0.028017353266477585,-0.004596100654453039,0.9063447713851929,0.4215839207172394,[0. 0. 0. 0. 0. 0. 0. 0. 0.],-3.96728515625,1.8310546875,56.15234375,[0. 0. 0. 0. 0. 0. 0. 0. 0.],0.09228515625,0.03759765625,0.97314453125,[0. 0. 0. 0. 0. 0. 0. 0. 0.]
8.780103921890259,0.029834479093551636,-0.005258860532194376,0.9104289412498474,0.41255471110343933,[0. 0. 0. 0. 0. 0. 0. 0. 0.],-2.9296875,-5.06591796875,56.94580078125,[0. 0. 0. 0. 0. 0. 0. 0. 0.],0.078125,0.03466796875,1.02978515625,[0. 0. 0. 0. 0. 0. 0. 0. 0.]
8.800132036209106,0.03167043253779411,-0.006076046731323004,0.9143885970115662,0.4035513997077942,[0. 0. 0. 0. 0. 0. 0. 0. 0.],-3.41796875,-0.18310546875,55.17578125,[0. 0. 0. 0. 0. 0. 0. 0. 0.],0.13037109375,0.0361328125,1.02783203125,[0. 0. 0. 0. 0. 0. 0. 0. 0.]
8.820237874984741,0.03294793516397476,-0.0065421187318861485,0.9180317521095276,0.39508163928985596,[0. 0. 0. 0. 0. 0. 0. 0. 0.],4.150390625,3.90625,52.24609375,[0. 0. 0. 0. 0. 0. 0. 0. 0.],0.15771484375,0.029296875,1.07568359375,[0. 0. 0. 0. 0. 0. 0. 0. 0.]
8.840133428573608,0.0334710069000721,-0.005634210538119078,0.9217429757118225,0.3863133192062378,[0. 0. 0. 0. 0. 0. 0. 0. 0.],7.9345703125,-3.7841796875,55.908203125,[0. 0. 0. 0. 0. 0. 0. 0. 0.],-0.001953125,0.03369140625,1.009765625,[0. 0. 0. 0. 0. 0. 0. 0. 0.]
8.860323190689087,0.03452562913298607,-0.004141318146139383,0.9258105158805847,0.37638527154922485,[0. 0. 0. 0. 0. 0. 0. 0. 0.],13.24462890625,-16.845703125,64.453125,[0. 0. 0. 0. 0. 0. 0. 0. 0.],-0.1669921875,0.09423828125,1.15478515625,[0. 0. 0. 0. 0. 0. 0. 0. 0.]
8.875130414962769,0.03663616627454758,-0.002910163952037692,0.9299039840698242,0.3659619390964508,[0. 0. 0. 0. 0. 0. 0. 0. 0.],8.36181640625,-10.80322265625,62.01171875,[0. 0. 0. 0. 0. 0. 0. 0. 0.],-0.00732421875,0.03271484375,1.05712890625,[0. 0. 0. 0. 0. 0. 0. 0. 0.]
8.900394678115845,0.039626345038414,-0.0034984129015356302,0.9335088729858398,0.3563407063484192,[0. 0. 0. 0. 0. 0. 0. 0. 0.],-1.708984375,-8.11767578125,57.373046875,[0. 0. 0. 0. 0. 0. 0. 0. 0.],0.20166015625,0.052734375,0.76806640625,[0. 0. 0. 0. 0. 0. 0. 0. 0.]
8.920305967330933,0.04186268150806427,-0.004855471197515726,0.9367921948432922,0.3473389744758606,[0. 0. 0. 0. 0. 0. 0. 0. 0.],-2.25830078125,-1.8310546875,54.50439453125,[0. 0. 0. 0. 0. 0. 0. 0. 0.],0.2255859375,0.04541015625,0.9091796875,[0. 0. 0. 0. 0. 0. 0. 0. 0.]
8.935266256332397,0.044031817466020584,-0.00563979335129261,0.9400582313537598,0.33811241388320923,[0. 0. 0. 0. 0. 0. 0. 0. 0.],2.9296875,-0.8544921875,56.5185546875,[0. 0. 0. 0. 0. 0. 0. 0. 0.],0.12841796875,0.01513671875,1.0205078125,[0. 0. 0. 0. 0. 0. 0. 0. 0.]
8.960485219955444,0.044546328485012054,-0.004777126479893923,0.943291425704956,0.3289286494255066,[0. 0. 0. 0. 0. 0. 0. 0. 0.],2.50244140625,11.65771484375,54.26025390625,[0. 0. 0. 0. 0. 0. 0. 0. 0.],0.154296875,0.09130859375,1.09521484375,[0. 0. 0. 0. 0. 0. 0. 0. 0.]
8.975595474243164,0.043442174792289734,-0.004102450329810381,0.9465251564979553,0.3196658492088318,[0. 0. 0. 0. 0. 0. 0. 0. 0.],-8.23974609375,3.84521484375,59.6923828125,[0. 0. 0. 0. 0. 0. 0. 0. 0.],0.06005859375,0.09228515625,1.0439453125,[0. 0. 0. 0. 0. 0. 0. 0. 0.]
9.000093698501587,0.042815033346414566,-0.00469279894605279,0.9499257206916809,0.30949321389198303,[0. 0. 0. 0. 0. 0. 0. 0. 0.],0.30517578125,-8.85009765625,62.744140625,[0. 0. 0. 0. 0. 0. 0. 0. 0.],-0.03857421875,-0.0087890625,0.97216796875,[0. 0. 0. 0. 0. 0. 0. 0. 0.]
9.02076244354248,0.04202305153012276,-0.005925262346863747,0.9532347321510315,0.29923656582832336,[0. 0. 0. 0. 0. 0. 0. 0. 0.],0.91552734375,-4.57763671875,60.302734375,[0. 0. 0. 0. 0. 0. 0. 0. 0.],0.06396484375,-0.01123046875,0.89404296875,[0. 0. 0. 0. 0. 0. 0. 0. 0.]
9.041137456893921,0.043287549167871475,-0.008170337416231632,0.9561740159988403,0.2894664406776428,[0. 0. 0. 0. 0. 0. 0. 0. 0.],-2.74658203125,-5.92041015625,57.31201171875,[0. 0. 0. 0. 0. 0. 0. 0. 0.],0.09619140625,0.00634765625,0.91943359375,[0. 0. 0. 0. 0. 0. 0. 0. 0.]
9.060134649276733,0.045250579714775085,-0.009289142675697803,0.9589364528656006,0.27983415126800537,[0. 0. 0. 0. 0. 0. 0. 0. 0.],4.39453125,-2.13623046875,57.06787109375,[0. 0. 0. 0. 0. 0. 0. 0. 0.],0.15380859375,-0.00830078125,1.0849609375,[0. 0. 0. 0. 0. 0. 0. 0. 0.]
9.07993769645691,0.045934047549963,-0.009399679489433765,0.9616827964782715,0.27012595534324646,[0. 0. 0. 0. 0. 0. 0. 0. 0.],-0.06103515625,-3.662109375,58.4716796875,[0. 0. 0. 0. 0. 0. 0. 0. 0.],0.0693359375,0.01953125,1.0400390625,[0. 0. 0. 0. 0. 0. 0. 0. 0.]
9.10050106048584,0.04381558299064636,-0.011505904607474804,0.9645429253578186,0.2600092887878418,[0. 0. 0. 0. 0. 0. 0. 0. 0.],-9.09423828125,2.25830078125,62.07275390625,[0. 0. 0. 0. 0. 0. 0. 0. 0.],0.0400390625,-0.0830078125,0.99951171875,[0. 0. 0. 0. 0. 0. 0. 0. 0.]
9.120043277740479,0.043432656675577164,-0.014542038552463055,0.9674333930015564,0.24894756078720093,[0. 0. 0. 0. 0. 0. 0. 0. 0.],-6.4697265625,-7.2021484375,67.56591796875,[0. 0. 0. 0. 0. 0. 0. 0. 0.],-0.01123046875,-0.18115234375,1.00732421875,[0. 0. 0. 0. 0. 0. 0. 0. 0.]
9.139994144439697,0.04308392107486725,-0.01693367399275303,0.9702909588813782,0.2374708652496338,[0. 0. 0. 0. 0. 0. 0. 0. 0.],0.8544921875,-2.197265625,67.5048828125,[0. 0. 0. 0. 0. 0. 0. 0. 0.],0.138671875,-0.25244140625,1.06494140625,[0. 0. 0. 0. 0. 0. 0. 0. 0.]
