time,imu.ypr.x,imu.ypr.y,imu.ypr.z,imu.linear_acceleration.x,imu.linear_acceleration.y,imu.linear_acceleration.z,imu.angular_velocity.x,imu.angular_velocity.y,imu.angular_velocity.z,imu.compass.x,imu.compass.y,imu.compass.z,imu.orientation.x,imu.orientation.y,imu.orientation.z,imu.orientation.w
0.2612111568450928,-2.049515227451862,1.835257742717263,-18.357477234128467,-0.0322265625,0.0361328125,1.005859375,-0.1220703125,-0.732421875,-0.244140625,0.0,0.0,0.0,0.01509895920753479,0.018659833818674088,0.15918613970279694,0.9869568347930908
0.2827906608581543,-2.102761888117401,1.8063047842689905,-18.355995083078575,-0.03173828125,0.037109375,1.0048828125,-0.18310546875,-0.3662109375,-0.18310546875,0.0,0.0,0.0,0.015598163940012455,0.01848425902426243,0.15916991233825684,0.986954927444458
0.3000326156616211,-2.083197451570134,1.7946462916860135,-18.35214456393398,-0.0322265625,0.03662109375,1.00439453125,0.0,-0.54931640625,-0.06103515625,0.0,0.0,0.0,0.015446530655026436,0.018356159329414368,0.15914197266101837,0.986964225769043
0.31568145751953125,-2.087012539108409,1.8879468891917992,-18.347848374946043,-0.033203125,0.03662109375,1.0048828125,0.0,-0.9765625,-0.1220703125,0.0,0.0,0.0,0.015350070782005787,0.01916438899934292,0.1590876430273056,0.9869590997695923
0.3399088382720947,-2.0712655379769447,1.893986483965383,-18.34358804445125,-0.03369140625,0.037109375,1.0068359375,0.0,-0.8544921875,-0.1220703125,0.0,0.0,0.0,0.01520673930644989,0.019193977117538452,0.1590525060892105,0.9869664311408997
0.36151790618896484,-2.058268541760057,1.9066413303935357,-18.34030101591318,-0.03369140625,0.0361328125,1.00537109375,0.0,-0.42724609375,-0.244140625,0.0,0.0,0.0,0.015077722258865833,0.019284488633275032,0.15902411937713623,0.9869711995124817
0.38022422790527344,-2.104521302158914,1.9691277429022205,-18.33962653473264,-0.0341796875,0.037109375,1.001953125,-0.244140625,-0.48828125,-0.18310546875,0.0,0.0,0.0,0.01538916863501072,0.019886715337634087,0.15899914503097534,0.9869585037231445
0.4014251232147217,-2.0781847330495795,1.880925027838203,-18.33399845885655,-0.033203125,0.0361328125,1.00341796875,-0.3662109375,-0.42724609375,-0.18310546875,0.0,0.0,0.0,0.015286129899322987,0.019089816138148308,0.15897108614444733,0.9869803190231323
0.4157683849334717,-2.0862755190082827,1.8644395125027309,-18.332407024779936,-0.03271484375,0.0361328125,1.00439453125,0.3662109375,-0.79345703125,0.0,0.0,0.0,0.0,0.015379033982753754,0.01895885169506073,0.1589590162038803,0.9869832992553711
0.4402914047241211,-2.091917895592948,1.8391477488929968,-18.32915585473501,-0.03271484375,0.0361328125,1.00390625,0.06103515625,-0.8544921875,-0.18310546875,0.0,0.0,0.0,0.01546337641775608,0.018748417496681213,0.1589345932006836,0.9869900345802307
0.4604024887084961,-1.9472459512356153,1.834202478490496,-18.321931222140428,-0.0322265625,0.0341796875,1.00439453125,-0.3662109375,-0.732421875,-0.18310546875,0.0,0.0,0.0,0.014225340448319912,0.01850426010787487,0.15889674425125122,0.9870193004608154
0.4799201488494873,-2.070329802060653,1.7922646900997947,-18.320244165415435,-0.03173828125,0.0361328125,1.005859375,-0.18310546875,-0.42724609375,-0.244140625,0.0,0.0,0.0,0.01534411869943142,0.018313510343432426,0.1588696986436844,0.9870104789733887
0.5004723072052002,-2.051595020054131,1.8528450529432228,-18.316709542519956,-0.03271484375,0.0361328125,1.00537109375,0.244140625,-0.67138671875,-0.06103515625,0.0,0.0,0.0,0.015099046751856804,0.018808815628290176,0.15883156657218933,0.9870111346244812
0.5206060409545898,-2.0501538501392584,1.846980268323709,-18.312874391300994,-0.0322265625,0.03662109375,1.00439453125,0.1220703125,-0.91552734375,-0.06103515625,0.0,0.0,0.0,0.015095417387783527,0.018755801022052765,0.15879978239536285,0.9870173335075378
0.5411231517791748,-2.121529326965892,1.8053252924533285,-18.311694476121872,-0.03173828125,0.037109375,1.00341796875,-0.244140625,-0.79345703125,-0.244140625,0.0,0.0,0.0,0.015768321231007576,0.018495796248316765,0.15878549218177795,0.9870139956474304
0.5550839900970459,-2.0451304594481257,1.7732930926281438,-18.306407909704284,-0.03125,0.03564453125,1.001953125,-0.42724609375,-0.54931640625,-0.18310546875,0.0,0.0,0.0,0.015155652537941933,0.018113350495696068,0.15875788033008575,0.9870349764823914
0.5799322128295898,-2.0477259313327307,1.8990348475356686,-18.30337018307092,-0.033203125,0.03564453125,1.00390625,0.1220703125,-0.30517578125,-0.06103515625,0.0,0.0,0.0,0.015003703534603119,0.019199514761567116,0.15870913863182068,0.98702472448349
0.6024858951568604,-2.0226958493455727,1.9806492048149742,-18.299212305413675,-0.03466796875,0.03564453125,1.00537109375,0.18310546875,-0.79345703125,-0.1220703125,0.0,0.0,0.0,0.014675374142825603,0.019867226481437683,0.15866318345069885,0.9870238304138184
0.6227681636810303,-2.0101291550463953,1.9655555539663039,-18.295392522120345,-0.03466796875,0.03564453125,1.0068359375,-0.18310546875,-0.9765625,-0.244140625,0.0,0.0,0.0,0.014588768593966961,0.01971934363245964,0.15863510966300964,0.9870325922966003
0.6405222415924072,-2.067571045966203,1.9371983160797033,-18.293094163464637,-0.03369140625,0.0361328125,1.0029296875,-0.3662109375,-0.67138671875,-0.18310546875,0.0,0.0,0.0,0.015123337507247925,0.01955432817339897,0.1586104780435562,0.9870318174362183
0.6607699394226074,-2.1347858703712403,1.9483255480113004,-18.293413474808332,-0.0341796875,0.03759765625,1.00244140625,0.1220703125,-0.244140625,-0.06103515625,0.0,0.0,0.0,0.015686772763729095,0.019743235781788826,0.15859967470169067,0.9870209693908691
0.6802661418914795,-2.1609715349886,1.798114106793676,-18.291082672754065,-0.03173828125,0.0380859375,1.00537109375,-0.06103515625,-0.54931640625,0.0,0.0,0.0,0.0,0.016121404245495796,0.01848544552922249,0.15860290825366974,0.987037718296051
0.7001383304595947,-2.1101256858163207,1.8691668571820261,-18.285343606303964,-0.03369140625,0.037109375,1.005859375,-0.18310546875,-0.732421875,-0.1220703125,0.0,0.0,0.0,0.015585689805448055,0.019026249647140503,0.15854883193969727,0.9870446920394897
0.7200093269348145,-2.015326075231129,1.8647317165331605,-18.278720030356343,-0.03271484375,0.03564453125,1.0048828125,0.06103515625,-0.79345703125,-0.1220703125,0.0,0.0,0.0,0.014776366762816906,0.018856022506952286,0.15850822627544403,0.9870670437812805
0.7401766777038574,-2.096245674205797,1.899424808648594,-18.278836143572235,-0.033203125,0.03662109375,1.00390625,0.1220703125,-0.732421875,-0.18310546875,0.0,0.0,0.0,0.015425202436745167,0.019266769289970398,0.15848959982395172,0.9870522022247314
0.760413408279419,-2.1457762850760256,1.8511684549453962,-18.27737277554256,-0.0322265625,0.0380859375,1.0068359375,-0.3662109375,-0.54931640625,-0.18310546875,0.0,0.0,0.0,0.01591908000409603,0.01891944743692875,0.1584775298833847,0.9870530366897583
0.7757866382598877,-2.080787675453589,1.8106443022694758,-18.272077671388505,-0.03173828125,0.03662109375,1.00537109375,-0.3662109375,-0.48828125,-0.06103515625,0.0,0.0,0.0,0.015416393987834454,0.01847982220351696,0.15844985842704773,0.9870737195014954
0.8004703521728516,-1.9958621705307082,1.8999468912332769,-18.26640519928281,-0.03515625,0.0341796875,1.00244140625,0.1220703125,-0.48828125,0.0,0.0,0.0,0.0,0.014561880379915237,0.01913084276020527,0.15839925408363342,0.9870824217796326
0.8151423931121826,-1.967514110710805,1.9931303083061147,-18.26231220842268,-0.03564453125,0.03466796875,1.005859375,0.18310546875,-0.9765625,-0.1220703125,0.0,0.0,0.0,0.014189131557941437,0.019893746823072433,0.15835274755954742,0.9870802164077759
0.8400473594665527,-2.096680671878562,1.8519759113713385,-18.266702312511708,-0.0322265625,0.037109375,1.005859375,-0.30517578125,-0.8544921875,-0.06103515625,0.0,0.0,0.0,0.015496822074055672,0.018857061862945557,0.15839356184005737,0.9870743751525879
0.8623230457305908,-2.162100864079179,1.808493219567745,-18.2649725671044,-0.03173828125,0.03759765625,1.0048828125,-0.244140625,-0.48828125,-0.244140625,0.0,0.0,0.0,0.016120946034789085,0.018572725355625153,0.15837588906288147,0.9870726466178894
0.8968958854675293,-2.140953958078585,1.8829922272791897,-18.26203217066671,-0.033203125,0.037109375,1.0048828125,0.1220703125,-0.244140625,0.0,0.0,0.0,0.0,0.01583593338727951,0.01918475143611431,0.15834034979343414,0.9870712161064148
0.914984941482544,-2.0141564053357643,1.9120446503572504,-18.254588972018688,-0.03369140625,0.03564453125,1.00537109375,0.0,-0.67138671875,-0.06103515625,0.0,0.0,0.0,0.014704667031764984,0.019258810207247734,0.15829230844974518,0.9870949983596802
0.9220285415649414,-2.140146928539466,1.8549745778603859,-18.25436528332337,-0.033203125,0.03759765625,1.00341796875,-0.244140625,-1.03759765625,-0.244140625,0.0,0.0,0.0,0.015869110822677612,0.018941259011626244,0.15827958285808563,0.9870851635932922
0.9399516582489014,-2.0966932650398444,1.8929339945029664,-18.250132273585255,-0.033203125,0.03662109375,1.001953125,-0.244140625,-0.8544921875,-0.18310546875,0.0,0.0,0.0,0.015442883595824242,0.01920761726796627,0.15824344754219055,0.9870924949645996
0.96024489402771,-2.110867401671502,1.8467973473199997,-18.248141273442197,-0.033203125,0.037109375,1.00634765625,0.0,-0.18310546875,-0.1220703125,0.0,0.0,0.0,0.015629258006811142,0.018829533830285072,0.15823227167129517,0.987098753452301
0.9820334911346436,-2.0888665085812446,1.83163688868351,-18.24234415038415,-0.03271484375,0.0361328125,1.0048828125,-0.06103515625,-0.48828125,-0.244140625,0.0,0.0,0.0,0.015461697243154049,0.01866779290139675,0.15818867087364197,0.9871113300323486
1.0012037754058838,-2.003787110958627,1.9084882562337895,-18.236031348043763,-0.03369140625,0.03515625,1.00390625,-0.18310546875,-1.03759765625,-0.06103515625,0.0,0.0,0.0,0.014623386785387993,0.019211487844586372,0.1581348031759262,0.9871224164962769
1.0201318264007568,-2.050577535311211,1.862076053606495,-18.234212810177247,-0.03271484375,0.03564453125,1.0029296875,-0.1220703125,-0.9765625,-0.18310546875,0.0,0.0,0.0,0.015091034583747387,0.018876047804951668,0.15811948478221893,0.9871242046356201
1.0398836135864258,-2.028764899309952,1.8682044408392888,-18.229151640002268,-0.033203125,0.0361328125,1.00244140625,0.06103515625,-0.48828125,-0.244140625,0.0,0.0,0.0,0.014895481988787651,0.018898077309131622,0.1580784171819687,0.9871334433555603
1.0600898265838623,-2.089912381297903,1.9209339281186104,-18.228287621072262,-0.03369140625,0.03662109375,1.0029296875,-0.244140625,-0.3662109375,-0.18310546875,0.0,0.0,0.0,0.015349366702139378,0.019436495378613472,0.15805137157440186,0.9871203303337097
1.0801072120666504,-2.106852317656592,1.9409280262533535,-18.22559823408657,-0.0341796875,0.0361328125,1.00341796875,-0.18310546875,-0.732421875,-0.18310546875,0.0,0.0,0.0,0.015468068420886993,0.01963171176612377,0.1580216884613037,0.9871193766593933
1.1032521724700928,-1.9727174341978853,1.8032591602293995,-18.21895587511873,-0.0322265625,0.03466796875,1.0048828125,0.0,-0.8544921875,0.06103515625,0.0,0.0,0.0,0.014504200778901577,0.01826005056500435,0.15801087021827698,0.9871619939804077
1.1162352561950684,-2.145825377060685,1.882262037368233,-18.22193554514415,-0.033203125,0.03759765625,1.00244140625,0.18310546875,-0.8544921875,-0.06103515625,0.0,0.0,0.0,0.015885619446635246,0.019179638475179672,0.15799428522586823,0.9871259331703186
1.1350462436676025,-2.0983670882733207,1.853113991641792,-18.21689486553668,-0.0322265625,0.03662109375,1.0029296875,-0.06103515625,-0.48828125,-0.1220703125,0.0,0.0,0.0,0.015517967753112316,0.018862450495362282,0.1579640507698059,0.9871427416801453
1.1552183628082275,-2.0868659034846657,1.8587503918109334,-18.21284797845345,-0.0322265625,0.037109375,1.005859375,-0.3662109375,-0.6103515625,-0.244140625,0.0,0.0,0.0,0.015411761589348316,0.018894603475928307,0.15793006122112274,0.9871492385864258
1.1761729717254639,-2.093675388643757,2.006108094615962,-18.208618383809917,-0.03515625,0.03662109375,1.00439453125,0.0,-0.244140625,-0.18310546875,0.0,0.0,0.0,0.015267313458025455,0.02017270028591156,0.15786588191986084,0.9871364235877991
1.2000422477722168,-1.986684317276915,1.9588130900384433,-18.202565128657994,-0.03466796875,0.03466796875,1.00341796875,0.244140625,-0.67138671875,-0.1220703125,0.0,0.0,0.0,0.014412089250981808,0.019617147743701935,0.15784069895744324,0.9871646165847778
1.2199549674987793,-1.9599991950764983,1.84315237418074,-18.198145996264994,-0.03173828125,0.03466796875,1.00537109375,0.0,-1.15966796875,-0.18310546875,0.0,0.0,0.0,0.014342817477881908,0.018583543598651886,0.15782687067985535,0.9871878027915955
1.2404720783233643,-2.0602542058178264,1.8307378650340072,-18.197973533988453,-0.0322265625,0.0361328125,1.00439453125,-0.30517578125,-0.91552734375,-0.30517578125,0.0,0.0,0.0,0.015223679132759571,0.01861465722322464,0.1578112542629242,0.9871764779090881
1.260387659072876,-1.9927113188892167,1.8683897097205255,-18.19328460912324,-0.03271484375,0.03515625,1.00341796875,-0.06103515625,-0.244140625,-0.18310546875,0.0,0.0,0.0,0.014590544626116753,0.018845373764634132,0.15777534246444702,0.987187385559082
1.2820754051208496,-2.006589622952448,1.8085075202763197,-18.189862684349063,-0.0322265625,0.03515625,1.0048828125,0.0,-0.30517578125,-0.18310546875,0.0,0.0,0.0,0.014793391339480877,0.01834820955991745,0.15775394439697266,0.9871971607208252
1.2955379486083984,-2.0824621390173,1.855343621518978,-18.189051599385124,-0.03271484375,0.03662109375,1.00634765625,-0.244140625,-0.9765625,-0.18310546875,0.0,0.0,0.0,0.015382452867925167,0.018855992704629898,0.15772640705108643,0.9871830344200134
1.320138692855835,-2.087585848111867,1.8067126746284872,-18.18641002372362,-0.03173828125,0.03662109375,1.0029296875,-0.244140625,-1.0986328125,-0.1220703125,0.0,0.0,0.0,0.015494200401008129,0.01844378001987934,0.15771150588989258,0.9871914386749268
1.3397691249847412,-2.0894161253660193,1.8851887734275834,-18.18217359889092,-0.03369140625,0.037109375,1.00341796875,0.06103515625,-0.54931640625,-0.30517578125,0.0,0.0,0.0,0.015402277931571007,0.019121725112199783,0.15766064822673798,0.9871880412101746
1.359968662261963,-2.1695508929163707,1.8673064844068439,-18.182938580077963,-0.0322265625,0.0380859375,1.00439453125,-0.1220703125,-0.244140625,-0.1220703125,0.0,0.0,0.0,0.016117190942168236,0.019078044220805168,0.15765713155269623,0.9871781468391418
1.3801817893981934,-2.0362490790929937,1.89103754979123,-18.17442987191942,-0.033203125,0.0361328125,1.00537109375,-0.30517578125,-0.54931640625,-0.244140625,0.0,0.0,0.0,0.014937462285161018,0.01909794472157955,0.1576017439365387,0.9872051477432251
1.401564598083496,-1.957615459056164,1.8811297200698918,-18.16875569226643,-0.03369140625,0.0341796875,1.0029296875,0.06103515625,-0.91552734375,-0.1220703125,0.0,0.0,0.0,0.014274644665420055,0.018903741613030434,0.15756763517856598,0.9872240424156189
1.4199388027191162,-2.027094918057884,2.0132861965468223,-18.16857127715884,-0.03466796875,0.03564453125,1.0048828125,0.1220703125,-0.732421875,-0.1220703125,0.0,0.0,0.0,0.01469087228178978,0.020137667655944824,0.15753130614757538,0.9871993660926819
1.4412972927093506,-2.0894208211210734,1.8825909536654515,-18.16809487146423,-0.033203125,0.03662109375,1.00390625,-0.244140625,-0.54931640625,-0.18310546875,0.0,0.0,0.0,0.01540825143456459,0.01909746415913105,0.15753982961177826,0.9872077107429504
1.460038423538208,-2.111436228363317,1.8787831232031693,-18.16434168251531,-0.033203125,0.03662109375,1.00390625,-0.30517578125,-0.54931640625,-0.18310546875,0.0,0.0,0.0,0.015603793784976006,0.019094416871666908,0.15750451385974884,0.9872103333473206
1.4803204536437988,-2.173469287065842,1.9463467141427007,-18.161947701211222,-0.0341796875,0.0380859375,1.0029296875,-0.06103515625,-0.6103515625,-0.18310546875,0.0,0.0,0.0,0.016045397147536278,0.0197613388299942,0.15746094286441803,0.9871971011161804
1.4999220371246338,-2.077420178749361,1.9035195070560167,-18.154767464846245,-0.033203125,0.0361328125,1.00390625,0.1220703125,-0.79345703125,-0.244140625,0.0,0.0,0.0,0.015278223901987076,0.019259469583630562,0.1574232429265976,0.9872252345085144
1.520031452178955,-2.020703781985456,1.7836192714361452,-18.150466153216428,-0.03125,0.03564453125,1.005859375,0.0,-0.8544921875,-0.18310546875,0.0,0.0,0.0,0.014955607242882252,0.018148107454180717,0.15741658210754395,0.9872522950172424
1.5397944450378418,-2.0620052955662884,1.85732138817052,-18.148591266289262,-0.0322265625,0.0361328125,1.005859375,-0.244140625,-0.67138671875,-0.18310546875,0.0,0.0,0.0,0.015210144221782684,0.018839504569768906,0.1573808491230011,0.9872410893440247
1.5604946613311768,-2.0375651711686906,1.8992410338712384,-18.143069058345304,-0.033203125,0.03564453125,1.00537109375,-0.1220703125,-0.42724609375,-0.18310546875,0.0,0.0,0.0,0.014942723326385021,0.019166335463523865,0.15732991695404053,0.9872470498085022
1.5811638832092285,-1.94193270439158,1.812301050030027,-18.13615007671608,-0.0322265625,0.03466796875,1.00341796875,0.18310546875,-0.48828125,-0.06103515625,0.0,0.0,0.0,0.014239707961678505,0.018285201862454414,0.15730087459087372,0.9872787594795227
1.601952075958252,-1.9027916650225873,1.9588632492401608,-18.13070470840029,-0.0341796875,0.03369140625,1.00439453125,0.0,-1.0986328125,-0.1220703125,0.0,0.0,0.0,0.013701538555324078,0.019493430852890015,0.15723592042922974,0.987273633480072
1.6200923919677734,-1.9993129101654457,1.9513666897392485,-18.131377482033535,-0.0341796875,0.03515625,1.00341796875,-0.06103515625,-1.0986328125,-0.1220703125,0.0,0.0,0.0,0.014543330296874046,0.019561372697353363,0.1572265326976776,0.9872617125511169
1.6402196884155273,-2.031230384156915,1.886090358398025,-18.12996021778076,-0.033203125,0.03564453125,1.00390625,0.18310546875,-0.67138671875,-0.1220703125,0.0,0.0,0.0,0.014908448792994022,0.019042644649744034,0.15722033381462097,0.9872673749923706
1.65993070602417,-2.0495273937263216,1.8396141227472618,-18.126514387344486,-0.03173828125,0.03662109375,1.00439453125,-0.1220703125,-0.30517578125,-0.244140625,0.0,0.0,0.0,0.015130646526813507,0.018666911870241165,0.1571958065032959,0.9872751832008362
1.6752674579620361,-2.111329293214124,1.9139498462488609,-18.12559572690112,-0.03369140625,0.037109375,1.00390625,-0.3662109375,-0.48828125,-0.1220703125,0.0,0.0,0.0,0.015560911037027836,0.019391939043998718,0.1571643203496933,0.9872595071792603
1.7000086307525635,-1.9369859398851983,1.9052772135502372,-18.115722688455868,-0.03369140625,0.0341796875,1.00390625,-0.1220703125,-0.8544921875,-0.18310546875,0.0,0.0,0.0,0.014072426594793797,0.0190768763422966,0.1571100503206253,0.9872966408729553
1.7210633754730225,-2.0316340056481805,1.8619518295409654,-18.115753424307133,-0.03271484375,0.03564453125,1.00537109375,0.244140625,-0.732421875,-0.1220703125,0.0,0.0,0.0,0.014947498217225075,0.018833396956324577,0.1571020931005478,0.9872896671295166
1.7438228130340576,-2.0101344911316845,1.9723599164835175,-18.109923857850525,-0.03466796875,0.03564453125,1.00537109375,-0.18310546875,-0.9765625,-0.18310546875,0.0,0.0,0.0,0.014611350372433662,0.019754331558942795,0.1570361852645874,0.9872872233390808
1.760239839553833,-2.047773956100332,1.9213490755541003,-18.10939964083173,-0.03369140625,0.0361328125,1.00439453125,-0.42724609375,-0.54931640625,-0.1220703125,0.0,0.0,0.0,0.015005900524556637,0.019366394728422165,0.15703421831130981,0.9872891902923584
1.7811071872711182,-2.0261835146905103,1.9230047560975938,-18.104543376331847,-0.0341796875,0.03564453125,1.00390625,-0.18310546875,-0.48828125,-0.18310546875,0.0,0.0,0.0,0.014818424358963966,0.019350439310073853,0.1569957286119461,0.9872985482215881
1.8010544776916504,-1.9996904915605003,1.9815678652583408,-18.102330395040763,-0.03466796875,0.03515625,1.00439453125,0.1220703125,-0.732421875,-0.06103515625,0.0,0.0,0.0,0.014510015025734901,0.01981838420033455,0.15697096288204193,0.987297773361206
1.8160219192504883,-1.9617195489736954,1.8847638075951618,-18.097962489066543,-0.03369140625,0.03466796875,1.00537109375,0.0,-0.91552734375,-0.1220703125,0.0,0.0,0.0,0.014316683635115623,0.01893184520304203,0.15695638954639435,0.9873203635215759
1.8352255821228027,-1.9760074509437158,1.8603924119760868,-18.09469424354869,-0.03271484375,0.03515625,1.0048828125,-0.30517578125,-0.79345703125,-0.1220703125,0.0,0.0,0.0,0.01447382289916277,0.01874103955924511,0.15693004429340363,0.9873258471488953
1.8600821495056152,-2.0860445732369715,1.9211623125689827,-18.093973658591253,-0.03369140625,0.0361328125,1.0048828125,-0.18310546875,-0.30517578125,-0.18310546875,0.0,0.0,0.0,0.01533849909901619,0.01941516250371933,0.15689487755298615,0.9873053431510925
1.8802030086517334,-2.1304329054358266,1.8717439729332366,-18.091613828233015,-0.033203125,0.037109375,1.00390625,0.18310546875,-0.48828125,-0.1220703125,0.0,0.0,0.0,0.015789257362484932,0.01904987171292305,0.15687602758407593,0.9873083829879761
1.9001424312591553,-2.000967096605058,1.802598766314024,-18.08308462950696,-0.03173828125,0.03515625,1.005859375,-0.06103515625,-0.91552734375,-0.1220703125,0.0,0.0,0.0,0.014770152978599072,0.01827581413090229,0.1568358838558197,0.9873451590538025
1.9152777194976807,-2.1397505641241934,1.8339023770538387,-18.083047063466527,-0.033203125,0.0380859375,1.00439453125,-0.18310546875,-0.8544921875,-0.18310546875,0.0,0.0,0.0,0.015922939404845238,0.018735431134700775,0.15680761635303497,0.9873230457305908
1.940199613571167,-2.063478695436307,1.9512181331248009,-18.076988685672724,-0.0341796875,0.03564453125,1.0029296875,-0.1220703125,-0.42724609375,-0.244140625,0.0,0.0,0.0,0.015105676837265491,0.019640959799289703,0.1567469835281372,0.9873279333114624
1.962266445159912,-1.9671145446443592,1.9189546673631876,-18.071434034330213,-0.03369140625,0.03466796875,1.00341796875,0.06103515625,-0.244140625,-0.1220703125,0.0,0.0,0.0,0.014320621266961098,0.01923048123717308,0.1567211002111435,0.9873518943786621
1.9801971912384033,-2.042826764707127,1.8289519840094604,-18.07083980787242,-0.0322265625,0.0361328125,1.00439453125,-0.06103515625,-0.9765625,-0.1220703125,0.0,0.0,0.0,0.015096613205969334,0.01855853572487831,0.15671908855438232,0.9873534440994263
2.000608205795288,-2.038184157062223,1.8840690492905245,-18.066557279262824,-0.033203125,0.03564453125,1.00537109375,-0.18310546875,-1.0986328125,-0.06103515625,0.0,0.0,0.0,0.014981670305132866,0.019026484340429306,0.15667326748371124,0.9873536229133606
2.020325183868408,-2.008185752784115,1.9252602126275788,-18.063668109243906,-0.03369140625,0.03515625,1.00537109375,-0.06103515625,-0.67138671875,-0.1220703125,0.0,0.0,0.0,0.01466715894639492,0.01933998428285122,0.15664619207382202,0.9873564839363098
2.0402700901031494,-2.115798371365428,1.951142360713696,-18.06487022253783,-0.03369140625,0.03759765625,1.00439453125,-0.06103515625,-0.18310546875,-0.1220703125,0.0,0.0,0.0,0.015558650717139244,0.019710224121809006,0.15663358569145203,0.987337589263916
2.0561139583587646,-2.128460901756397,1.8099866831184506,-18.061953731762234,-0.03173828125,0.037109375,1.00341796875,-0.1220703125,-0.6103515625,-0.18310546875,0.0,0.0,0.0,0.01586192660033703,0.018511023372411728,0.15663206577301025,0.9873561263084412
2.075451135635376,-2.0020977063561065,1.8657323392465675,-18.055087684099078,-0.03271484375,0.03515625,1.0029296875,-0.244140625,-0.54931640625,-0.1220703125,0.0,0.0,0.0,0.014697783626616001,0.01881769299507141,0.15658357739448547,0.9873761534690857
2.0950205326080322,-2.090074384847279,1.8876715471908831,-18.053644806636914,-0.033203125,0.0361328125,1.00439453125,0.18310546875,-0.67138671875,-0.06103515625,0.0,0.0,0.0,0.015425982885062695,0.019126730039715767,0.1565527468919754,0.987363874912262
2.1152613162994385,-2.0650035351685125,1.848130728312033,-18.049840391269218,-0.03271484375,0.0361328125,1.005859375,-0.1220703125,-0.67138671875,-0.1220703125,0.0,0.0,0.0,0.015264807268977165,0.018751302734017372,0.1565311700105667,0.9873769879341125
2.1382625102996826,-2.17522251124842,1.800453660027817,-18.050554146037484,-0.03173828125,0.0380859375,1.00439453125,-0.30517578125,-0.67138671875,-0.30517578125,0.0,0.0,0.0,0.016279753297567368,0.018491189926862717,0.156528040766716,0.9873661994934082
2.1605331897735596,-2.1157883395250847,1.8660194206351195,-18.045426381518094,-0.03271484375,0.037109375,1.0029296875,-0.1220703125,-0.42724609375,-0.1220703125,0.0,0.0,0.0,0.015678593888878822,0.018974188715219498,0.15648153424263,0.9873741865158081
2.185375690460205,-2.0929622742057252,1.908919625368558,-18.040467664180667,-0.033203125,0.03662109375,1.00341796875,0.0,-0.54931640625,-0.06103515625,0.0,0.0,0.0,0.01542394608259201,0.019311964511871338,0.15643489360809326,0.9873790144920349
2.200777292251587,-2.089109834070426,1.8513014301908,-18.03813856967369,-0.033203125,0.03662109375,1.00390625,-0.244140625,-0.79345703125,-0.1220703125,0.0,0.0,0.0,0.015470092184841633,0.01880996860563755,0.15642580389976501,0.9873894453048706
2.219930410385132,-2.0624641989011487,1.8998230940545704,-18.033673333503796,-0.03369140625,0.0361328125,1.0048828125,-0.18310546875,-0.8544921875,-0.18310546875,0.0,0.0,0.0,0.015174762345850468,0.019191056489944458,0.15638309717178345,0.9873934388160706
2.240752696990967,-2.0047830379169795,1.9967567118685683,-18.029257616205385,-0.03466796875,0.03564453125,1.0029296875,-0.18310546875,-0.30517578125,-0.1220703125,0.0,0.0,0.0,0.014545729383826256,0.019946938380599022,0.15633781254291534,0.9873951077461243
2.2602035999298096,-2.1078234851792033,1.8880435790572372,-18.029189314313683,-0.03271484375,0.037109375,1.00341796875,0.1220703125,-0.244140625,-0.244140625,0.0,0.0,0.0,0.015582488849759102,0.019150855019688606,0.15633897483348846,0.9873949289321899
2.2825889587402344,-1.925037377705907,1.9012723748190825,-18.01842152108716,-0.033203125,0.0341796875,1.00439453125,-0.244140625,-0.48828125,-0.244140625,0.0,0.0,0.0,0.013991141691803932,0.01901412010192871,0.15627431869506836,0.9874315857887268
2.300196647644043,-1.9785839263646916,1.88775991276327,-18.01771118141348,-0.033203125,0.03515625,1.0048828125,-0.1220703125,-1.0986328125,-0.18310546875,0.0,0.0,0.0,0.014471160247921944,0.018970627337694168,0.15626160800457,0.9874275326728821
2.3200974464416504,-2.0077191654864386,1.8348312827809603,-18.014907388759188,-0.0322265625,0.03515625,1.00341796875,0.18310546875,-0.67138671875,-0.18310546875,0.0,0.0,0.0,0.014795104041695595,0.018553955480456352,0.15624180436134338,0.9874337315559387
2.3416378498077393,-2.0599372423516558,1.8051109952681192,-18.01251682254968,-0.03125,0.0361328125,1.00341796875,0.0,-0.42724609375,-0.244140625,0.0,0.0,0.0,0.015286114066839218,0.018368754535913467,0.15621797740459442,0.9874334931373596
2.359971523284912,-2.1432331068272537,1.8041366260943346,-18.01191405835543,-0.03173828125,0.03759765625,1.00537109375,-0.244140625,-0.6103515625,-0.18310546875,0.0,0.0,0.0,0.016005299985408783,0.018473822623491287,0.15619955956935883,0.9874231219291687
2.3768396377563477,-2.118700347989037,1.8611435193413768,-18.007839850515516,-0.03369140625,0.03759765625,1.00439453125,-0.1220703125,-0.91552734375,0.0,0.0,0.0,0.0,0.01571658067405224,0.018931003287434578,0.15615807473659515,0.9874256253242493
2.4000117778778076,-2.1526184270770856,1.9653365610260403,-18.004557944619325,-0.03466796875,0.03759765625,1.00341796875,0.18310546875,-0.732421875,-0.244140625,0.0,0.0,0.0,0.015866883099079132,0.019874490797519684,0.1561049520969391,0.9874130487442017
2.4204418659210205,-2.0508501025477766,1.8380647370227268,-17.9990289064862,-0.0322265625,0.03564453125,1.00390625,-0.06103515625,-0.6103515625,-0.1220703125,0.0,0.0,0.0,0.015164920128881931,0.01863851770758629,0.1560973972082138,0.9874494671821594
2.438006639480591,-2.0317708228749924,1.864106540780693,-17.99560527416473,-0.03271484375,0.03564453125,1.00439453125,-0.42724609375,-0.42724609375,-0.18310546875,0.0,0.0,0.0,0.01496546994894743,0.01883646659553051,0.15606646239757538,0.9874535202980042
2.4610111713409424,-2.0743103082428895,1.879514807218007,-17.993800396676555,-0.033203125,0.0361328125,1.00390625,-0.06103515625,-0.54931640625,-0.06103515625,0.0,0.0,0.0,0.015311277471482754,0.019026923924684525,0.15604116022586823,0.9874485731124878
2.4799842834472656,-2.0695101793602517,1.96090078004694,-17.989277103898715,-0.0341796875,0.0361328125,1.00390625,0.18310546875,-0.67138671875,-0.18310546875,0.0,0.0,0.0,0.015159448608756065,0.019721033051609993,0.15598845481872559,0.987445592880249
2.50024676322937,-2.0356337217374576,1.9414285510534683,-17.98591665082707,-0.0341796875,0.0361328125,1.00537109375,-0.1220703125,-0.8544921875,-0.06103515625,0.0,0.0,0.0,0.014894712716341019,0.019506700336933136,0.15596874058246613,0.9874570369720459
2.5199246406555176,-2.0560126583432488,1.9170259926963054,-17.98387954690711,-0.033203125,0.03564453125,1.00341796875,-0.48828125,-0.67138671875,-0.18310546875,0.0,0.0,0.0,0.015104004181921482,0.01932390406727791,0.15595203638076782,0.987460196018219
2.545060634613037,-2.035276630909913,1.8618184274087386,-17.978446131422366,-0.03173828125,0.03662109375,1.005859375,-0.1220703125,-0.54931640625,-0.244140625,0.0,0.0,0.0,0.015001625753939152,0.018819278106093407,0.1559184044599533,0.9874768257141113
2.559910297393799,-2.1758903756832,1.979932888725769,-17.979952188134355,-0.03466796875,0.0380859375,1.00537109375,-0.06103515625,-0.18310546875,-0.18310546875,0.0,0.0,0.0,0.016051745042204857,0.020028505474328995,0.15588614344596863,0.9874415993690491
2.5803534984588623,-2.0627666482153333,1.956005882289568,-17.972309206453108,-0.03369140625,0.03564453125,1.00244140625,-0.06103515625,-0.6103515625,-0.18310546875,0.0,0.0,0.0,0.015110939741134644,0.01966743730008602,0.15584425628185272,0.987470269203186
2.6001474857330322,-2.0753638649223642,1.8435828895418622,-17.969245866610358,-0.0322265625,0.037109375,1.00537109375,-0.18310546875,-1.03759765625,-0.18310546875,0.0,0.0,0.0,0.015373477712273598,0.01871546171605587,0.15583577752113342,0.9874861240386963
2.621108055114746,-2.025128677350567,1.9389190968637235,-17.963255790708256,-0.03466796875,0.03515625,1.0068359375,-0.1220703125,-0.732421875,-0.244140625,0.0,0.0,0.0,0.014811468310654163,0.019467849284410477,0.15577569603919983,0.9874895215034485
2.6400818824768066,-2.0712497431644894,1.9387449270398882,-17.962040017035996,-0.0341796875,0.0361328125,1.00341796875,0.0,-0.30517578125,-0.1220703125,0.0,0.0,0.0,0.015209355391561985,0.019528882578015327,0.15575739741325378,0.9874852299690247
2.6606130599975586,-2.073374999213421,1.899041037394604,-17.958966431909488,-0.033203125,0.037109375,1.0048828125,-0.3662109375,-0.54931640625,-0.18310546875,0.0,0.0,0.0,0.015282361768186092,0.019189249724149704,0.15573765337467194,0.9874938130378723
2.6798627376556396,-2.0785642354353384,1.9049160672978727,-17.95621898831585,-0.03369140625,0.03662109375,1.00439453125,-0.1220703125,-0.732421875,0.0,0.0,0.0,0.0,0.015319525264203548,0.019246557727456093,0.1557120531797409,0.9874961376190186
2.70224928855896,-1.9826666719410666,1.8997304596139521,-17.94966371425993,-0.03369140625,0.0341796875,1.00634765625,0.244140625,-0.79345703125,-0.18310546875,0.0,0.0,0.0,0.014501282945275307,0.01907072775065899,0.15567250549793243,0.9875181317329407
2.7201292514801025,-2.0595724675612948,1.835165535163468,-17.948441110398498,-0.0322265625,0.0361328125,1.00390625,0.1220703125,-0.6103515625,-0.244140625,0.0,0.0,0.0,0.015252267941832542,0.018618689849972725,0.15566056966781616,0.9875172972679138
2.7403156757354736,-2.0385623787875122,1.8681568429585105,-17.944947468638038,-0.0322265625,0.03564453125,1.0048828125,-0.42724609375,-0.54931640625,-0.244140625,0.0,0.0,0.0,0.015026803128421307,0.018873972818255424,0.15562808513641357,0.9875211119651794
2.7602429389953613,-1.996672401721001,1.7413677212304464,-17.939775307889047,-0.03076171875,0.03515625,1.00537109375,-0.18310546875,-0.48828125,-0.06103515625,0.0,0.0,0.0,0.014839420095086098,0.01772385649383068,0.15561217069625854,0.987547755241394
2.781008243560791,-2.01997231141403,1.9027158926114824,-17.936027241582,-0.0341796875,0.03564453125,1.0048828125,0.30517578125,-0.6103515625,-0.18310546875,0.0,0.0,0.0,0.014820980839431286,0.019145367667078972,0.15554825961589813,0.9875315427780151
2.7999682426452637,-2.021945595753929,1.8852649727255113,-17.931741297877817,-0.03369140625,0.03515625,1.00341796875,0.1220703125,-0.9765625,-0.1220703125,0.0,0.0,0.0,0.01486247405409813,0.01899711601436138,0.15551404654979706,0.9875391125679016
2.8199234008789062,-2.032917227438497,1.9380732206236997,-17.929063863723172,-0.0341796875,0.03564453125,1.00439453125,-0.30517578125,-0.91552734375,-0.244140625,0.0,0.0,0.0,0.014885547570884228,0.019466709345579147,0.15547987818717957,0.9875350594520569
2.8403117656707764,-2.0960371399927,1.9355614185564274,-17.929618816593237,-0.0341796875,0.03662109375,1.00439453125,-0.3662109375,-0.3662109375,-0.1220703125,0.0,0.0,0.0,0.015432831831276417,0.019530778750777245,0.15547436475753784,0.9875262379646301
2.8602802753448486,-2.0596452517646378,1.89586798763831,-17.925437033273898,-0.033203125,0.0361328125,1.00341796875,0.06103515625,-0.3662109375,-0.18310546875,0.0,0.0,0.0,0.015173974446952343,0.01913880743086338,0.15545156598091125,0.9875415563583374
2.879960775375366,-1.9503240186737638,1.8384418915309584,-17.918820287515448,-0.0322265625,0.0341796875,1.00439453125,0.18310546875,-0.79345703125,-0.18310546875,0.0,0.0,0.0,0.014311102218925953,0.01849481277167797,0.1554224193096161,0.9875712394714355
2.9000442028045654,-1.9768714698737224,1.8370263348254732,-17.915273711788917,-0.0322265625,0.03515625,1.005859375,-0.244140625,-0.9765625,-0.244140625,0.0,0.0,0.0,0.014542391523718834,0.018518170341849327,0.15538780391216278,0.987572968006134
2.919982433319092,-2.039403772715893,1.902510986936382,-17.913292956929613,-0.03271484375,0.03515625,1.0029296875,-0.18310546875,-0.67138671875,-0.244140625,0.0,0.0,0.0,0.01499252114444971,0.01916700229048729,0.15534910559654236,0.9875599145889282
2.9421274662017822,-2.011222198757009,1.9199964846550261,-17.910383296343188,-0.033203125,0.03515625,1.0029296875,0.06103515625,-0.18310546875,-0.18310546875,0.0,0.0,0.0,0.014726345427334309,0.019279103726148605,0.15532571077346802,0.9875653982162476
2.9603993892669678,-2.034299060084955,1.898581066842686,-17.9082847207207,-0.03271484375,0.03564453125,1.00537109375,-0.1220703125,-0.67138671875,0.0,0.0,0.0,0.0,0.014954711310565472,0.019125565886497498,0.15530751645565033,0.9875677824020386
2.980325222015381,-1.9680805895250928,1.8128101125666045,-17.902140965562275,-0.03125,0.03466796875,1.005859375,-0.1220703125,-1.15966796875,-0.1220703125,0.0,0.0,0.0,0.014501679688692093,0.018295902758836746,0.15528015792369843,0.9875946640968323
3.0001914501190186,-2.020990436487185,1.9952835254419612,-17.902238295757947,-0.03564453125,0.03564453125,1.00439453125,0.18310546875,-0.8544921875,-0.1220703125,0.0,0.0,0.0,0.014709509909152985,0.01994006521999836,0.15524068474769592,0.9875659346580505
3.0210683345794678,-2.04389782374635,1.8932031466449473,-17.89935937102279,-0.033203125,0.03564453125,1.00390625,0.18310546875,-0.732421875,-0.18310546875,0.0,0.0,0.0,0.015046237036585808,0.019091058522462845,0.15522992610931396,0.987579345703125
3.0403952598571777,-1.9681540140586704,1.8280070700264714,-17.89343247437051,-0.0322265625,0.03466796875,1.00732421875,-0.3662109375,-0.54931640625,-0.18310546875,0.0,0.0,0.0,0.014483049511909485,0.01842586323618889,0.15520250797271729,0.9876047372817993
3.0551817417144775,-1.6843052259746922,1.7463993294929243,-17.878928567667987,-0.0244140625,-0.08837890625,0.92333984375,-10.25390625,1.220703125,0.42724609375,0.0,0.0,0.0,0.012149746529757977,0.017336515709757805,0.15513472259044647,0.9876665472984314
3.0843374729156494,-1.2902966923575152,1.7733262830786418,-17.867414576274637,-0.01611328125,-0.2041015625,1.0927734375,-2.13623046875,-0.91552734375,-0.91552734375,0.0,0.0,0.0,0.008718878962099552,0.01703420840203762,0.15509101748466492,0.9877148270606995
3.100621223449707,-0.9937757689290476,1.8565231098112747,-17.884838388847342,-0.0576171875,-0.28173828125,1.01904296875,-5.9814453125,7.6904296875,2.13623046875,0.0,0.0,0.0,0.006047544069588184,0.01735084131360054,0.15527674555778503,0.9877001643180847
3.1200268268585205,-1.1700515321845582,1.7886584569397337,-17.913246853152717,-0.0439453125,0.14208984375,1.1123046875,16.90673828125,-3.7841796875,1.8310546875,0.0,0.0,0.0,0.0076548317447304726,0.01700666733086109,0.15550217032432556,0.9876595139503479
3.140744924545288,-1.2424068209919708,1.7861944661966516,-17.927947127793875,0.0166015625,-0.025390625,0.86767578125,-4.7607421875,4.08935546875,0.1220703125,0.0,0.0,0.0,0.008279616944491863,0.017084678635001183,0.15561836957931519,0.9876348376274109
3.1631109714508057,-0.8870682571344672,1.7885213195478045,-17.9160745514691,-0.06396484375,-0.05126953125,0.935546875,-15.9912109375,0.67138671875,0.54931640625,0.0,0.0,0.0,0.005215567070990801,0.016621550545096397,0.15556807816028595,0.9876716136932373
3.1802356243133545,-0.5768993350838448,1.7916597914714254,-17.932542137558002,-0.037109375,-0.2529296875,1.1142578125,-0.54931640625,-4.5166015625,1.89208984375,0.0,0.0,0.0,0.0025355888064950705,0.016227824613451958,0.1557542383670807,0.9876592755317688
3.2026073932647705,-0.45272446826060314,1.771390991666001,-17.933974769736412,0.0029296875,-0.07763671875,1.1611328125,13.61083984375,-4.82177734375,-1.708984375,0.0,0.0,0.0,0.0014927058946341276,0.015884362161159515,0.1557851880788803,0.9876620769500732
3.2204720973968506,-0.6110236005074632,1.80865095424889,-17.966085196571935,-0.06201171875,-0.00830078125,0.7734375,-12.3291015625,3.23486328125,1.64794921875,0.0,0.0,0.0,0.0028017789591103792,0.016421468928456306,0.1560373455286026,0.9876106977462769
3.2407660484313965,-0.22416867618966965,1.835120071716805,-17.987361235836524,-0.03662109375,-0.23095703125,0.9072265625,-12.5732421875,4.69970703125,2.0751953125,0.0,0.0,0.0,-0.0005714134313166142,0.016122620552778244,0.1562742441892624,0.9875819683074951
3.2603228092193604,0.04187622664173205,1.8510529820597406,-17.993820887244066,-0.0224609375,-0.248046875,1.16357421875,3.11279296875,-2.3193359375,0.06103515625,0.0,0.0,0.0,-0.00288688694126904,0.015896908938884735,0.15636661648750305,0.9875669479370117
3.278151273727417,0.2073294184201718,1.8868542723680088,-18.037691192283056,-0.02392578125,-0.17041015625,1.0595703125,9.94873046875,-1.46484375,2.0751953125,0.0,0.0,0.0,-0.004367742221802473,0.015977991744875908,0.15676723420619965,0.9874967336654663
3.300309181213379,-0.09894237378085594,1.8580502974210071,-18.07889601599845,-0.0244140625,0.1083984375,0.935546875,-1.28173828125,6.28662109375,2.74658203125,0.0,0.0,0.0,-0.0016948278062045574,0.016148101538419724,0.15707992017269135,0.9874523878097534
3.320338010787964,0.13245644451145566,1.8609330641375756,-18.11187899950044,-0.06005859375,-0.1875,0.8427734375,-4.82177734375,-8.7890625,0.6103515625,0.0,0.0,0.0,-0.003697335487231612,0.015854649245738983,0.1573963612318039,0.9874013662338257
3.340456962585449,0.4955087198607101,1.8733926098441482,-18.15634182344993,-0.05126953125,-0.232421875,1.0888671875,-0.732421875,0.06103515625,2.8076171875,0.0,0.0,0.0,-0.006848728749901056,0.015460606664419174,0.15782909095287323,0.987321674823761
3.3603954315185547,0.6260666119067403,1.8551967724518228,-18.211384610423774,-0.0625,-0.13232421875,1.0810546875,4.0283203125,-4.150390625,2.9296875,0.0,0.0,0.0,-0.007955839857459068,0.015120180323719978,0.15832039713859558,0.9872398972511292
3.3776426315307617,0.8312728153306034,1.8236865484896152,-18.265100633151338,-0.00244140625,-0.1787109375,0.8916015625,-1.0986328125,-1.0986328125,2.01416015625,0.0,0.0,0.0,-0.009687083773314953,0.014560623094439507,0.15880869328975677,0.9871545433998108
3.3951640129089355,1.0335208531527633,1.7611530717086807,-18.268756491904586,0.04833984375,-0.18310546875,1.0478515625,-1.15966796875,3.5400390625,1.220703125,0.0,0.0,0.0,-0.011343258433043957,0.013741238042712212,0.1588621586561203,0.9871399998664856
3.419992208480835,1.1393035146450416,1.724274425780549,-18.25767450997624,0.00537109375,-0.19384765625,1.04931640625,4.39453125,0.3662109375,1.15966796875,0.0,0.0,0.0,-0.012202191166579723,0.013278059661388397,0.1587769091129303,0.9871498346328735
3.4404516220092773,1.3358397534129256,1.7197434490398917,-18.26426222743072,-0.041015625,-0.15478515625,0.93505859375,-0.18310546875,-1.52587890625,1.15966796875,0.0,0.0,0.0,-0.013889716006815434,0.012965891510248184,0.1588558405637741,0.9871189594268799
3.460216522216797,1.623984196876313,1.7770616495026983,-18.30294841888967,-0.080078125,-0.18994140625,0.95556640625,-4.150390625,-0.67138671875,2.74658203125,0.0,0.0,0.0,-0.016455484554171562,0.013054612092673779,0.15922695398330688,0.9870185852050781
3.479870557785034,1.936581251176875,1.7998199465388867,-18.373656244724938,-0.076171875,-0.2734375,1.0068359375,-3.47900390625,-5.43212890625,3.2958984375,0.0,0.0,0.0,-0.019187362864613533,0.01280440017580986,0.15987376868724823,0.9868679046630859
3.5003714561462402,2.1704093623176766,1.7476075259240762,-18.45158870315478,-0.095703125,-0.28662109375,1.04833984375,1.89208984375,-4.5166015625,4.69970703125,0.0,0.0,0.0,-0.02113664522767067,0.01201409287750721,0.16056327521800995,0.9867261052131653
3.520885944366455,2.2767191223148093,1.7552382346091555,-18.526799331200376,-0.00146484375,-0.19873046875,1.0341796875,2.74658203125,-0.30517578125,0.732421875,0.0,0.0,0.0,-0.02207052893936634,0.011916358023881912,0.16122305393218994,0.9865992665290833
3.5405125617980957,2.507525515078115,1.7654000619902535,-18.423596880388775,-0.0146484375,-0.11279296875,0.86669921875,-5.615234375,6.77490234375,-7.87353515625,0.0,0.0,0.0,-0.02406136691570282,0.011700774542987347,0.16035984456539154,0.9866960048675537
3.5625410079956055,2.8230689422318913,1.9881760732803282,-18.13022830270568,-0.06689453125,-0.13671875,0.9638671875,-5.37109375,12.0849609375,-16.54052734375,0.0,0.0,0.0,-0.027054758742451668,0.013246766291558743,0.15790733695030212,0.9869943261146545
3.579988718032837,3.012677554912384,2.358355037378683,-17.698567177350046,-0.1708984375,-0.13232421875,1.00927734375,2.38037109375,8.23974609375,-21.8505859375,0.0,0.0,0.0,-0.029133828356862068,0.016283975914120674,0.15428461134433746,0.9874626398086548
3.6011312007904053,3.011815670416493,2.5448270991262585,-17.16171772368163,-0.21484375,-0.0576171875,1.10009765625,5.9814453125,-2.99072265625,-30.57861328125,0.0,0.0,0.0,-0.029291542246937752,0.01802968420088291,0.14969372749328613,0.9881340265274048
3.620302200317383,2.7941232408596117,2.6556014549630524,-16.428100765308898,-0.0859375,0.072265625,1.1416015625,8.1787109375,-2.44140625,-41.32080078125,0.0,0.0,0.0,-0.027434008195996284,0.019445477053523064,0.14334999024868011,0.9891006350517273
3.641097068786621,2.6137723092688367,2.724890949328482,-15.523672728625199,-0.08349609375,0.154296875,0.88671875,-2.197265625,8.60595703125,-48.15673828125,0.0,0.0,0.0,-0.025802507996559143,0.020473536103963852,0.13551963865756989,0.9902270436286926
3.660165309906006,2.506630973740255,2.9047042169655297,-14.469315209470548,-0.107421875,0.126953125,0.947265625,1.5869140625,6.28662109375,-55.5419921875,0.0,0.0,0.0,-0.024882722645998,0.022384189069271088,0.12641271948814392,0.9914129972457886
3.680051326751709,2.121917367088113,2.985106642553981,-13.3152958388153,-0.146484375,0.076171875,1.20068359375,16.7236328125,1.46484375,-58.2275390625,0.0,0.0,0.0,-0.021404346451163292,0.023720968514680862,0.11635639518499374,0.9926935434341431
3.700120210647583,1.8856054149669543,2.9912164602099693,-12.177703073113937,-0.14892578125,0.15380859375,0.91796875,0.79345703125,-2.197265625,-56.45751953125,0.0,0.0,0.0,-0.019123973324894905,0.02420484833419323,0.10644714534282684,0.9938397407531738
3.715111017227173,1.7755078881882262,3.0721751193289535,-11.06648166779799,-0.08935546875,0.12158203125,0.970703125,-0.18310546875,6.2255859375,-55.23681640625,0.0,0.0,0.0,-0.01800033636391163,0.025185054168105125,0.0967903807759285,0.9948233962059021
3.7409591674804688,1.6654142033909063,3.2551371041733774,-9.999290223192887,-0.13232421875,0.08203125,0.99169921875,0.6103515625,4.69970703125,-52.67333984375,0.0,0.0,0.0,-0.01694684661924839,0.027025524526834488,0.0875164195895195,0.9956521987915039
3.760009288787842,1.5916910624804927,3.350934135820803,-8.962100384517063,-0.193359375,0.0986328125,0.92529296875,-1.5869140625,-3.90625,-52.18505859375,0.0,0.0,0.0,-0.016125446185469627,0.028061335906386375,0.07849330455064774,0.9963891506195068
3.779728412628174,1.5004546762079318,3.3886092458391817,-7.930446414163534,-0.09765625,0.09033203125,1.01513671875,-0.42724609375,-0.42724609375,-51.69677734375,0.0,0.0,0.0,-0.015100911259651184,0.028588540852069855,0.06950102001428604,0.9970578551292419
3.8000199794769287,1.2930861843032306,3.3650374092398216,-6.924825282944686,-0.06201171875,0.07177734375,1.15673828125,6.40869140625,-0.67138671875,-49.8046875,0.0,0.0,0.0,-0.013031735084950924,0.02862461283802986,0.06069454923272133,0.9976608753204346
3.819999933242798,1.0369394695540606,3.320561351798814,-6.001735035014394,-0.09033203125,0.0625,1.04443359375,6.77490234375,-5.7373046875,-44.98291015625,0.0,0.0,0.0,-0.010549399070441723,0.02845887281000614,0.05258876830339432,0.9981549978256226
3.839890480041504,0.8719424296915038,3.2432066846840693,-5.210499454577083,-0.08984375,0.078125,0.88330078125,0.18310546875,-8.23974609375,-36.68212890625,0.0,0.0,0.0,-0.008884410373866558,0.027922743931412697,0.04565010219812393,0.9985276460647583
3.8602137565612793,0.7113471799447558,3.141733979279775,-4.596825313784832,-0.05224609375,0.0517578125,0.93701171875,-0.3662109375,-4.0283203125,-27.28271484375,0.0,0.0,0.0,-0.0072996774688363075,0.02714192494750023,0.04025829955935478,0.9987939596176147
3.8798811435699463,0.5639457746012099,3.0736167161306494,-4.166645912592266,-0.04150390625,0.0478515625,0.97802734375,-1.64794921875,-2.13623046875,-18.6767578125,0.0,0.0,0.0,-0.0058912537060678005,0.026622258126735687,0.03647121414542198,0.9989626407623291
3.8998658657073975,0.4451076333972753,3.0034585070801594,-3.9061309717037553,-0.04541015625,0.04443359375,0.97509765625,-4.0283203125,-2.197265625,-10.498046875,0.0,0.0,0.0,-0.004773850552737713,0.026059361174702644,0.034170594066381454,0.9990648627281189
3.9203193187713623,0.29777975930901274,2.876409517998517,-3.8162251916588774,-0.001953125,0.0205078125,1.041015625,3.23486328125,4.45556640625,-1.64794921875,0.0,0.0,0.0,-0.003432059660553932,0.024998271837830544,0.03335127606987953,0.9991251826286316
3.935558319091797,0.060436141798277686,2.7198033121704683,-3.899554353306679,-0.06884765625,0.119140625,1.00341796875,-0.67138671875,-10.68115234375,6.8359375,0.0,0.0,0.0,-0.001334413536824286,0.02370084822177887,0.0340263806283474,0.9991390705108643
3.9588582515716553,-0.09091350642182579,2.568796794244772,-4.159827249366478,-0.02490234375,0.1220703125,1.05712890625,-4.57763671875,-2.74658203125,15.380859375,0.0,0.0,0.0,-2.0871433662250638e-05,0.022429117932915688,0.03626646474003792,0.9990904331207275
3.9801576137542725,-0.319421026931213,2.3719528767991203,-4.5695429769188625,0.0048828125,0.18603515625,1.15869140625,8.056640625,-11.65771484375,23.01025390625,0.0,0.0,0.0,0.0019595215562731028,0.020792281255126,0.03979986906051636,0.998989462852478
4.000614166259766,-0.5427187739604267,2.1982125011078595,-5.1475951198685586,-0.0087890625,0.1669921875,0.96337890625,5.18798828125,-9.33837890625,30.6396484375,0.0,0.0,0.0,0.003869075560942292,0.019374921917915344,0.04480661079287529,0.9988003373146057
4.020005226135254,-0.914748025632767,1.9872057595313632,-5.848040837650298,0.00927734375,0.3203125,0.87060546875,1.953125,-2.5634765625,37.109375,0.0,0.0,0.0,0.007086452562361956,0.017724787816405296,0.050864093005657196,0.9985231757164001
4.039923191070557,-1.1741036486313738,1.9387899635997279,-6.614167788924996,0.05029296875,0.32470703125,0.9580078125,0.18310546875,4.5166015625,37.4755859375,0.0,0.0,0.0,0.009251357056200504,0.017480237409472466,0.057503122836351395,0.9981493949890137
4.061356782913208,-1.379891912238569,1.9392994530231285,-7.388853394116543,0.01904296875,0.333984375,1.06005859375,2.8076171875,3.23486328125,36.92626953125,0.0,0.0,0.0,0.010924449190497398,0.01766216941177845,0.06421799212694168,0.9977197647094727
4.079939842224121,-1.5976997079594,1.909324954407116,-8.104676855927742,-0.0224609375,0.31494140625,1.09375,3.96728515625,-4.08935546875,34.24072265625,0.0,0.0,0.0,0.012728026136755943,0.017603082582354546,0.0704193115234375,0.9972808957099915
4.100132942199707,-1.8491960243791434,1.847270764806846,-8.729558910261161,-0.0166015625,0.287109375,1.03271484375,4.21142578125,-1.28173828125,29.72412109375,0.0,0.0,0.0,0.014861032366752625,0.01729886792600155,0.07582694292068481,0.9968602061271667
4.119868993759155,-2.0703041888512654,1.7730831710328716,-9.258577552046159,-0.05810546875,0.28271484375,0.9384765625,-0.48828125,-2.50244140625,24.96337890625,0.0,0.0,0.0,0.01675618439912796,0.016877349466085434,0.08040700107812881,0.9964784383773804
4.136237859725952,-2.2556477752819086,1.6888693931658474,-9.741221770687709,-0.072265625,0.27099609375,0.95654296875,-0.732421875,-5.37109375,23.5595703125,0.0,0.0,0.0,0.01835869438946247,0.016352586448192596,0.08459115028381348,0.9961124062538147
4.1602160930633545,-2.432169745512657,1.5763210024138483,-10.157492772296013,-0.00830078125,0.26953125,1.02783203125,1.15966796875,-3.96728515625,19.6533203125,0.0,0.0,0.0,0.019920332357287407,0.015577062964439392,0.08820570260286331,0.9957813024520874
4.180112838745117,-2.6339209404335513,1.4529985218546833,-10.497369815585019,0.0419921875,0.2626953125,1.0439453125,0.0,-1.5869140625,14.70947265625,0.0,0.0,0.0,0.021725470200181007,0.014725277200341225,0.09115704894065857,0.9954906105995178
4.20141863822937,-2.749252953437448,1.4116649917621162,-10.75177472537413,0.0029296875,0.2392578125,0.98046875,-3.90625,-1.46484375,11.962890625,0.0,0.0,0.0,0.022728320211172104,0.014508460648357868,0.093361034989357,0.9952671527862549
4.221782207489014,-2.725175469396095,1.5440568963220007,-11.033536250336434,-0.06201171875,0.0390625,1.0107421875,-2.9296875,0.6103515625,14.22119140625,0.0,0.0,0.0,0.02237211912870407,0.015693701803684235,0.09578223526477814,0.9950271248817444
4.240827322006226,-2.545469563795063,1.5953074342026028,-11.313027591173356,-0.03857421875,0.01806640625,1.08349609375,4.150390625,-4.8828125,13.671875,0.0,0.0,0.0,0.020729485899209976,0.016039090231060982,0.09822292625904083,0.9948192834854126
4.260249137878418,-2.6592238031006867,1.4804026281869496,-11.564253047903826,0.00537109375,0.03271484375,0.935546875,-3.5400390625,2.25830078125,11.29150390625,0.0,0.0,0.0,0.02178289368748665,0.015186917968094349,0.10041216015815735,0.9945915341377258
4.279901027679443,-2.326522086978192,1.4153335503983537,-11.780894695545584,-0.0283203125,-0.11474609375,0.98046875,-4.0283203125,-1.77001953125,11.71875,0.0,0.0,0.0,0.018925346434116364,0.014366354793310165,0.10234830528497696,0.9944648742675781
4.3001017570495605,-2.073278522791395,1.3526879091046429,-12.038961440503467,0.0087890625,-0.17626953125,1.0322265625,-1.5869140625,-2.9296875,13.24462890625,0.0,0.0,0.0,0.016753114759922028,0.013634239323437214,0.10462974011898041,0.9942767024040222
4.319933176040649,-1.8705333219028517,1.3253795321424626,-12.330940928464111,0.01953125,-0.189453125,1.00830078125,1.3427734375,5.0048828125,15.44189453125,0.0,0.0,0.0,0.014985249377787113,0.013250380754470825,0.10719102621078491,0.9940371513366699
4.339960098266602,-1.7013452672934046,1.3199544409507684,-12.694438473450312,-0.04833984375,-0.18115234375,0.98291015625,-1.89208984375,-1.708984375,19.53125,0.0,0.0,0.0,0.013481234200298786,0.013087872415781021,0.11036393791437149,0.9937137365341187
4.360296726226807,-1.3821144984831735,1.2873697428547533,-13.125499395932634,-0.0048828125,-0.23779296875,0.91650390625,-6.7138671875,1.40380859375,24.35302734375,0.0,0.0,0.0,0.010697267949581146,0.012538129463791847,0.11414115875959396,0.9933278560638428
4.380111932754517,-1.0441325125237302,1.3056825472366151,-13.658314769122512,-0.02197265625,-0.28466796875,0.9833984375,-5.615234375,0.9765625,28.62548828125,0.0,0.0,0.0,0.007691620849072933,0.012396062724292278,0.11879352480173111,0.9928118586540222
4.40160346031189,-0.7772605865086417,1.2195685893981523,-14.28094456857712,-0.0361328125,-0.298828125,1.0029296875,-2.5634765625,-4.150390625,33.75244140625,0.0,0.0,0.0,0.00540697667747736,0.01140283327549696,0.12422087043523788,0.9921743869781494
4.419990062713623,-0.5875109944548117,1.183275205304526,-14.99822798332341,0.00341796875,-0.333984375,1.09326171875,2.8076171875,-2.86865234375,37.17041015625,0.0,0.0,0.0,0.003735239151865244,0.010906478390097618,0.13044969737529755,0.9913879036903381
4.440054893493652,-0.5225232386060212,1.0532688510339743,-15.795840399124573,-0.00732421875,-0.29931640625,1.01806640625,2.86865234375,-5.0048828125,41.93115234375,0.0,0.0,0.0,0.003253454575315118,0.009730632416903973,0.1373598426580429,0.9904681444168091
4.455631256103516,-0.41542464512060484,0.884973523493389,-16.679982773973336,0.00732421875,-0.25634765625,0.96484375,4.82177734375,-7.9345703125,45.22705078125,0.0,0.0,0.0,0.0024666546378284693,0.008166870102286339,0.14501385390758514,0.989392876625061
4.480035781860352,-0.18483204261440594,0.7883596972707653,-17.652618787256078,0.05419921875,-0.1923828125,0.84814453125,-5.615234375,-2.01416015625,50.048828125,0.0,0.0,0.0,0.000538210675586015,0.007045689970254898,0.15342479944229126,0.9881351590156555
4.49994158744812,0.11268564820584719,0.6828111298401186,-18.708632627284455,0.078125,-0.228515625,0.9375,-5.615234375,-1.77001953125,53.7109375,0.0,0.0,0.0,-0.0019387822831049562,0.005719542503356934,0.16254210472106934,0.9866831302642822
4.519962549209595,0.3333395650775238,0.5082161800898131,-19.764871863555445,0.13720703125,-0.23974609375,1.0400390625,-2.5634765625,-4.82177734375,52.001953125,0.0,0.0,0.0,-0.003626905381679535,0.0038699358701705933,0.1716373860836029,0.9851459860801697
4.535335063934326,0.44831872944168044,0.2907362067687164,-20.785332861406616,0.138671875,-0.22802734375,1.17138671875,4.0283203125,-5.06591796875,50.72021484375,0.0,0.0,0.0,-0.004305793903768063,0.0017897554207593203,0.1804010421037674,0.9835821390151978
4.559929370880127,0.5349589320113517,0.09935932214513084,-21.850488909639058,0.08349609375,-0.17333984375,1.05517578125,2.01416015625,-6.591796875,54.931640625,0.0,0.0,0.0,-0.004748098086565733,-3.343977004988119e-05,0.1895298957824707,0.9818635582923889
4.57996678352356,0.6333474334794151,0.016998116363606854,-22.96334870658216,0.1689453125,-0.169921875,0.9775390625,3.90625,2.9296875,55.419921875,0.0,0.0,0.0,-0.0054458933882415295,-0.0009548022644594312,0.19905224442481995,0.979973316192627
4.60045313835144,0.6750267952595668,-0.13246094016331172,-24.094247033123267,0.0009765625,-0.1875,0.91943359375,6.9580078125,-11.8408203125,58.16650390625,0.0,0.0,0.0,-0.0055196876637637615,-0.002359941601753235,0.20870567858219147,0.9779601693153381
4.6164164543151855,0.9229199200878642,-0.29175889419479356,-25.29612810061373,0.09375,-0.15576171875,0.95556640625,-7.38525390625,-1.708984375,59.9365234375,0.0,0.0,0.0,-0.007300967816263437,-0.004247702192515135,0.21893401443958282,0.9757030606269836
4.639862060546875,1.0348303284827016,-0.5336201615731764,-26.5219455660505,0.1748046875,-0.24365234375,1.18212890625,10.25390625,-11.41357421875,60.60791015625,0.0,0.0,0.0,-0.007721444126218557,-0.006603792309761047,0.2293340265750885,0.9732947945594788
4.660336017608643,0.9165447922713036,-0.6877970078516693,-27.76880172167821,0.173828125,-0.1484375,0.998046875,13.24462890625,0.67138671875,62.744140625,0.0,0.0,0.0,-0.006324195768684149,-0.007745828945189714,0.23990514874458313,0.9707448482513428
4.68039870262146,1.0093799764181763,-0.7752804719795726,-29.073335409752087,0.0966796875,-0.04833984375,0.734375,-5.18798828125,-2.25830078125,66.10107421875,0.0,0.0,0.0,-0.0068281288258731365,-0.008759559132158756,0.25092634558677673,0.9679425358772278
4.701476573944092,1.277098632446935,-0.7665831332060605,-30.3873135419008,0.13134765625,-0.13818359375,1.10693359375,-2.38037109375,9.27734375,64.453125,0.0,0.0,0.0,-0.009001633152365685,-0.009376141242682934,0.26198825240135193,0.9649835824966431
4.72018837928772,1.4169980888434268,-0.9019993708252325,-31.596762458991638,0.00634765625,-0.1552734375,1.111328125,0.9765625,-7.87353515625,58.77685546875,0.0,0.0,0.0,-0.009755031205713749,-0.010939828120172024,0.27213016152381897,0.9621487855911255
4.740127325057983,1.588214069306133,-0.9887823670372393,-32.724812596648846,0.02392578125,-0.11865234375,0.88134765625,0.48828125,-5.55419921875,52.24609375,0.0,0.0,0.0,-0.010866967961192131,-0.01218257937580347,0.28155967593193054,0.9594048261642456
4.755707025527954,1.901287742744715,-1.0034196758719882,-33.66662738130191,0.08740234375,-0.080078125,0.755859375,-12.5732421875,8.9111328125,42.3583984375,0.0,0.0,0.0,-0.013344191946089268,-0.01318443100899458,0.2893983721733093,0.957024872303009
4.780181884765625,2.333005003717592,-0.9255448471632647,-34.36002135565243,0.00927734375,-0.1015625,0.91259765625,-13.12255859375,6.7138671875,30.029296875,0.0,0.0,0.0,-0.01706373505294323,-0.013727854005992413,0.2951468229293823,0.9552009105682373
4.799902677536011,2.5755266650113504,-0.7304974829127378,-34.78818200905843,-0.05712890625,-0.1259765625,1.23095703125,0.79345703125,0.30517578125,17.333984375,0.0,0.0,0.0,-0.01954047940671444,-0.012799943797290325,0.29872408509254456,0.9540535807609558
4.815474271774292,2.627654455313476,-0.44674703888063705,-35.00997191178709,-0.03857421875,-0.0634765625,1.224609375,1.5869140625,6.40869140625,7.50732421875,0.0,0.0,0.0,-0.02069428376853466,-0.010613687336444855,0.3006221652030945,0.9534597992897034
4.8403918743133545,2.771610297025015,-0.3066329117729657,-35.059200500229956,-0.12353515625,-0.0830078125,0.88720703125,-10.7421875,-4.7607421875,-1.15966796875,0.0,0.0,0.0,-0.02225559391081333,-0.009835172444581985,0.30104759335517883,0.9532986879348755
4.8610451221466064,2.8453746325138605,-0.03562536624639398,-34.809096048297015,0.05078125,-0.107421875,1.10888671875,8.6669921875,23.98681640625,-17.822265625,0.0,0.0,0.0,-0.02359834872186184,-0.0077230362221598625,0.29901692271232605,0.9539247751235962
4.880289077758789,2.8083750708930784,0.13111325846270358,-34.29614201143988,-0.28369140625,-0.115234375,0.861328125,3.2958984375,-6.77490234375,-30.029296875,0.0,0.0,0.0,-0.023753119632601738,-0.00613218592479825,0.2947801947593689,0.9552501440048218
4.901221036911011,2.84039115574069,0.29740559300854297,-33.573914393508154,-0.13671875,-0.02685546875,0.85107421875,-5.92041015625,15.68603515625,-40.34423828125,0.0,0.0,0.0,-0.024477625265717506,-0.004674110095947981,0.28878575563430786,0.957069456577301
4.9201819896698,2.7779698434725315,0.7804514054289483,-32.52684297865061,-0.05908203125,-0.05810546875,1.1630859375,6.28662109375,20.81298828125,-56.396484375,0.0,0.0,0.0,-0.025176260620355606,-0.00025212918990291655,0.28012359142303467,0.9596337080001831
4.935892581939697,2.6460543446072555,1.0017359275198743,-31.285363889447,-0.4052734375,-0.01318359375,1.0126953125,6.2255859375,-4.21142578125,-65.49072265625,0.0,0.0,0.0,-0.024589555338025093,0.002190215280279517,0.26974940299987793,0.962614119052887
4.963630437850952,2.628803421197919,1.1351964365197482,-29.893613808313937,-0.24951171875,-0.0009765625,0.88623046875,1.220703125,8.6669921875,-72.32666015625,0.0,0.0,0.0,-0.024715803563594818,0.0036525153554975986,0.2580612003803253,0.9658055305480957
4.975670337677002,2.5929722488120324,1.4506843683865183,-28.337916988985764,-0.19677734375,-0.0048828125,0.88818359375,0.42724609375,4.33349609375,-81.4208984375,0.0,0.0,0.0,-0.02503390610218048,0.006733008660376072,0.24497756361961365,0.9691821336746216
5.0001137256622314,2.6444757171353364,1.6247815147402063,-26.596527816692458,-0.27880859375,-0.0048828125,1.02197265625,0.9765625,-0.48828125,-89.53857421875,0.0,0.0,0.0,-0.025714807212352753,0.008487297222018242,0.23025427758693695,0.972753643989563
5.021971940994263,2.5958302560928597,1.743087221353997,-24.708448379142077,-0.236328125,-0.0185546875,1.17041015625,5.859375,4.150390625,-96.435546875,0.0,0.0,0.0,-0.02537745051085949,0.010008957237005234,0.2142118662595749,0.9764062762260437
5.039900541305542,2.5021367092663866,1.9681715164184186,-22.690668771895034,-0.25927734375,-0.0234375,1.1279296875,7.6904296875,2.44140625,-99.7314453125,0.0,0.0,0.0,-0.02478155866265297,0.012540573254227638,0.1970137059688568,0.9800073504447937
5.055309295654297,2.471986333279246,2.1689118433421513,-20.68291929744415,-0.3291015625,-0.02734375,0.9228515625,5.92041015625,9.46044921875,-99.4873046875,0.0,0.0,0.0,-0.024613000452518463,0.014742904342710972,0.1798418015241623,0.9832770824432373
5.080243825912476,2.377372845348937,2.2596250798129716,-18.634538735168157,-0.26708984375,-0.021484375,1.00537109375,7.080078125,0.91552734375,-103.94287109375,0.0,0.0,0.0,-0.023658961057662964,0.01609535701572895,0.16223859786987305,0.9863365888595581
5.100662469863892,2.428853902114027,2.596848594609426,-16.52002998889539,-0.205078125,-0.0107421875,0.9013671875,-2.13623046875,13.61083984375,-105.40771484375,0.0,0.0,0.0,-0.02422362007200718,0.019375646486878395,0.14407171308994293,0.9890810251235962
5.122093200683594,2.4137506463118363,2.5576988040605593,-14.533797317877346,-0.46923828125,-0.08154296875,0.9345703125,7.38525390625,-14.892578125,-95.03173828125,0.0,0.0,0.0,-0.023710453882813454,0.01947055011987686,0.12689828872680664,0.9914411306381226
5.135338068008423,2.4718469547314954,2.7450382998327267,-12.771167964812589,-0.18408203125,-0.04443359375,1.0673828125,-4.08935546875,22.39990234375,-84.1064453125,0.0,0.0,0.0,-0.0240926630795002,0.021400323137640953,0.11167453974485397,0.9932222962379456
5.155401706695557,2.588895906538004,3.168056674567358,-11.184403176270969,-0.2197265625,-0.04248046875,0.93505859375,-4.69970703125,0.244140625,-75.37841796875,0.0,0.0,0.0,-0.025167396292090416,0.025303862988948822,0.09800682961940765,0.9945456981658936
5.177400827407837,2.817325393470145,3.1214376452742587,-9.8680003269669,-0.34375,-0.06201171875,0.9033203125,-4.21142578125,-16.29638671875,-59.5703125,0.0,0.0,0.0,-0.026824980974197388,0.025013605132699013,0.08661734312772751,0.9955662488937378
5.194952726364136,2.855072220474809,3.104278289088483,-8.896707299629714,-0.18994140625,-0.0888671875,1.103515625,6.04248046875,-2.38037109375,-41.68701171875,0.0,0.0,0.0,-0.02692866325378418,0.025065122172236443,0.07818067818880081,0.9962602853775024
5.2199907302856445,2.819610732077749,3.1326442781549573,-8.290036237170842,-0.20263671875,-0.02099609375,1.0205078125,2.62451171875,-11.3525390625,-23.8037109375,0.0,0.0,0.0,-0.0265048798173666,0.025476636365056038,0.07290299981832504,0.9966611862182617
5.240464925765991,2.67588839745846,3.155853901284895,-7.9281232960720835,-0.083984375,-0.0087890625,1.072265625,5.2490234375,3.84521484375,-14.7705078125,0.0,0.0,0.0,-0.025187816470861435,0.02584961988031864,0.0697271078824997,0.9969130754470825
5.260102987289429,2.411074919704484,3.2862979212708567,-7.70453363849713,-0.1142578125,0.009765625,1.04345703125,3.90625,-3.23486328125,-8.48388671875,0.0,0.0,0.0,-0.02290891855955124,0.027190398424863815,0.06774352490901947,0.9970690608024597
5.275822877883911,2.4596806802724105,3.246161595273746,-7.579588988010087,-0.1279296875,0.0625,0.85791015625,-7.568359375,-4.69970703125,-7.38525390625,0.0,0.0,0.0,-0.023279285058379173,0.026837803423404694,0.06666103005409241,0.997143030166626
5.295567989349365,2.3032330628991526,3.3247239252111136,-7.407839612461886,0.00830078125,-0.03271484375,1.21728515625,13.5498046875,11.1083984375,-7.6904296875,0.0,0.0,0.0,-0.02192138135433197,0.02764536812901497,0.06514216214418411,0.9972521662712097
5.320362091064453,2.0701797513423243,3.157174475672235,-7.254817761844213,-0.26611328125,0.03759765625,0.86376953125,4.638671875,-28.74755859375,-8.48388671875,0.0,0.0,0.0,-0.019764333963394165,0.02634589746594429,0.06373025476932526,0.9974235892295837
5.3400068283081055,2.005756126430295,3.238035591152135,-7.0441341735928225,0.16552734375,0.06494140625,0.93505859375,-5.55419921875,28.80859375,-11.23046875,0.0,0.0,0.0,-0.019198020920157433,0.027120936661958694,0.06189259886741638,0.9975296258926392
5.355630159378052,2.0625418923029577,3.390321275443328,-6.821275773145884,-0.16064453125,0.04296875,0.9326171875,-8.544921875,-5.31005859375,-10.25390625,0.0,0.0,0.0,-0.019717948511242867,0.0284543726593256,0.059987518936395645,0.9975985884666443
5.381235599517822,2.1062681230391447,3.222143021613985,-6.692184344058997,-0.2255859375,-0.01123046875,1.03564453125,0.67138671875,-18.00537109375,-6.89697265625,0.0,0.0,0.0,-0.019981736317276955,0.026989782229065895,0.05885005742311478,0.99770188331604
5.400052070617676,1.939397850435859,3.084771909149161,-6.549424425782445,0.00341796875,0.01123046875,1.03955078125,2.86865234375,-4.8828125,-8.60595703125,0.0,0.0,0.0,-0.01842721365392208,0.0259022768586874,0.05754930153489113,0.9978365302085876
5.4158875942230225,1.701535978981636,2.947548926411962,-6.422259963815147,-0.0546875,0.0419921875,1.05517578125,-0.1220703125,-2.50244140625,-7.87353515625,0.0,0.0,0.0,-0.016260461881756783,0.024844713509082794,0.056372035294771194,0.997968316078186
5.44080924987793,1.506515508600966,2.95244190317863,-6.304797785563854,-0.01416015625,0.0224609375,1.080078125,4.57763671875,10.19287109375,-6.40869140625,0.0,0.0,0.0,-0.014538783580064774,0.024998150765895844,0.05530714988708496,0.9980505108833313
5.46288800239563,1.3227101021157512,2.9056126321251416,-6.199631655365875,-0.11669921875,0.076171875,0.90576171875,-9.09423828125,-5.615234375,-4.8828125,0.0,0.0,0.0,-0.0128928879275918,0.0246907826513052,0.05434683337807655,0.9981335997581482
5.475127696990967,1.2878139185942157,2.874645835088773,-6.076084632337745,0.0009765625,0.02294921875,1.0595703125,-2.62451171875,3.23486328125,-8.11767578125,0.0,0.0,0.0,-0.012548043392598629,0.024451131001114845,0.05326046422123909,0.9982024431228638
5.503492116928101,1.0539917838689379,2.8203153087793185,-5.938290688474615,-0.04736328125,-0.0078125,1.1455078125,8.11767578125,3.7841796875,-7.38525390625,0.0,0.0,0.0,-0.01045722234994173,0.02409905381500721,0.05200633779168129,0.9983012080192566
5.520034074783325,0.8707851395140098,2.6746024009037934,-5.835593671661596,-0.1669921875,0.06787109375,0.78466796875,-1.03759765625,-19.8974609375,-7.62939453125,0.0,0.0,0.0,-0.008774994872510433,0.022920554503798485,0.051064930856227875,0.9983937740325928
5.5353827476501465,0.8026315909849184,2.793592407095055,-5.658907776890768,0.18408203125,0.048828125,0.97509765625,-0.18310546875,26.4892578125,-9.70458984375,0.0,0.0,0.0,-0.008196868933737278,0.024000316858291626,0.04951786622405052,0.9984511733055115
5.555904865264893,0.8514092802208587,2.9111141360581754,-5.4878845358287025,-0.18212890625,0.0458984375,0.990234375,-5.4931640625,-11.29150390625,-7.01904296875,0.0,0.0,0.0,-0.008634967729449272,0.02501613460481167,0.048044268041849136,0.998494565486908
5.575657844543457,0.8559632021282589,2.772572286480929,-5.376995560879899,-0.18505859375,0.01123046875,1.0224609375,0.67138671875,-15.31982421875,-5.18798828125,0.0,0.0,0.0,-0.008593970909714699,0.023815328255295753,0.047071393579244614,0.9985706210136414
5.600288152694702,0.6613382957500679,2.6348220985171698,-5.246207256671087,-0.04931640625,0.0185546875,1.01513671875,3.96728515625,-13.3056640625,-6.34765625,0.0,0.0,0.0,-0.006815851666033268,0.02270260453224182,0.045885488390922546,0.9986655116081238
5.620147228240967,0.39615508064641214,2.553790441751431,-5.114748740149968,-0.04248046875,0.04443359375,1.015625,-0.67138671875,-2.74658203125,-6.77490234375,0.0,0.0,0.0,-0.004447107203304768,0.02210763841867447,0.044685397297143936,0.9987465739250183
5.640002965927124,0.1726292159710906,2.5728270327419027,-5.009212925963162,-0.02880859375,0.015625,1.11376953125,9.33837890625,6.7138671875,-5.79833984375,0.0,0.0,0.0,-0.002485723700374365,0.022362975403666496,0.04372243210673332,0.9987903833389282
5.660025119781494,0.029601022671577035,2.5533910891283966,-4.930144521696978,-0.1396484375,0.0830078125,0.88720703125,-9.6435546875,-10.986328125,-3.96728515625,0.0,0.0,0.0,-0.0012163150822743773,0.022248970344662666,0.04300542548298836,0.9988263845443726
5.68054461479187,-0.029288047929159712,2.5291072053080628,-4.84368969473025,-0.00830078125,0.02001953125,1.1123046875,-0.67138671875,3.41796875,-4.5166015625,0.0,0.0,0.0,-0.0006772571359761059,0.022059913724660873,0.042240649461746216,0.9988637566566467
5.695263147354126,-0.16729900037583612,2.5291464788957905,-4.777966199441802,-0.068359375,-0.001953125,1.10546875,8.11767578125,1.15966796875,-2.197265625,0.0,0.0,0.0,0.0005384141113609076,0.02211081236600876,0.041641153395175934,0.9988877773284912
5.720049142837524,-0.2958045272979832,2.419960782371259,-4.746547329259743,-0.12158203125,0.07763671875,0.736328125,-4.5166015625,-15.93017578125,-3.173828125,0.0,0.0,0.0,0.0017041636165231466,0.02120525762438774,0.041345760226249695,0.9989184141159058
5.740009546279907,-0.34696101667536555,2.4894771670831792,-4.625176148369086,0.208984375,0.037109375,1.00244140625,1.64794921875,23.74267578125,-6.89697265625,0.0,0.0,0.0,0.002148070838302374,0.02182743325829506,0.04027588665485382,0.9989479184150696
5.760406970977783,-0.34085047864786355,2.6081465812702733,-4.533667408303371,-0.1865234375,0.03662109375,1.021484375,-0.18310546875,-12.20703125,-2.38037109375,0.0,0.0,0.0,0.0020712115801870823,0.022858118638396263,0.03947532922029495,0.9989569187164307
5.782141208648682,-0.35679592879122857,2.530867046236399,-4.480823942242274,-0.03857421875,0.0224609375,1.01806640625,-2.44140625,-3.0517578125,-3.2958984375,0.0,0.0,0.0,0.0022471637930721045,0.022188887000083923,0.039014168083667755,0.9989897608757019
5.800311326980591,-0.45759135157020747,2.4903721353078625,-4.461084695540937,-0.091796875,0.01513671875,1.05810546875,4.33349609375,-10.80322265625,-1.64794921875,0.0,0.0,0.0,0.003143489360809326,0.021869629621505737,0.03882426396012306,0.9990018010139465
5.81530499458313,-0.6400825869704295,2.4837331914346104,-4.426038568022779,-0.0458984375,0.04638671875,0.9912109375,-1.3427734375,-2.44140625,-0.67138671875,0.0,0.0,0.0,0.0047433823347091675,0.021872103214263916,0.038484226912260056,0.9990085959434509
5.835142135620117,-0.8139437716326348,2.433442722019218,-4.42288942392858,-0.02685546875,0.01220703125,1.0751953125,9.1552734375,2.9296875,0.8544921875,0.0,0.0,0.0,0.0062766969203948975,0.021491868421435356,0.038427021354436874,0.9990106225013733
5.860401153564453,-0.8653476686044449,2.442565293429416,-4.467841887064196,-0.0810546875,0.08935546875,0.8779296875,-7.080078125,-2.8076171875,1.953125,0.0,0.0,0.0,0.006713282782584429,0.021591270342469215,0.03880860283970833,0.9989908337593079
5.880052804946899,-0.9165554644418817,2.358924717844144,-4.49931198366503,0.03466796875,-0.00537109375,1.21826171875,5.79833984375,7.2021484375,1.953125,0.0,0.0,0.0,0.007182535715401173,0.020881423726677895,0.039079729467630386,0.9989921450614929
5.899961709976196,-1.0177083248939491,2.400691538062184,-4.557591426531809,-0.10107421875,0.0234375,0.9716796875,1.708984375,-0.54931640625,5.06591796875,0.0,0.0,0.0,0.008039173670113087,0.021284112706780434,0.039565812796354294,0.9989578723907471
5.920239210128784,-1.0983972982624237,2.354440698654031,-4.633075262144206,-0.0390625,0.06591796875,0.7646484375,-4.150390625,-2.685546875,1.708984375,0.0,0.0,0.0,0.008744931779801846,0.02091454528272152,0.04021304100751877,0.9989339113235474
5.939899206161499,-1.0945141222758599,2.4484719129575963,-4.636220137370174,0.15185546875,0.03515625,0.998046875,-0.06103515625,18.4326171875,-0.48828125,0.0,0.0,0.0,0.008677160367369652,0.021733101457357407,0.040232639759778976,0.9989163279533386
5.961959600448608,-1.0708442084288865,2.3989916747324966,-4.673851064602358,-0.177734375,0.03564453125,1.0400390625,-2.685546875,-15.0146484375,2.44140625,0.0,0.0,0.0,0.008481377735733986,0.02129625529050827,0.04056956619024277,0.9989137053489685
5.982381582260132,-1.0421796120296354,2.3945221696943695,-4.725926134381829,-0.02099609375,0.0322265625,1.060546875,-2.0751953125,-1.46484375,0.67138671875,0.0,0.0,0.0,0.00822344422340393,0.021250881254673004,0.04102921858429909,0.9988982081413269
6.000201225280762,-1.0048457980263457,2.211142049206694,-4.761181009556496,-0.0625,-0.0048828125,1.08203125,4.0283203125,-7.50732421875,1.5869140625,0.0,0.0,0.0,0.00795820727944374,0.01964142918586731,0.04135880991816521,0.9989196062088013
6.020277976989746,-0.7854403250091138,2.1086335029260845,-4.78841212000369,0.01123046875,-0.06787109375,0.92333984375,-9.33837890625,2.197265625,1.89208984375,0.0,0.0,0.0,0.0060784169472754,0.01867004856467247,0.04164054989814758,0.9989398121833801
6.039894342422485,-0.5490947021897807,2.045158633978452,-4.825313497655153,0.0146484375,-0.17041015625,1.0244140625,-0.3662109375,-2.38037109375,4.69970703125,0.0,0.0,0.0,0.004035465884953737,0.01803208328783512,0.042003728449344635,0.9989466667175293
6.059847831726074,-0.28353705398139073,1.7624508076509833,-5.038921260644955,0.04833984375,-0.189453125,1.0048828125,-6.7138671875,-9.033203125,15.9912109375,0.0,0.0,0.0,0.0017955722287297249,0.015473519451916218,0.043915361166000366,0.9989138245582581
6.081375360488892,-0.13368267691088453,1.5159388217780565,-5.5134721320068625,0.1650390625,-0.23486328125,1.1201171875,1.03759765625,-3.84521484375,26.67236328125,0.0,0.0,0.0,0.0005289089749567211,0.013269460760056973,0.048075903207063675,0.9987554550170898
6.100687026977539,-0.038612116589979976,1.344995942160445,-6.284188116630163,0.10009765625,-0.18310546875,0.8876953125,-3.72314453125,3.84521484375,44.00634765625,0.0,0.0,0.0,-0.0003069103986490518,0.011737857013940811,0.05480467155575752,0.9984281063079834
6.1198344230651855,0.1382910935892994,1.100421702299392,-7.339336230181242,0.08642578125,-0.177734375,0.85205078125,-2.3193359375,-12.8173828125,57.43408203125,0.0,0.0,0.0,-0.0018189068650826812,0.009505908004939556,0.0640125721693039,0.9979022741317749
6.1402668952941895,0.35248733340499344,0.8122594896719919,-8.690031751760651,0.11181640625,-0.2080078125,0.9794921875,-5.0048828125,-4.2724609375,75.3173828125,0.0,0.0,0.0,-0.0036041277926415205,0.006834795698523521,0.07578165084123611,0.9970945119857788
6.162363529205322,0.6413833111204938,0.44482772904343704,-10.318837208417348,0.080078125,-0.24658203125,1.0595703125,-0.8544921875,-21.3623046875,87.5244140625,0.0,0.0,0.0,-0.005923453718423843,0.003362728515639901,0.08994673937559128,0.9959233403205872
6.180758476257324,0.727526937593164,0.04305138936989117,-12.14184457997137,0.23681640625,-0.26513671875,1.111328125,8.85009765625,-10.6201171875,94.05517578125,0.0,0.0,0.0,-0.006352953612804413,-0.00029786856612190604,0.10575965791940689,0.9943714141845703
6.200198411941528,0.7476670843822689,-0.11479985855823059,-14.175094565688493,0.25341796875,-0.2431640625,1.03125,4.82177734375,-2.50244140625,104.67529296875,0.0,0.0,0.0,-0.006351112853735685,-0.0017991813365370035,0.12337663024663925,0.9923380017280579
6.217046022415161,0.6888139589860607,-0.384466332459846,-16.410053697974433,0.19921875,-0.24267578125,1.03271484375,7.87353515625,-8.1787109375,114.92919921875,0.0,0.0,0.0,-0.005470619071274996,-0.004178551025688648,0.1426924169063568,0.9897432327270508
6.23999810218811,0.8604585338191851,-0.3501685108622006,-18.89924100890471,0.1552734375,-0.1806640625,0.787109375,-5.31005859375,-19.59228515625,125.1220703125,0.0,0.0,0.0,-0.006905233021825552,-0.004247039556503296,0.16415226459503174,0.9864017367362976
6.256471633911133,1.2092209595272887,-0.9763833325378448,-21.60067474074584,0.13330078125,-0.24365234375,0.87353515625,-10.80322265625,-29.296875,135.19287109375,0.0,0.0,0.0,-0.008768416941165924,-0.010346335358917713,0.187281534075737,0.9822127223014832
6.280158042907715,1.3198777080443116,-1.3113201213445203,-24.43277852914578,0.4453125,-0.28759765625,1.16748046875,1.46484375,8.36181640625,143.85986328125,0.0,0.0,0.0,-0.00883503071963787,-0.013620375655591488,0.21144765615463257,0.9772545099258423
6.299864768981934,1.468476264122461,-1.4184124716101485,-27.385430033754563,0.31689453125,-0.263671875,1.05126953125,0.244140625,-10.31494140625,147.52197265625,0.0,0.0,0.0,-0.009519635699689388,-0.015058049000799656,0.23652294278144836,0.971462607383728
6.319940805435181,1.4338769803864093,-1.7075229599542696,-30.44150426277568,0.29345703125,-0.2880859375,1.01318359375,13.12255859375,-11.23046875,155.82275390625,0.0,0.0,0.0,-0.008160722441971302,-0.017661267891526222,0.26230907440185547,0.9647877812385559
6.335939168930054,1.6021097690074066,-1.7654299440678725,-33.64040970017281,0.31201171875,-0.20361328125,0.81982421875,2.5634765625,-15.0146484375,161.0107421875,0.0,0.0,0.0,-0.008923382498323917,-0.018790211528539658,0.2891005873680115,0.9570727944374084
6.360196590423584,1.9075644731485453,-2.3332918716627327,-36.988759676609824,0.228515625,-0.22705078125,0.83740234375,-6.103515625,-24.7802734375,169.49462890625,0.0,0.0,0.0,-0.009325257502496243,-0.024585381150245667,0.3167805075645447,0.9481344223022461
6.375706434249878,2.2775805799238773,-2.5889351801257314,-40.45810303909902,0.4853515625,-0.2998046875,1.060546875,-9.09423828125,1.5869140625,174.1943359375,0.0,0.0,0.0,-0.010833912529051304,-0.028063436970114708,0.3451962172985077,0.9380483627319336
6.400180816650391,2.375269787414808,-2.67481499054171,-43.945624950064214,0.40478515625,-0.39111328125,1.26611328125,23.25439453125,-9.21630859375,177.30712890625,0.0,0.0,0.0,-0.010484679602086544,-0.029393116012215614,0.3735356628894806,0.9270907640457153
6.420416355133057,2.569153244742082,-2.733625267173047,-47.59151162712532,0.37939453125,-0.19970703125,0.84521484375,-3.5400390625,-2.25830078125,185.36376953125,0.0,0.0,0.0,-0.010884816758334637,-0.030862541869282722,0.40277206897735596,0.914715051651001
6.440081596374512,2.8968264475315664,-3.10336560506064,-51.31134534723557,0.28759765625,-0.2744140625,0.84326171875,-6.65283203125,-26.67236328125,186.34033203125,0.0,0.0,0.0,-0.011056257411837578,-0.03534115478396416,0.4320478141307831,0.901090145111084
6.46040940284729,3.202261621600547,-3.5083140740157672,-55.11173431841695,0.43212890625,-0.3212890625,0.96044921875,-2.86865234375,-13.61083984375,190.12451171875,0.0,0.0,0.0,-0.010604551061987877,-0.04004792124032974,0.4614576995372772,0.8861943483352661
6.480458974838257,3.4065997506695838,-3.36612703785585,-59.012055787344785,0.5712890625,-0.32958984375,1.11865234375,9.1552734375,25.08544921875,200.3173828125,0.0,0.0,0.0,-0.011398429051041603,-0.04018331319093704,0.49132534861564636,0.8699740767478943
6.500302076339722,3.705403664828128,-3.337393926121487,-62.93942139029129,0.365234375,-0.34033203125,0.9775390625,3.41796875,-16.9677734375,197.8759765625,0.0,0.0,0.0,-0.01236903015524149,-0.0416947603225708,0.5207505822181702,0.8526003956794739
6.519261837005615,3.935110610578473,-3.7329387186933882,-66.92353903505143,0.43505859375,-0.263671875,0.9287109375,1.89208984375,-21.42333984375,196.71630859375,0.0,0.0,0.0,-0.010679695755243301,-0.04607667773962021,0.5498300790786743,0.8339362740516663
6.534905910491943,4.137215481232327,-4.101887608410906,-70.9205862279104,0.5439453125,-0.2265625,0.97314453125,10.68115234375,-12.0849609375,199.27978515625,0.0,0.0,0.0,-0.008633626624941826,-0.05005839467048645,0.5783369541168213,0.8142150044441223
6.555776596069336,4.421104183234268,-3.8185286729564645,-74.86925519087816,0.71533203125,-0.1943359375,0.9775390625,1.220703125,7.080078125,195.12939453125,0.0,0.0,0.0,-0.010374138131737709,-0.049868520349264145,0.6060458421707153,0.7937971949577332
6.575265884399414,4.415719432847359,-3.9607686430824494,-78.64901357567153,0.52783203125,-0.2978515625,1.0986328125,22.705078125,-35.888671875,187.744140625,0.0,0.0,0.0,-0.007900732569396496,-0.051111746579408646,0.6318332552909851,0.773377001285553
6.600483655929565,4.429764863101844,-4.150208208580984,-82.36891901276806,0.66845703125,-0.15380859375,0.96630859375,9.6435546875,-11.474609375,186.279296875,0.0,0.0,0.0,-0.005241081118583679,-0.05266270041465759,0.65650874376297,0.7524595856666565
6.619834899902344,4.579159883270241,-4.211624415824092,-86.04361542774828,0.53076171875,-0.12109375,0.8359375,8.36181640625,-5.615234375,184.99755859375,0.0,0.0,0.0,-0.004137242212891579,-0.054081253707408905,0.6801983714103699,0.7310187816619873
6.640414237976074,4.945911159622306,-3.8493490478125008,-89.71738293700137,0.54833984375,-0.1533203125,0.79541015625,-6.8359375,12.02392578125,182.31201171875,0.0,0.0,0.0,-0.006900121923536062,-0.05420253053307533,0.7032790184020996,0.7088111042976379
6.660817384719849,5.111529159729953,-3.978230875469233,-93.27270813585729,0.64697265625,-0.2978515625,1.13427734375,8.36181640625,-10.07080078125,172.9736328125,0.0,0.0,0.0,-0.005390231031924486,-0.05620795115828514,0.7247869372367859,0.6866554021835327
6.679965972900391,5.037705486972693,-3.8634017351429786,-96.59324558199401,0.71923828125,-0.26171875,1.13720703125,23.92578125,-13.427734375,162.65869140625,0.0,0.0,0.0,-0.0040787807665765285,-0.05519647151231766,0.7444682121276855,0.6653599739074707
6.696078538894653,4.921924389030868,-3.795071242025702,-99.82624049353868,0.6376953125,-0.1845703125,0.92822265625,12.02392578125,-6.89697265625,160.70556640625,0.0,0.0,0.0,-0.0023253951221704483,-0.054135918617248535,0.7630285620689392,0.6440895199775696
6.72000527381897,5.084598577606238,-3.9226318549648598,-103.08913114308048,0.51025390625,-0.1396484375,0.7587890625,-0.91552734375,-6.2255859375,162.29248046875,0.0,0.0,0.0,-0.000794934225268662,-0.055978819727897644,0.7809189558029175,0.6221185326576233
6.740508794784546,5.30495414060919,-3.807809971714599,-106.26790118280442,0.58642578125,-0.21533203125,0.8935546875,4.69970703125,-8.4228515625,154.296875,0.0,0.0,0.0,-0.001197442295961082,-0.05691459774971008,0.7978195548057556,0.600202739238739
6.761573553085327,5.238659043864577,-3.8965076620500305,-109.2651043038219,0.7392578125,-0.25732421875,1.126953125,17.2119140625,-3.41796875,142.88330078125,0.0,0.0,0.0,0.00125733925960958,-0.05690228193998337,0.8132346272468567,0.5791460275650024
6.7761335372924805,4.917187225954641,-3.94746556901338,-112.1047554512547,0.7236328125,-0.18115234375,1.1298828125,21.78955078125,-14.22119140625,137.451171875,0.0,0.0,0.0,0.004603264387696981,-0.05477987974882126,0.8274680376052856,0.5588153004646301
6.799933195114136,4.908328470601134,-4.083054215548242,-114.90558380344515,0.6982421875,-0.10546875,0.93505859375,9.33837890625,-2.9296875,136.3525390625,0.0,0.0,0.0,0.006979132536798716,-0.0552201084792614,0.8408200740814209,0.5384456515312195
6.820474863052368,4.859672764274903,-3.9211680600483616,-117.5893153925049,0.6533203125,-0.13037109375,0.9677734375,14.95361328125,5.2490234375,135.31494140625,0.0,0.0,0.0,0.007282971404492855,-0.05395020544528961,0.8532952070236206,0.5185784697532654
6.836139440536499,4.885009351001065,-3.967717933676114,-120.26918109449443,0.41357421875,-0.09228515625,0.69775390625,8.30078125,-10.19287109375,136.1083984375,0.0,0.0,0.0,0.008784390054643154,-0.054157909005880356,0.8651556968688965,0.4984930157661438
6.860020399093628,5.195084144507188,-3.8484722222778003,-122.95785774051326,0.634765625,-0.0625,0.78271484375,-11.16943359375,9.82666015625,131.89697265625,0.0,0.0,0.0,0.007845318876206875,-0.05581408739089966,0.8765171766281128,0.47805947065353394
6.88055682182312,5.361797109316152,-3.6968684896865507,-125.4433635794809,0.7685546875,-0.16357421875,1.1826171875,2.50244140625,2.9296875,118.2861328125,0.0,0.0,0.0,0.007211422082036734,-0.05631718412041664,0.8866645097732544,0.45891445875167847
6.901186943054199,5.399903588469299,-3.806861429193613,-127.66545634291784,0.7412109375,-0.13818359375,1.1064453125,9.70458984375,-10.7421875,104.248046875,0.0,0.0,0.0,0.009015941992402077,-0.056885793805122375,0.8953294157981873,0.4416648745536804
6.9206016063690186,5.264119427769446,-3.731563289349277,-129.59188387756325,0.74658203125,-0.0966796875,1.04931640625,11.53564453125,8.056640625,92.1630859375,0.0,0.0,0.0,0.009882355108857155,-0.055378105491399765,0.9027264714241028,0.42652153968811035
6.94024920463562,5.293341965246522,-3.6346949852192174,-131.28881705609624,0.51171875,-0.0068359375,0.7197265625,-2.5634765625,-2.13623046875,80.4443359375,0.0,0.0,0.0,0.00982656516134739,-0.055110570043325424,0.9089701175689697,0.413085401058197
6.960905075073242,5.396310482079049,-3.637147876904898,-132.57996869603878,0.6552734375,0.0068359375,0.9580078125,-0.42724609375,2.86865234375,52.79541015625,0.0,0.0,0.0,0.010104494169354439,-0.05582580342888832,0.9135159254074097,0.4028276205062866
6.980468988418579,5.32570852417592,-3.6840426750857365,-133.27733101029708,0.6162109375,0.02685546875,1.0068359375,4.69970703125,-6.77490234375,25.390625,0.0,0.0,0.0,0.011064124293625355,-0.05536038801074028,0.9159651398658752,0.3972667157649994
7.001371383666992,5.398145241644844,-4.021365654511979,-133.56615238954024,0.576171875,0.10791015625,0.8701171875,-12.14599609375,-5.06591796875,4.57763671875,0.0,0.0,0.0,0.013656584545969963,-0.0570661798119545,0.9167828559875488,0.3950520157814026
7.015672206878662,5.491252245976342,-4.109288972150261,-133.34188995833202,0.65087890625,0.06689453125,0.99267578125,-3.7841796875,9.82666015625,-17.822265625,0.0,0.0,0.0,0.013926236890256405,-0.05813915655016899,0.9159218072891235,0.3968793749809265
7.041602373123169,5.524029470029587,-4.092859805875442,-132.70205149726357,0.5966796875,0.083984375,1.009765625,-8.544921875,0.48828125,-38.9404296875,0.0,0.0,0.0,0.013355225324630737,-0.05842017009854317,0.9136822819709778,0.40198683738708496
7.060938119888306,5.527158550443099,-4.394444674243239,-131.62777202384729,0.66455078125,0.10693359375,1.1767578125,-5.18798828125,6.28662109375,-63.4765625,0.0,0.0,0.0,0.015194030478596687,-0.05963963642716408,0.9097312688827515,0.41061100363731384
7.080289840698242,5.326881182279046,-4.392751641102722,-130.07610330858213,0.50341796875,0.11376953125,1.130859375,5.615234375,4.69970703125,-83.3740234375,0.0,0.0,0.0,0.015110806562006474,-0.058253489434719086,0.9041920304298401,0.42286521196365356
7.1016223430633545,4.863763193814093,-4.504520429793987,-128.2715809902431,0.22802734375,0.23291015625,1.0244140625,9.58251953125,19.4091796875,-93.20068359375,0.0,0.0,0.0,0.016834739595651627,-0.05528019741177559,0.8975980877876282,0.4370107650756836
7.120222568511963,4.385594456626195,-4.16678977345166,-126.345085153706,0.00927734375,0.302734375,1.00439453125,11.474609375,24.23095703125,-94.42138671875,0.0,0.0,0.0,0.015161016955971718,-0.050516221672296524,0.8904989957809448,0.4519179165363312
7.13989782333374,3.9203872840488643,-3.830269768139716,-124.378701012416,-0.13720703125,0.32861328125,0.921875,6.8359375,19.22607421875,-97.5341796875,0.0,0.0,0.0,0.01359223760664463,-0.045819997787475586,0.8829495906829834,0.46702873706817627
7.1599485874176025,3.548009852811412,-3.529029610881593,-122.40431188941875,-0.140625,0.32421875,0.9501953125,5.615234375,16.845703125,-97.35107421875,0.0,0.0,0.0,0.012064922600984573,-0.04194166883826256,0.8750302791595459,0.48209697008132935
7.1803154945373535,3.2012330378002254,-3.464301402221263,-120.43044186079842,-0.18798828125,0.3564453125,1.01416015625,1.89208984375,2.8076171875,-99.2431640625,0.0,0.0,0.0,0.012354915961623192,-0.03924064338207245,0.8667430281639099,0.4970555007457733
7.200403928756714,2.9036886532133135,-3.350851533220528,-118.41697039537037,-0.1064453125,0.34130859375,1.02392578125,2.86865234375,10.07080078125,-100.2197265625,0.0,0.0,0.0,0.012143285945057869,-0.0367182120680809,0.8580136299133301,0.5121688842773438
7.220427751541138,2.526426142615421,-3.116302410235467,-116.42715870522723,-0.158203125,0.32421875,1.05810546875,4.39453125,11.1083984375,-96.74072265625,0.0,0.0,0.0,0.011499405838549137,-0.03305185213685036,0.8491809964179993,0.5269412994384766
7.239920616149902,2.18728014301102,-3.060319618477104,-114.52273120989842,-0.2177734375,0.33837890625,0.96337890625,4.33349609375,0.0,-93.8720703125,0.0,0.0,0.0,0.01213874388486147,-0.0304874200373888,0.8404175639152527,0.5409449934959412
7.260265827178955,1.8733618739928832,-2.957638183033129,-112.64531028254785,-0.11572265625,0.326171875,0.93115234375,2.86865234375,9.58251953125,-91.9189453125,0.0,0.0,0.0,0.012411470524966717,-0.02790805883705616,0.831551194190979,0.5546078681945801
7.280508756637573,1.6479803589778603,-2.7031566470592665,-110.82391056676973,-0.18212890625,0.33642578125,0.986328125,-0.91552734375,7.26318359375,-87.95166015625,0.0,0.0,0.0,0.011255020275712013,-0.025224274024367332,0.8227481245994568,0.5677346587181091
7.301220655441284,1.4373390325219595,-2.588653221379057,-109.11963493487897,-0.244140625,0.34228515625,1.078125,1.0986328125,2.74658203125,-82.09228515625,0.0,0.0,0.0,0.01113062258809805,-0.02331317402422428,0.8142850995063782,0.5798899531364441
7.319961786270142,1.2042554120006894,-2.4679750912457448,-107.51281244206596,-0.18310546875,0.32958984375,1.0,1.15966796875,3.662109375,-76.96533203125,0.0,0.0,0.0,0.011156000196933746,-0.021205080673098564,0.8061453700065613,0.5912322998046875
7.340009689331055,1.021913693710267,-2.33650227401605,-105.9933958800616,-0.16552734375,0.3203125,0.95361328125,-1.64794921875,3.2958984375,-73.486328125,0.0,0.0,0.0,0.010915419086813927,-0.019390754401683807,0.7982937097549438,0.6018573045730591
7.3606507778167725,0.8144633462572317,-2.2542488671625254,-104.58951879805718,-0.2001953125,0.3173828125,1.02490234375,2.99072265625,-2.0751953125,-67.87109375,0.0,0.0,0.0,0.011216391809284687,-0.017652437090873718,0.7909090518951416,0.6115762591362
7.3810875415802,0.5825670580736331,-2.252320619382466,-103.31351651769374,-0.19580078125,0.3251953125,1.0400390625,1.8310546875,-5.43212890625,-60.05859375,0.0,0.0,0.0,0.012261292897164822,-0.016179101541638374,0.7840847969055176,0.6203217506408691
7.400326490402222,0.36331606472551975,-2.246625949161968,-102.21106251395115,-0.12939453125,0.318359375,1.00732421875,0.48828125,-3.2958984375,-51.3916015625,0.0,0.0,0.0,0.013267633505165577,-0.01477636955678463,0.7781112790107727,0.6278125643730164
7.419997930526733,0.1340371397164244,-2.2371279307908303,-101.31130120401787,-0.11083984375,0.27978515625,0.986328125,3.11279296875,-1.8310546875,-40.46630859375,0.0,0.0,0.0,0.014355422928929329,-0.013280563056468964,0.7731873393058777,0.6338762044906616
7.435637474060059,-0.07579411563174226,-2.2531632939713164,-100.69204893310783,-0.10400390625,0.298828125,0.97021484375,-0.06103515625,-4.94384765625,-25.20751953125,0.0,0.0,0.0,0.015559474937617779,-0.012037698179483414,0.7697717547416687,0.6380161643028259
7.455676078796387,-0.22544304007840596,-2.3152877064539905,-100.2966492820558,-0.0673828125,0.33935546875,1.03515625,-1.52587890625,-8.11767578125,-15.9912109375,0.0,0.0,0.0,0.016770610585808754,-0.011436264961957932,0.7675731778144836,0.6406398415565491
7.4806227684021,-0.39870188743318064,-2.3769273889490052,-100.04540077343687,-0.0029296875,0.31396484375,1.0615234375,1.3427734375,-4.69970703125,-10.07080078125,0.0,0.0,0.0,0.018128732219338417,-0.010660127736628056,0.7661759257316589,0.6422865986824036
7.500231027603149,-0.6115719366317682,-2.4270763453825315,-99.89588793250529,-0.01123046875,0.3193359375,1.00244140625,2.197265625,-5.4931640625,-4.82177734375,0.0,0.0,0.0,0.01964464783668518,-0.009543614462018013,0.7653502821922302,0.6432434320449829
7.52011513710022,-0.791310232270505,-2.4751254455331018,-99.82298932349374,0.0048828125,0.318359375,0.96533203125,-0.30517578125,-2.74658203125,-2.8076171875,0.0,0.0,0.0,0.02096891961991787,-0.008626277558505535,0.7649499773979187,0.6436904668807983
7.540651559829712,-0.9138176258017644,-2.45285219864969,-99.7778759240258,0.0107421875,0.263671875,0.9521484375,-5.126953125,2.38037109375,-1.953125,0.0,0.0,0.0,0.021505393087863922,-0.00769178569316864,0.7647075057029724,0.643972635269165
7.5602850914001465,-0.9004345104533591,-2.3063132647714166,-99.71894505186694,-0.013671875,0.044921875,1.0,-5.615234375,0.1220703125,-2.9296875,0.0,0.0,0.0,0.0204489603638649,-0.006967766676098108,0.764389157295227,0.6443932056427002
7.578329086303711,-0.9386683086015037,-2.0550346606314673,-99.67771803003674,-0.05712890625,0.0673828125,1.10986328125,0.0,3.47900390625,-0.79345703125,0.0,0.0,0.0,0.018986301496624947,-0.005305966828018427,0.7641798257827759,0.6447018980979919
7.600061893463135,-0.9482568269791438,-1.8759784767752328,-99.67573044498828,-0.08642578125,-0.0107421875,0.99365234375,-3.7841796875,0.91552734375,1.03759765625,0.0,0.0,0.0,0.017846371978521347,-0.004234591498970985,0.7641812562942505,0.6447408199310303
7.619985580444336,-0.7118970101729419,-1.7671339695440849,-99.76030184729137,-0.099609375,-0.1337890625,0.9677734375,-6.4697265625,-1.64794921875,6.4697265625,0.0,0.0,0.0,0.015794577077031136,-0.005186557769775391,0.764654278755188,0.6442263722419739
7.641519069671631,-0.4205919233515575,-1.751787601696124,-99.93047601046224,-0.03173828125,-0.13818359375,1.01513671875,-5.0048828125,-4.57763671875,9.33837890625,0.0,0.0,0.0,0.01406488474458456,-0.0070232064463198185,0.7655957937240601,0.6431297659873962
7.6614089012146,-0.1051294712920429,-1.7869839933760228,-100.19015980270612,-0.01806640625,-0.17236328125,0.97314453125,-5.7373046875,-4.39453125,14.95361328125,0.0,0.0,0.0,0.01255058590322733,-0.009299942292273045,0.7670256495475769,0.6414262652397156
7.684128761291504,0.12428460341721144,-1.9293963190568448,-100.55437964019706,0.08447265625,-0.158203125,1.05615234375,0.30517578125,-4.8828125,18.798828125,0.0,0.0,0.0,0.012256566435098648,-0.011593764647841454,0.7690240740776062,0.6389972567558289
7.700085639953613,0.22251151488250853,-2.1247275630447504,-100.99180544521218,0.1142578125,-0.11962890625,1.0361328125,2.13623046875,-3.11279296875,23.74267578125,0.0,0.0,0.0,0.01307055912911892,-0.013292303308844566,0.7714221477508545,0.6360506415367126
7.715299129486084,0.4268668661668158,-2.298057273612164,-101.49756729287328,0.06591796875,-0.0908203125,0.94873046875,-2.685546875,-6.04248046875,26.91650390625,0.0,0.0,0.0,0.013172029517591,-0.015571940690279007,0.7741708755493164,0.6326479315757751
7.740111351013184,0.729087582457659,-2.4342450558032827,-102.12300088498218,0.06494140625,-0.0849609375,0.966796875,-2.01416015625,-3.2958984375,33.02001953125,0.0,0.0,0.0,0.012523707933723927,-0.01829724945127964,0.7775448560714722,0.6284365057945251
7.76043176651001,1.011939483087933,-2.497318651137177,-102.83014403013193,0.0849609375,-0.11767578125,1.01171875,0.9765625,0.0,35.15625,0.0,0.0,0.0,0.011527220718562603,-0.020491456612944603,0.781348466873169,0.6236521005630493
7.780176162719727,1.186311544555714,-2.5205511127121523,-103.53133808051462,0.1142578125,-0.13037109375,1.05322265625,2.50244140625,4.150390625,33.50830078125,0.0,0.0,0.0,0.010869904421269894,-0.021740661934018135,0.7851132154464722,0.6188752055168152
7.8006792068481445,1.3141308509096863,-2.5359559640548817,-104.20961684623191,0.04736328125,-0.103515625,0.9931640625,2.74658203125,1.46484375,33.50830078125,0.0,0.0,0.0,0.010419349186122417,-0.022638261318206787,0.7887346744537354,0.6142284274101257
7.82003378868103,1.5213467307751198,-2.499580084082686,-104.90015580150937,0.0419921875,-0.064453125,0.9677734375,-0.91552734375,2.8076171875,34.48486328125,0.0,0.0,0.0,0.009201823733747005,-0.02381463162600994,0.7923877239227295,0.6094833612442017
7.839964866638184,1.7554879634006841,-2.33480881398871,-105.627461665089,0.0029296875,-0.0537109375,1.037109375,-0.30517578125,0.67138671875,37.90283203125,0.0,0.0,0.0,0.006972299888730049,-0.02451421692967415,0.7962273359298706,0.6044605374336243
7.860485315322876,1.8880326934432474,-2.1907178625976518,-106.43765187424674,-0.033203125,-0.06201171875,0.998046875,-2.44140625,-3.90625,41.1376953125,0.0,0.0,0.0,0.005445783492177725,-0.024637863039970398,0.8004845380783081,0.5988220572471619
7.879999399185181,2.0881751653711924,-2.0010514067526253,-107.28566767102802,0.00732421875,-0.05029296875,0.93798828125,-3.60107421875,0.79345703125,42.78564453125,0.0,0.0,0.0,0.0032596029341220856,-0.025022223591804504,0.8048921227455139,0.5928845405578613
7.895198583602905,2.2518053669869533,-1.7779665428460192,-108.11392373054045,0.03271484375,-0.05419921875,1.11279296875,3.35693359375,5.4931640625,40.8935546875,0.0,0.0,0.0,0.0010261274874210358,-0.0250115767121315,0.80916827917099,0.5870435833930969
7.920268297195435,2.2731164109710393,-1.5682268013605603,-108.90077518330425,0.01416015625,-0.04345703125,1.0078125,3.41796875,2.0751953125,38.330078125,0.0,0.0,0.0,-0.00039932201616466045,-0.024091757833957672,0.813218355178833,0.5814597606658936
7.935378551483154,2.1927141988259993,-1.3450971143375259,-109.60513161127265,-0.00244140625,-0.01171875,0.8447265625,-4.150390625,2.8076171875,33.63037109375,0.0,0.0,0.0,-0.0014377981424331665,-0.02239900827407837,0.8168354034423828,0.5764341354370117
7.96056342124939,2.291789721275031,-1.0463911707048887,-110.19663282358492,-0.015625,-0.03271484375,0.94921875,-7.99560546875,5.67626953125,27.03857421875,0.0,0.0,0.0,-0.0039545041508972645,-0.02162426896393299,0.819832444190979,0.5721815824508667
7.980793714523315,2.411735527063271,-0.7560798497273148,-110.63737810053668,-0.0498046875,-0.03369140625,1.02197265625,-5.79833984375,3.84521484375,18.49365234375,0.0,0.0,0.0,-0.006549951154738665,-0.02105889283120632,0.8220506906509399,0.568987250328064
7.9999589920043945,2.492302730965449,-0.44676961052140984,-110.91302404487088,-0.06396484375,-0.0224609375,1.01123046875,-4.5166015625,4.45556640625,11.3525390625,0.0,0.0,0.0,-0.009120897389948368,-0.020123595371842384,0.8234469294548035,0.5669630765914917
8.019958019256592,2.436504354314676,-0.20778238536014795,-111.07060333921224,-0.0927734375,-0.037109375,1.068359375,3.41796875,-0.54931640625,7.38525390625,0.0,0.0,0.0,-0.0105368597432971,-0.018554937094449997,0.8242654800415039,0.5658013820648193
8.039917469024658,2.3221904663839346,-0.10148715952532121,-111.20530833002323,-0.11181640625,0.017578125,0.96484375,0.1220703125,-7.26318359375,7.01904296875,0.0,0.0,0.0,-0.01071682758629322,-0.017220472916960716,0.8249598145484924,0.5648273825645447
8.06086015701294,2.2555241915466135,-0.03397444815902107,-111.38009287088386,-0.0419921875,0.03662109375,1.04052734375,-5.43212890625,0.79345703125,10.07080078125,0.0,0.0,0.0,-0.010849234648048878,-0.016424333676695824,0.8258370757102966,0.563565194606781
8.079967975616455,2.175593689341128,0.0442569644491447,-111.5615914876986,-0.009765625,0.0166015625,1.02685546875,-6.4697265625,1.89208984375,7.99560546875,0.0,0.0,0.0,-0.010995431803166866,-0.01548097562044859,0.8267471790313721,0.5622531771659851
8.10005235671997,1.9931947682164066,0.20260152679213458,-111.60012058480665,-0.0126953125,-0.0029296875,1.08349609375,5.7373046875,8.72802734375,-2.50244140625,0.0,0.0,0.0,-0.011238385923206806,-0.013391793705523014,0.8269720673561096,0.5619712471961975
8.120060682296753,1.7027611441640071,0.46633330001673623,-111.41667536407844,-0.0849609375,0.02978515625,0.974609375,7.2021484375,4.8828125,-12.20703125,0.0,0.0,0.0,-0.011733273044228554,-0.009983450174331665,0.8261163234710693,0.5632889866828918
8.14005994796753,1.5794786842445099,0.6649500784388295,-111.0597501686211,-0.10009765625,0.08544921875,0.8857421875,-5.06591796875,4.08935546875,-21.30126953125,0.0,0.0,0.0,-0.012584244832396507,-0.00807899422943592,0.8243744969367981,0.5658472776412964
8.15550184249878,1.5131335350198853,0.8187165263977398,-110.51996031851499,-0.08154296875,0.05712890625,1.06787109375,-3.2958984375,-1.220703125,-29.9072265625,0.0,0.0,0.0,-0.013394794426858425,-0.006779205519706011,0.8217073678970337,0.5697120428085327
8.181516885757446,1.4253613353169903,0.8724912460634849,-109.92360284170283,-0.08935546875,-0.01025390625,1.11474609375,3.35693359375,-2.685546875,-29.9072265625,0.0,0.0,0.0,-0.013374405913054943,-0.005812864284962416,0.8187367916107178,0.5739838480949402
8.200317621231079,1.2556243042530033,0.9869818651390005,-109.33025747831465,-0.0126953125,-0.00927734375,0.970703125,5.37109375,1.52587890625,-28.564453125,0.0,0.0,0.0,-0.013362778350710869,-0.0039573428221046925,0.8157610893249512,0.5782210826873779
8.22086787223816,0.9926498549330532,0.9988460104490184,-108.83677631078123,-0.03173828125,0.01416015625,0.9013671875,1.52587890625,-3.41796875,-22.03369140625,0.0,0.0,0.0,-0.012128854170441628,-0.001973162405192852,0.813270092010498,0.581756591796875
8.242052555084229,0.889721892348723,0.9993681997554071,-108.52825666597175,-0.03564453125,0.017578125,0.9970703125,-4.0283203125,-4.5166015625,-11.29150390625,0.0,0.0,0.0,-0.011613307520747185,-0.0012087540235370398,0.8117022514343262,0.5839548110961914
8.255969285964966,0.7679901521750832,1.0157837056518866,-108.420920243165,-0.01611328125,-0.00390625,1.08935546875,0.1220703125,-3.96728515625,-2.44140625,0.0,0.0,0.0,-0.011109470389783382,-0.00025240101967938244,0.8111552596092224,0.5847253203392029
8.286495447158813,0.6105469280085903,0.838048843234932,-108.43555050836717,0.02294921875,0.01025390625,1.08544921875,5.79833984375,-1.15966796875,4.0283203125,0.0,0.0,0.0,-0.009048019535839558,-4.613607598003e-05,0.8112348318099976,0.5846505165100098
8.300041437149048,0.3209827656931923,0.6907321749257764,-108.63094172995373,-0.0048828125,0.02587890625,0.98486328125,4.0283203125,-5.4931640625,12.63427734375,0.0,0.0,0.0,-0.00652987090870738,0.0012409716146066785,0.8122329711914062,0.5832952857017517
8.320318222045898,0.10986191860289565,0.43493905586828663,-108.95071752651539,0.0244140625,0.02490234375,0.90185546875,1.77001953125,-7.62939453125,18.49365234375,0.0,0.0,0.0,-0.0036461325362324715,0.0014251467073336244,0.813861608505249,0.5810458064079285
8.341075658798218,-0.04583722609718368,0.09898966483673034,-109.4500111850325,0.03076171875,0.01904296875,0.94970703125,2.8076171875,-6.7138671875,28.62548828125,0.0,0.0,0.0,-0.00047423283103853464,0.0008254332351498306,0.8163891434669495,0.5775014162063599
8.360657215118408,-0.1508620167360682,-0.21616524194714856,-110.11796953491388,0.0791015625,0.04638671875,0.97509765625,-1.708984375,-5.31005859375,35.7666015625,0.0,0.0,0.0,0.0023003695532679558,-1.196218136101379e-06,0.8197413682937622,0.5727293491363525
8.380309343338013,-0.18205375644779748,-0.44535231958820576,-110.92802314028823,0.076171875,0.05712890625,1.0185546875,-3.2958984375,-3.2958984375,43.76220703125,0.0,0.0,0.0,0.004102190025150776,-0.0008945739245973527,0.8237665295600891,0.5669137835502625
8.403308868408203,-0.3463553176342029,-0.7778101499325633,-111.89625026646172,0.04248046875,0.0302734375,1.0888671875,4.2724609375,-7.26318359375,51.1474609375,0.0,0.0,0.0,0.007316126953810453,-0.0012964758789166808,0.8285195827484131,0.5599108934402466
8.419983863830566,-0.5147122235990241,-0.9621177354043327,-112.92930271804781,0.044921875,0.09423828125,0.99658203125,0.9765625,-4.08935546875,51.025390625,0.0,0.0,0.0,0.009479698725044727,-0.0008944140863604844,0.8335282206535339,0.5523948669433594
8.439956426620483,-0.46481192873996874,-1.2199127668992975,-113.92075931758852,-0.00048828125,0.13525390625,0.998046875,-17.08984375,-13.671875,48.9501953125,0.0,0.0,0.0,0.011135432869195938,-0.002403977559879422,0.8382629156112671,0.5451472401618958
8.456290006637573,-0.3522779987791031,-1.5553185976028823,-114.86258093243075,0.16748046875,0.00732421875,1.1044921875,-4.8828125,-1.3427734375,45.71533203125,0.0,0.0,0.0,0.013092674314975739,-0.0047155460342764854,0.8426873087882996,0.5382234454154968
8.479944705963135,-0.4107138156252794,-1.747853626177608,-115.79987413185326,0.11181640625,0.0087890625,1.0244140625,6.53076171875,-3.35693359375,47.18017578125,0.0,0.0,0.0,0.014824865385890007,-0.0050691645592451096,0.8470463752746582,0.5312880277633667
8.500473260879517,-0.7038711643722066,-1.9714339989641576,-116.77674144732683,0.033203125,0.05126953125,0.87939453125,6.2255859375,-7.6904296875,49.86572265625,0.0,0.0,0.0,0.01786940172314644,-0.0037867999635636806,0.8515338897705078,0.5239813327789307
8.520018100738525,-0.76453930581864,-2.056490558141738,-117.78685812368,0.08935546875,0.0498046875,0.92724609375,-0.9765625,4.5166015625,51.69677734375,0.0,0.0,0.0,0.018810879439115524,-0.0035593623761087656,0.8561127781867981,0.516434371471405
8.540162563323975,-0.7412022036111461,-2.220337404820235,-118.81553925419729,0.04638671875,-0.001953125,1.11962890625,7.2021484375,-4.0283203125,51.025390625,0.0,0.0,0.0,0.01996895670890808,-0.0042933314107358456,0.8606952428817749,0.5087107419967651
8.555402755737305,-0.802359824161146,-2.4221014063458233,-119.79746090965666,0.06689453125,0.03466796875,1.0380859375,6.7138671875,-4.08935546875,48.7060546875,0.0,0.0,0.0,0.021795358508825302,-0.00454346789047122,0.8650001287460327,0.5012776851654053
8.575204610824585,-0.9142492083799446,-2.531488166564047,-120.76897335682094,0.0576171875,0.0791015625,0.92333984375,-7.4462890625,-1.40380859375,48.9501953125,0.0,0.0,0.0,0.023144938051700592,-0.003981550689786673,0.8692085146903992,0.4938877820968628
8.600316762924194,-0.9166450039530324,-2.6729994408829563,-121.76047093749666,0.044921875,0.03369140625,0.9169921875,-8.056640625,-4.69970703125,50.59814453125,0.0,0.0,0.0,0.024267099797725677,-0.004363859537988901,0.8734295964241028,0.48632580041885376
8.620062112808228,-0.8044357214211538,-2.807332613271005,-122.78301855813928,0.12255859375,-0.00927734375,1.07568359375,3.0517578125,6.7138671875,50.59814453125,0.0,0.0,0.0,0.02486523985862732,-0.005567940883338451,0.8777092695236206,0.4785155653953552
8.639981031417847,-0.866205604397222,-2.938894863290144,-123.79019825314936,0.05859375,0.01708984375,1.05859375,6.89697265625,0.91552734375,49.01123046875,0.0,0.0,0.0,0.026179254055023193,-0.005414668004959822,0.8818626403808594,0.47074809670448303
8.655712127685547,-0.9912038825414204,-2.925143558056793,-124.78172315458177,-0.01513671875,0.06103515625,0.93017578125,-1.953125,-9.033203125,50.048828125,0.0,0.0,0.0,0.026623981073498726,-0.004165968857705593,0.885910153388977,0.4630734622478485
8.680017232894897,-1.0277951269158827,-2.940807743144571,-125.77893077340363,0.0458984375,0.02587890625,0.97802734375,-2.44140625,-5.92041015625,50.35400390625,0.0,0.0,0.0,0.02692624367773533,-0.003712258767336607,0.8899050354957581,0.4553353190422058
8.69988465309143,-0.9325804756169068,-3.1475210704974796,-126.79915612972843,0.04443359375,0.0234375,0.96484375,-3.90625,-5.37109375,51.3916015625,0.0,0.0,0.0,0.028198648244142532,-0.0050229174084961414,0.8938841819763184,0.4473821222782135
8.720093965530396,-0.8904050179874301,-3.096666256701915,-127.86622292338119,0.02197265625,0.02685546875,1.025390625,-1.46484375,-4.8828125,54.01611328125,0.0,0.0,0.0,0.027684159576892853,-0.004895618185400963,0.8980188369750977,0.4390578866004944
8.741477489471436,-0.8601831384574161,-3.0206842441669313,-128.96480420986438,0.04296875,0.0166015625,0.98876953125,-1.220703125,-6.34765625,55.96923828125,0.0,0.0,0.0,0.027018198743462563,-0.004582277499139309,0.9021993279457092,0.4304480254650116
8.759958505630493,-0.8775148501980293,-3.1334664621762975,-130.08525576206995,0.09228515625,0.03759765625,0.97314453125,-3.96728515625,1.8310546875,56.15234375,0.0,0.0,0.0,0.028017353266477585,-0.004596100654453039,0.9063447713851929,0.4215839207172394
8.780102968215942,-0.863309390745725,-3.3631006237233,-131.21998240964083,0.078125,0.03466796875,1.02978515625,-2.9296875,-5.06591796875,56.94580078125,0.0,0.0,0.0,0.029834479093551636,-0.005258860532194376,0.9104289412498474,0.41255471110343933
8.80013108253479,-0.829566281894305,-3.6018161621020686,-132.34686800004457,0.13037109375,0.0361328125,1.02783203125,-3.41796875,-0.18310546875,55.17578125,0.0,0.0,0.0,0.03167043253779411,-0.006076046731323004,0.9143885970115662,0.4035513997077942
8.82023549079895,-0.80519451274926,-3.7649701714666324,-133.40359388729394,0.15771484375,0.029296875,1.07568359375,4.150390625,3.90625,52.24609375,0.0,0.0,0.0,0.03294793516397476,-0.0065421187318861485,0.9180317521095276,0.39508163928985596
8.840132474899292,-0.8885713789995461,-3.787514918369552,-134.49236702212897,-0.001953125,0.03369140625,1.009765625,7.9345703125,-3.7841796875,55.908203125,0.0,0.0,0.0,0.0334710069000721,-0.005634210538119078,0.9217429757118225,0.3863133192062378
8.860321044921875,-1.0521840248947059,-3.844327578112072,-135.71661012896206,-0.1669921875,0.09423828125,1.15478515625,13.24462890625,-16.845703125,64.453125,0.0,0.0,0.0,0.03452562913298607,-0.004141318146139383,0.9258105158805847,0.37638527154922485
8.875129699707031,-1.2294080105060845,-4.029280136212732,-136.99272169235223,-0.00732421875,0.03271484375,1.05712890625,8.36181640625,-10.80322265625,62.01171875,0.0,0.0,0.0,0.03663616627454758,-0.002910163952037692,0.9299039840698242,0.3659619390964508
8.900392293930054,-1.2476067293844662,-4.386054213734702,-138.16632577667883,0.20166015625,0.052734375,0.76806640625,-1.708984375,-8.11767578125,57.373046875,0.0,0.0,0.0,0.039626345038414,-0.0034984129015356302,0.9335088729858398,0.3563407063484192
8.920303344726562,-1.1489235159258873,-4.692397162633059,-139.26590427078085,0.2255859375,0.04541015625,0.9091796875,-2.25830078125,-1.8310546875,54.50439453125,0.0,0.0,0.0,0.04186268150806427,-0.004855471197515726,0.9367921948432922,0.3473389744758606
8.93526554107666,-1.1026815344193142,-4.967963706018162,-140.3877082004421,0.12841796875,0.01513671875,1.0205078125,2.9296875,-0.8544921875,56.5185546875,0.0,0.0,0.0,0.044031817466020584,-0.00563979335129261,0.9400582313537598,0.33811241388320923
8.960484266281128,-1.1672098533247155,-5.001568236734625,-141.501384204991,0.154296875,0.09130859375,1.09521484375,2.50244140625,11.65771484375,54.26025390625,0.0,0.0,0.0,0.044546328485012054,-0.004777126479893923,0.943291425704956,0.3289286494255066
8.975594282150269,-1.1505908291353109,-4.868034623366291,-142.62880255015,0.06005859375,0.09228515625,1.0439453125,-8.23974609375,3.84521484375,59.6923828125,0.0,0.0,0.0,0.043442174792289734,-0.004102450329810381,0.9465251564979553,0.3196658492088318
9.00009298324585,-1.0112684170019792,-4.83272467979144,-143.86529901635407,-0.03857421875,-0.0087890625,0.97216796875,0.30517578125,-8.85009765625,62.744140625,0.0,0.0,0.0,0.042815033346414566,-0.00469279894605279,0.9499257206916809,0.30949321389198303
9.02076005935669,-0.7965557641922218,-4.799075752845372,-145.11070204923587,0.06396484375,-0.01123046875,0.89404296875,0.91552734375,-4.57763671875,60.302734375,0.0,0.0,0.0,0.04202305153012276,-0.005925262346863747,0.9532347321510315,0.29923656582832336
9.041136741638184,-0.5427365431244393,-5.020428950353969,-146.29050794532884,0.09619140625,0.00634765625,0.91943359375,-2.74658203125,-5.92041015625,57.31201171875,0.0,0.0,0.0,0.043287549167871475,-0.008170337416231632,0.9561740159988403,0.2894664406776428
9.060133695602417,-0.43212283013527286,-5.277737971200804,-147.4437853866855,0.15380859375,-0.00830078125,1.0849609375,4.39453125,-2.13623046875,57.06787109375,0.0,0.0,0.0,0.045250579714775085,-0.009289142675697803,0.9589364528656006,0.27983415126800537
9.079936981201172,-0.3876966917721447,-5.360742698863031,-148.60293679072836,0.0693359375,0.01953125,1.0400390625,-0.06103515625,-3.662109375,58.4716796875,0.0,0.0,0.0,0.045934047549963,-0.009399679489433765,0.9616827964782715,0.27012595534324646
9.100498676300049,-0.033888573871453366,-5.192792616040649,-149.8255269917823,0.0400390625,-0.0830078125,0.99951171875,-9.09423828125,2.25830078125,62.07275390625,0.0,0.0,0.0,0.04381558299064636,-0.011505904607474804,0.9645429253578186,0.2600092887878418
9.120042324066162,0.37467680374936657,-5.237065475353848,-151.15571999302063,-0.01123046875,-0.18115234375,1.00732421875,-6.4697265625,-7.2021484375,67.56591796875,0.0,0.0,0.0,0.043432656675577164,-0.014542038552463055,0.9674333930015564,0.24894756078720093
9.13999319076538,0.7134215297400299,-5.258560080671878,-152.52805526143794,0.138671875,-0.25244140625,1.06494140625,0.8544921875,-2.197265625,67.5048828125,0.0,0.0,0.0,0.04308392107486725,-0.01693367399275303,0.9702909588813782,0.2374708652496338
9.155077457427979,0.9896137291252769,-5.401210289034887,-153.90967958712645,0.0869140625,-0.25830078125,0.951171875,-0.06103515625,-7.9345703125,69.7021484375,0.0,0.0,0.0,0.04395219311118126,-0.019038492813706398,0.9729823470115662,0.22585631906986237
9.18026852607727,1.4118132282114468,-5.414932992851089,-155.42856339437554,0.162109375,-0.287109375,0.990234375,-2.0751953125,-2.0751953125,76.5380859375,0.0,0.0,0.0,0.043532706797122955,-0.022075068205595016,0.9758100509643555,0.21310187876224518
9.200369834899902,1.746267101299461,-5.474567801381293,-157.02087173520226,0.248046875,-0.31787109375,0.9384765625,-3.11279296875,0.732421875,77.20947265625,0.0,0.0,0.0,0.04376213997602463,-0.024427536875009537,0.9785842895507812,0.19965222477912903
9.220357179641724,2.0941238332514502,-5.53122848941478,-158.62804256766296,0.3193359375,-0.2490234375,0.94140625,-6.04248046875,9.33837890625,80.2001953125,0.0,0.0,0.0,0.04402120038866997,-0.026881227269768715,0.9811862707138062,0.18604564666748047
9.24037218093872,2.274041474716753,-5.542048362833727,-160.099880031909,0.49755859375,-0.36376953125,1.31298828125,12.26806640625,4.7607421875,72.1435546875,0.0,0.0,0.0,0.04418336600065231,-0.027873946353793144,0.9834475517272949,0.17349866032600403
9.255292177200317,2.3339721158153837,-5.452172891753291,-161.60253530969015,0.14697265625,-0.3330078125,0.88916015625,2.44140625,-3.173828125,77.2705078125,0.0,0.0,0.0,0.04368777945637703,-0.027683204039931297,0.9856633543968201,0.16060155630111694
9.275895595550537,2.7907286368421156,-5.6790124387127,-163.2611647873577,-0.06298828125,-0.32373046875,0.70263671875,-6.103515625,-26.30615234375,84.9609375,0.0,0.0,0.0,0.045456234365701675,-0.03127080574631691,0.9876669049263,0.14652666449546814
9.30034351348877,3.4027744178475534,-5.859077569575392,-165.10121774975914,0.21337890625,-0.43115234375,0.89599609375,-9.521484375,-12.6953125,91.064453125,0.0,0.0,0.0,0.04680977016687393,-0.03602460399270058,0.9896306991577148,0.13092851638793945
9.31528115272522,3.8761229624721274,-5.973182282962802,-167.00761916975807,0.35888671875,-0.451171875,1.0361328125,-3.41796875,-7.568359375,90.9423828125,0.0,0.0,0.0,0.04791710898280144,-0.03944765403866768,0.9914628863334656,0.114669568836689
9.340025424957275,4.195725869870419,-6.10534516274208,-168.93197032689582,0.31298828125,-0.486328125,1.1611328125,2.5634765625,-11.8408203125,93.68896484375,0.0,0.0,0.0,0.049445051699876785,-0.04151631146669388,0.9930725693702698,0.09817569702863693
9.36051869392395,4.548763833916391,-6.215376522063223,-170.95290035889752,0.31396484375,-0.44091796875,1.10498046875,0.732421875,-4.94384765625,101.13525390625,0.0,0.0,0.0,0.05087604746222496,-0.043775565922260284,0.9944651126861572,0.08083558082580566
9.37566876411438,4.820939188378583,-5.9191657319117565,-173.07523137931724,0.39990234375,-0.34033203125,0.89990234375,-3.90625,19.1650390625,110.4736328125,0.0,0.0,0.0,0.048955004662275314,-0.04504089057445526,0.9958301782608032,0.06242689862847328
9.395836353302002,5.299910899680782,-5.915651599583785,-175.35259403351793,0.103515625,-0.41259765625,0.7744140625,2.5634765625,-24.71923828125,113.46435546875,0.0,0.0,0.0,0.04963123798370361,-0.04822432994842529,0.9966828227043152,0.04283163696527481
9.420228242874146,5.678638058968819,-5.934332593850593,-177.77222952812997,0.44970703125,-0.47265625,1.09765625,-2.38037109375,-5.55419921875,116.88232421875,0.0,0.0,0.0,0.050728701055049896,-0.050464462488889694,0.9971950650215149,0.021953489631414413
9.440008878707886,5.936289016160979,-6.169787143787504,179.72810883847646,0.341796875,-0.38232421875,0.90771484375,-1.708984375,-17.15087890625,121.7041015625,0.0,0.0,0.0,0.05386587232351303,-0.05157802999019623,0.9972151517868042,0.00042055200901813805
9.460238218307495,6.349129982145468,-6.299038655433063,177.07839159148338,0.330078125,-0.44482421875,0.88134765625,3.35693359375,-11.474609375,128.662109375,0.0,0.0,0.0,0.05624929070472717,-0.05387816205620766,0.9967109560966492,-0.02237391285598278
9.481058359146118,6.49051873994614,-6.2341475894497105,174.3291858090399,0.46484375,-0.47900390625,1.0546875,8.48388671875,-4.638671875,134.21630859375,0.0,0.0,0.0,0.05701889470219612,-0.053771696984767914,0.9958510994911194,-0.04624009132385254
9.500065088272095,6.722925317965932,-6.025932687696457,171.4235686946031,0.5419921875,-0.40966796875,1.07568359375,10.19287109375,-6.2255859375,141.357421875,0.0,0.0,0.0,0.05670291557908058,-0.05446648597717285,0.9943391680717468,-0.07146850973367691
9.520327091217041,6.944816392871667,-6.224838041610983,168.4083953458793,0.5732421875,-0.42236328125,1.03271484375,3.60107421875,-18.4326171875,147.39990234375,0.0,0.0,0.0,0.06002585217356682,-0.05469650775194168,0.9919288158416748,-0.09737758338451385
9.536922931671143,7.093238964856983,-6.310687116175697,165.41927233864996,0.54150390625,-0.35888671875,0.916015625,17.333984375,-8.85009765625,149.84130859375,0.0,0.0,0.0,0.062331829220056534,-0.05429605022072792,0.9889472723007202,-0.12308522313833237
9.561304569244385,7.416467848930904,-6.1915869731840685,162.22741565647627,0.36767578125,-0.26513671875,0.74609375,1.953125,-8.60595703125,164.306640625,0.0,0.0,0.0,0.06322169303894043,-0.05548117682337761,0.9850290417671204,-0.15047471225261688
9.580493211746216,7.908641889011914,-5.866755982862956,158.82998394066357,0.4609375,-0.33447265625,0.7919921875,-7.32421875,5.2490234375,170.7763671875,0.0,0.0,0.0,0.06283532083034515,-0.058320727199316025,0.9800066947937012,-0.17954766750335693
9.600011348724365,8.21544886388701,-5.843859908104604,155.33531765182653,0.56787109375,-0.49658203125,1.23486328125,9.033203125,-27.83203125,168.9453125,0.0,0.0,0.0,0.06495041400194168,-0.05902862921357155,0.9739286303520203,-0.20918907225131989
9.616217613220215,8.467130235744579,-5.652096797627795,151.78644698173628,0.71875,-0.43896484375,1.1044921875,17.39501953125,3.23486328125,180.11474609375,0.0,0.0,0.0,0.0656573623418808,-0.05952507629990578,0.966907799243927,-0.23923912644386292
9.640069484710693,8.647267083593556,-5.666628025086998,148.24610038773022,0.470703125,-0.36572265625,0.84619140625,5.9814453125,-22.15576171875,180.23681640625,0.0,0.0,0.0,0.0680089145898819,-0.058941036462783813,0.9589611887931824,-0.26887595653533936
9.662322521209717,8.94814545426908,-5.441006813120789,144.47474313561597,0.544921875,-0.33349609375,0.71728515625,3.96728515625,10.7421875,187.92724609375,0.0,0.0,0.0,0.06883488595485687,-0.05976959690451622,0.9494860768318176,-0.30027568340301514
9.679980754852295,9.058020146126136,-4.996967677441798,140.76918792596564,0.77197265625,-0.54052734375,1.2353515625,20.751953125,-6.8359375,176.94091796875,0.0,0.0,0.0,0.06741825491189957,-0.05972197279334068,0.939288854598999,-0.33109599351882935
9.700560331344604,8.899691238523364,-4.685364629108885,137.0852297744709,0.66796875,-0.435546875,1.07861328125,17.2119140625,-11.23046875,184.08203125,0.0,0.0,0.0,0.06628641486167908,-0.057240746915340424,0.92826908826828,-0.3614499568939209
9.72144865989685,8.800260759680903,-4.24416984033238,133.3110311636619,0.544921875,-0.28955078125,0.8818359375,21.05712890625,7.9345703125,192.87109375,0.0,0.0,0.0,0.06427808105945587,-0.05576273426413536,0.9159308671951294,-0.39221125841140747
9.740112781524658,8.805949453485876,-4.42539140759892,129.41946258215546,0.396484375,-0.34765625,0.6806640625,21.484375,-37.17041015625,189.453125,0.0,0.0,0.0,0.06757806986570358,-0.05291558802127838,0.9020808339118958,-0.42294609546661377
9.76026201248169,8.746469604872468,-3.8756119789448458,125.8369737209704,1.06396484375,-0.22314453125,0.99267578125,24.35302734375,28.62548828125,173.095703125,0.0,0.0,0.0,0.06471456587314606,-0.05250445008277893,0.8884336352348328,-0.4513767659664154
9.780099153518677,8.267187546849856,-2.962147601989218,122.71974368566828,0.7412109375,-0.2421875,1.02880859375,40.22216796875,5.55419921875,162.841796875,0.0,0.0,0.0,0.05716327950358391,-0.0508853904902935,0.8759649991989136,-0.47626498341560364
9.800257444381714,8.283473279152105,-2.7985001114571206,119.72772467823083,0.61767578125,-0.1328125,0.71728515625,16.7236328125,-41.9921875,145.6298828125,0.0,0.0,0.0,0.05731302872300148,-0.0502154640853405,0.8632046580314636,-0.4990706145763397
