time,imu.ypr.x,imu.ypr.y,imu.ypr.z,imu.linear_acceleration.x,imu.linear_acceleration.y,imu.linear_acceleration.z,imu.angular_velocity.x,imu.angular_velocity.y,imu.angular_velocity.z,imu.compass.x,imu.compass.y,imu.compass.z,imu.orientation.x,imu.orientation.y,imu.orientation.z,imu.orientation.w
0.978482723236084,-0.9772337978112172,2.3058274675667,132.95554713811944,-0.04052734375,0.017578125,1.005859375,0.3662109375,-0.91552734375,-0.18310546875,0.0,0.0,0.0,0.021851005032658577,0.00021234346786513925,-0.9167549014091492,0.39885225892066956
0.9981958866119385,-1.027197805528624,2.2197737007702973,132.95531491168765,-0.0390625,0.01806640625,1.00390625,0.0,-0.79345703125,-0.30517578125,0.0,0.0,0.0,0.021336568519473076,-0.0004870991106145084,-0.9167649745941162,0.398856520652771
1.0245835781097412,-1.0299570952316035,2.2618572710110962,132.95890759119106,-0.0400390625,0.01806640625,1.00390625,-0.30517578125,-0.8544921875,-0.1220703125,0.0,0.0,0.0,0.02168278954923153,-0.0003632586158346385,-0.916772186756134,0.3988213837146759
1.0383422374725342,-0.9974933128282386,2.3101206683468756,132.96217242161435,-0.04052734375,0.01708984375,1.00390625,-0.244140625,-0.48828125,0.0,0.0,0.0,0.0,0.021955866366624832,6.394862430170178e-05,-0.9167774319648743,0.3987947404384613
1.058312177658081,-1.0875056011354862,2.274329409878951,132.96117521399552,-0.03955078125,0.0185546875,1.0048828125,0.06103515625,-0.244140625,0.0,0.0,0.0,0.0,0.021982824429869652,-0.0007806564681231976,-0.9167782068252563,0.398790568113327
1.0783452987670898,-0.8879692017746743,2.217104377465292,132.97251332801775,-0.0390625,0.0146484375,1.00341796875,-0.06103515625,-0.79345703125,-0.18310546875,0.0,0.0,0.0,0.020830679684877396,0.0006143457139842212,-0.9168251156806946,0.39874500036239624
1.1032540798187256,-0.9831300653339364,2.3185002432414237,132.97109264867038,-0.04052734375,0.01708984375,1.00341796875,-0.244140625,-1.03759765625,-0.244140625,0.0,0.0,0.0,0.021972928196191788,0.00020633266831282526,-0.9168072938919067,0.39872482419013977
1.1286232471466064,-1.0514398544402919,2.2282045020836203,132.97288215823292,-0.0390625,0.01806640625,1.00341796875,0.30517578125,-0.79345703125,-0.30517578125,0.0,0.0,0.0,0.021488282829523087,-0.0006549673853442073,-0.916824996471405,0.39871034026145935
1.1434907913208008,-0.9999855848233528,2.3383043767398757,132.9763928754663,-0.041015625,0.017578125,1.0029296875,-0.30517578125,-1.15966796875,-0.1220703125,0.0,0.0,0.0,0.022190002724528313,0.00013941836368758231,-0.916823148727417,0.3986765444278717
1.1614282131195068,-0.9971836064380608,2.319863292867664,132.97779989443532,-0.04052734375,0.01806640625,1.00341796875,-0.18310546875,-0.48828125,-0.06103515625,0.0,0.0,0.0,0.022032735869288445,9.735637286212295e-05,-0.9168304800987244,0.39866846799850464
1.1735763549804688,-0.9629771653009908,2.2574902188105193,132.9819799702074,-0.03955078125,0.01708984375,1.00439453125,0.244140625,-0.91552734375,-0.1220703125,0.0,0.0,0.0,0.02141476795077324,0.00015308370348066092,-0.9168530702590942,0.3986501097679138
1.1982195377349854,-0.9495719585594886,2.2636751685473775,132.98613272522275,-0.03955078125,0.0166015625,1.00634765625,0.244140625,-0.732421875,-0.18310546875,0.0,0.0,0.0,0.02141762152314186,0.0002810933510772884,-0.9168667197227478,0.3986184000968933
1.2182655334472656,-1.0068346637352887,2.2972698808669083,132.98665181959967,-0.04052734375,0.017578125,1.00439453125,-0.30517578125,-0.42724609375,-0.1220703125,0.0,0.0,0.0,0.021885564550757408,-6.021919762133621e-05,-0.916864275932312,0.39859896898269653
1.2387473583221436,-1.012624102830521,2.176479692942525,132.98924729148428,-0.03857421875,0.017578125,1.00341796875,-0.42724609375,-0.54931640625,-0.1220703125,0.0,0.0,0.0,0.02093936875462532,-0.0005275183939374983,-0.9168884754180908,0.3985937833786011
1.2558212280273438,-0.9309924566348788,2.1547441100128406,132.99566766930408,-0.0380859375,0.01611328125,1.00390625,0.30517578125,-0.48828125,0.0,0.0,0.0,0.0,0.02048153057694435,4.883917063125409e-05,-0.9169135689735413,0.398560106754303
1.2786638736724854,-0.9363486056046382,2.2575877624496035,132.99785332983848,-0.03955078125,0.0166015625,1.005859375,0.18310546875,-0.8544921875,0.0,0.0,0.0,0.0,0.021322958171367645,0.0003635241009760648,-0.9169082641601562,0.39852795004844666
1.2931623458862305,-0.9878725644954525,2.325638644697733,132.9983314430804,-0.04052734375,0.01708984375,1.00439453125,-0.244140625,-1.0986328125,-0.244140625,0.0,0.0,0.0,0.02204657718539238,0.00018800821271725,-0.9169011116027832,0.39850500226020813
1.3188083171844482,-0.9201935006702655,2.2430825750866124,133.0035633679846,-0.03955078125,0.01611328125,1.00390625,-0.244140625,-0.54931640625,-0.1220703125,0.0,0.0,0.0,0.021150751039385796,0.00044125260319560766,-0.9169299006462097,0.3984871804714203
1.3386096954345703,-0.9548362201405702,2.265657417510562,133.0051206511154,-0.0400390625,0.017578125,1.00341796875,-0.06103515625,0.0,-0.1220703125,0.0,0.0,0.0,0.021451832726597786,0.00024231952556874603,-0.9169325232505798,0.39846521615982056
1.3532609939575195,-0.9033182376652796,2.3101906777858683,133.01025695337123,-0.04052734375,0.01611328125,1.00244140625,0.06103515625,-0.6103515625,-0.1220703125,0.0,0.0,0.0,0.02162901684641838,0.0008085541194304824,-0.9169443249702454,0.39842793345451355
1.3793740272521973,-0.9386865580131923,2.22630613638118,133.0118825383937,-0.03955078125,0.0166015625,1.0048828125,-0.1220703125,-1.15966796875,-0.244140625,0.0,0.0,0.0,0.021080855280160904,0.00023336375306826085,-0.9169610142707825,0.39841940999031067
1.393909215927124,-1.0844145136492325,2.357091025495407,133.00856306645707,-0.041015625,0.0185546875,1.00244140625,-0.1220703125,-0.732421875,-0.1220703125,0.0,0.0,0.0,0.022633882239460945,-0.0004770183004438877,-0.9169324636459351,0.3983999192714691
1.418105125427246,-1.0806619650305451,2.2994107182848844,133.00992910429107,-0.04052734375,0.0185546875,1.001953125,0.0,-0.18310546875,-0.06103515625,0.0,0.0,0.0,0.022159362211823463,-0.0006479710573330522,-0.9169446229934692,0.39839816093444824
1.4333992004394531,-0.9947488574423629,2.243318643499801,133.01528397260037,-0.03955078125,0.017578125,1.00439453125,-0.54931640625,-0.42724609375,0.06103515625,0.0,0.0,0.0,0.02141188085079193,-0.00015668649575673044,-0.9169707298278809,0.3983795642852783
1.4594817161560059,-0.9672825323556259,2.2761628887842766,133.0188903124821,-0.0400390625,0.0166015625,1.0048828125,0.0,-1.03759765625,-0.1220703125,0.0,0.0,0.0,0.021579181775450706,0.0001766939676599577,-0.9169790744781494,0.39835137128829956
1.482917308807373,-0.9956651700082023,2.242922919414763,133.02005144464104,-0.03955078125,0.0166015625,1.00244140625,0.244140625,-0.6103515625,-0.18310546875,0.0,0.0,0.0,0.021411893889307976,-0.00016628630692139268,-0.9169872999191284,0.39834126830101013
1.4995241165161133,-0.9758765111570887,2.2395861585618,133.02223710517544,-0.03955078125,0.01708984375,1.005859375,-0.06103515625,-0.6103515625,-0.06103515625,0.0,0.0,0.0,0.02131640538573265,-1.9947769033024088e-05,-0.9169953465461731,0.39832794666290283
1.5182013511657715,-0.9065620439125068,2.2000784234117425,133.02882140753533,-0.0390625,0.01611328125,1.00439453125,-0.42724609375,-0.9765625,-0.18310546875,0.0,0.0,0.0,0.020759370177984238,0.00039609961095266044,-0.9170231819152832,0.39829325675964355
1.53749418258667,-0.9681279817088265,2.1992184599065556,133.0298732566675,-0.03857421875,0.017578125,1.00341796875,-0.1220703125,-0.30517578125,-0.06103515625,0.0,0.0,0.0,0.02096647582948208,-9.976674482459202e-05,-0.9170269966125488,0.3982737064361572
1.5649681091308594,-1.0724062940364096,2.182383110819532,133.02957272834402,-0.0380859375,0.01806640625,1.00439453125,0.06103515625,-0.30517578125,-0.1220703125,0.0,0.0,0.0,0.02119419351220131,-0.0009927644859999418,-0.9170275330543518,0.3982592821121216
1.578216791152954,-0.986836616897432,2.2346447301407077,133.0354330306519,-0.03955078125,0.01708984375,1.00439453125,-0.18310546875,-0.9765625,-0.1220703125,0.0,0.0,0.0,0.02131495252251625,-0.00012729938316624612,-0.9170418381690979,0.398220956325531
1.601069688796997,-1.0068549408593872,2.3135733289723173,133.03771431383467,-0.04052734375,0.01806640625,1.0029296875,-0.1220703125,-1.03759765625,-0.30517578125,0.0,0.0,0.0,0.02201605960726738,-1.3434552784019616e-05,-0.9170396327972412,0.398188054561615
1.6196343898773193,-1.034361926916027,2.3420078333739034,133.04005023853082,-0.041015625,0.01806640625,1.00537109375,-0.1220703125,-0.48828125,-0.244140625,0.0,0.0,0.0,0.02233915589749813,-0.00013513254816643894,-0.9170439839363098,0.39816001057624817
1.6340768337249756,-1.0012219557848308,2.285715121781951,133.04414835203283,-0.0400390625,0.017578125,1.0029296875,-0.18310546875,0.0,-0.06103515625,0.0,0.0,0.0,0.021773578599095345,-6.64617182337679e-05,-0.9170655608177185,0.398141473531723
1.6581463813781738,-1.049651945703335,2.373918477176203,133.04476306905815,-0.0419921875,0.0185546875,1.0048828125,-0.18310546875,-0.79345703125,0.0,0.0,0.0,0.0,0.02264760620892048,-0.00014745458611287177,-0.9170560240745544,0.3981146514415741
1.6781065464019775,-0.9477929077241118,2.3121417640109647,133.0513746921747,-0.04052734375,0.01611328125,1.0048828125,0.06103515625,-0.91552734375,-0.06103515625,0.0,0.0,0.0,0.021799426525831223,0.0004516406334005296,-0.9170871376991272,0.398090124130249
1.696925163269043,-0.9456790708976988,2.21479748107312,133.05373793762755,-0.0390625,0.0166015625,1.0048828125,0.1220703125,-0.732421875,-0.1220703125,0.0,0.0,0.0,0.021013135090470314,0.0001296912378165871,-0.9171079397201538,0.39808470010757446
1.7180442810058594,-1.0618914312525864,2.371188749385725,133.04955786185548,-0.04150390625,0.0185546875,1.00244140625,-0.3662109375,-0.54931640625,-0.18310546875,0.0,0.0,0.0,0.022668272256851196,-0.0002558448468334973,-0.917073130607605,0.39807432889938354
1.7398638725280762,-0.9973231984292229,2.347161637989501,133.05459854146295,-0.041015625,0.017578125,1.00537109375,-0.48828125,-0.48828125,-0.06103515625,0.0,0.0,0.0,0.02225172147154808,0.00017637254495639354,-0.917093813419342,0.398049920797348
1.7610971927642822,-0.9829008271099179,2.3030753282180076,133.05881959837004,-0.04052734375,0.01708984375,1.00439453125,0.30517578125,-0.54931640625,-0.1220703125,0.0,0.0,0.0,0.021848849952220917,0.00013772858073934913,-0.9171143174171448,0.39802512526512146
1.773345708847046,-0.9875351104617716,2.3056174392497217,133.06242593825178,-0.0400390625,0.017578125,1.0048828125,0.244140625,-0.79345703125,-0.244140625,0.0,0.0,0.0,0.02188529260456562,0.00010878580360440537,-0.917126476764679,0.3979949951171875
1.79817795753479,-1.004527767343117,2.1979006602835662,133.06360073078903,-0.03857421875,0.017578125,1.0048828125,-0.244140625,-0.91552734375,-0.1220703125,0.0,0.0,0.0,0.021082323044538498,-0.0004018483159597963,-0.9171442985534668,0.39799731969833374
1.8186421394348145,-1.0028689918701559,2.1854176358017217,133.06582737245844,-0.03857421875,0.01806640625,1.00244140625,-0.244140625,-0.48828125,-0.1220703125,0.0,0.0,0.0,0.020976658910512924,-0.00043236796045675874,-0.917153537273407,0.39798155426979065
1.8552882671356201,-0.9830160865521619,2.340471894584297,133.07377771265234,-0.041015625,0.01708984375,1.00537109375,0.1220703125,-0.91552734375,-0.1220703125,0.0,0.0,0.0,0.022148536518216133,0.0002639099257066846,-0.9171613454818726,0.39790013432502747
1.8608276844024658,-1.0119660567926725,2.2914258002583163,133.07304005222198,-0.04052734375,0.017578125,1.0048828125,0.244140625,-0.732421875,-0.06103515625,0.0,0.0,0.0,0.02185656502842903,-0.0001380978210363537,-0.917165219783783,0.39790746569633484
1.878114938735962,-1.0006044639951794,2.246531180287234,133.077138165724,-0.03955078125,0.01708984375,1.00537109375,-0.244140625,-1.220703125,-0.18310546875,0.0,0.0,0.0,0.021457834169268608,-0.0002039480459643528,-0.9171851873397827,0.39788302779197693
1.8988268375396729,-0.9797750550692851,2.23776292494023,133.0810586943076,-0.03955078125,0.01708984375,1.0029296875,-0.1220703125,-0.79345703125,-0.244140625,0.0,0.0,0.0,0.02131533809006214,-6.842969014542177e-05,-0.917199969291687,0.3978566825389862
1.9181125164031982,-0.9770673119501981,2.1792531766323737,133.08209688306144,-0.0390625,0.017578125,1.00537109375,0.06103515625,-0.1220703125,0.1220703125,0.0,0.0,0.0,0.020837681367993355,-0.00025024430942721665,-0.9172108769416809,0.39785686135292053
1.9388275146484375,-0.9406903647609449,2.2295491955764666,133.08648186450858,-0.0390625,0.0166015625,1.0029296875,-0.244140625,-0.79345703125,0.0,0.0,0.0,0.0,0.021113911643624306,0.00021486780315171927,-0.9172198176383972,0.3978216350078583
1.958268165588379,-0.9472805368146552,2.316209995435354,133.0902384685521,-0.04052734375,0.0166015625,1.00439453125,-0.06103515625,-1.03759765625,-0.18310546875,0.0,0.0,0.0,0.021830357611179352,0.0004624815774150193,-0.9172216057777405,0.39777863025665283
1.9781062602996826,-0.9764607057745364,2.252086898846805,133.09282028005833,-0.03955078125,0.01708984375,1.00390625,0.18310546875,-0.8544921875,-0.18310546875,0.0,0.0,0.0,0.021418463438749313,5.671779035765212e-06,-0.9172389507293701,0.3977612853050232
1.998138189315796,-0.9921888171640775,2.286562278682444,133.09538843118628,-0.0400390625,0.017578125,1.0048828125,-0.1220703125,-0.91552734375,-0.18310546875,0.0,0.0,0.0,0.021748971194028854,-9.480886546953116e-07,-0.917243480682373,0.39773303270339966
2.0181915760040283,-0.9989334155260534,2.4016187362420127,133.0975194502073,-0.04150390625,0.01708984375,1.00439453125,-0.3662109375,-0.79345703125,-0.244140625,0.0,0.0,0.0,0.022693201899528503,0.00034430439700372517,-0.9172354936599731,0.3976983428001404
2.0382888317108154,-1.0191198261746146,2.342967688395702,133.1010301674407,-0.04150390625,0.017578125,1.0048828125,-0.18310546875,-0.244140625,0.0,0.0,0.0,0.0,0.02229386754333973,-2.1680181816918775e-05,-0.9172555804252625,0.3976747691631317
2.058199405670166,-0.9852268266874246,2.2518339684041027,133.1067675263435,-0.03955078125,0.017578125,1.00244140625,0.30517578125,-0.48828125,-0.18310546875,0.0,0.0,0.0,0.02144685946404934,-6.798649701522663e-05,-0.9172874093055725,0.39764800667762756
2.078228712081909,-1.0025866062366582,2.363991010661001,133.1094586208765,-0.04150390625,0.017578125,1.00341796875,0.06103515625,-1.0986328125,-0.244140625,0.0,0.0,0.0,0.022404761984944344,0.000182030547875911,-0.917281985282898,0.3976074457168579
2.0986392498016357,-0.9473790409490914,2.34315722614517,133.1146768854024,-0.041015625,0.0166015625,1.005859375,-0.42724609375,-1.03759765625,-0.244140625,0.0,0.0,0.0,0.02204647660255432,0.0005506054731085896,-0.9173027873039246,0.3975794017314911
2.1132869720458984,-0.967671212808082,2.3908244760324537,133.1173406591787,-0.04150390625,0.01708984375,1.00244140625,0.0,-0.18310546875,-0.18310546875,0.0,0.0,0.0,0.022498412057757378,0.0005531570641323924,-0.917305588722229,0.3975474238395691
2.138209104537964,-0.9998122687731636,2.2818946981583865,133.11936239517303,-0.0400390625,0.017578125,1.00439453125,-0.1220703125,-0.1220703125,0.0,0.0,0.0,0.0,0.02173805981874466,-8.27331023174338e-05,-0.9173272252082825,0.39754024147987366
2.1581544876098633,-1.0240475942173672,2.22889413774638,133.1215753764641,-0.03955078125,0.01806640625,1.00244140625,-0.1220703125,-0.79345703125,-0.06103515625,0.0,0.0,0.0,0.0213979110121727,-0.0004611749609466642,-0.9173415899276733,0.39752525091171265
2.182588815689087,-0.9217424595079775,2.3199653188183915,133.12948473552296,-0.0400390625,0.0166015625,1.00439453125,0.06103515625,-0.6103515625,-0.06103515625,0.0,0.0,0.0,0.0217719916254282,0.0006724850973114371,-0.9173571467399597,0.3974688947200775
2.193399429321289,-0.9773200289494886,2.2021238516247497,133.12824164109404,-0.0390625,0.01708984375,1.00244140625,0.06103515625,-0.67138671875,-0.1220703125,0.0,0.0,0.0,0.021021520718932152,-0.00018126705253962427,-0.9173682332038879,0.39748436212539673
2.21341872215271,-0.9747931791217012,2.3159801168811005,133.1312332639505,-0.04052734375,0.01708984375,1.00390625,-0.18310546875,-0.30517578125,-0.06103515625,0.0,0.0,0.0,0.021924104541540146,0.00023362103092949837,-0.9173640012741089,0.39744532108306885
2.2381622791290283,-1.0645562722459492,2.3009165615534606,133.13142450924727,-0.04052734375,0.01904296875,1.00439453125,-0.42724609375,-0.54931640625,-0.06103515625,0.0,0.0,0.0,0.022114858031272888,-0.0005373017047531903,-0.9173664450645447,0.3974286913871765
2.259343147277832,-0.9717656977720931,2.191380817833966,133.13825469841726,-0.03857421875,0.01708984375,1.005859375,0.244140625,-0.732421875,-0.06103515625,0.0,0.0,0.0,0.020916249603033066,-0.00017592214862816036,-0.9174042344093323,0.39740657806396484
2.2785158157348633,-0.9549864843023105,2.2590545455738638,133.14199764208243,-0.03955078125,0.01708984375,1.005859375,0.244140625,-0.91552734375,-0.18310546875,0.0,0.0,0.0,0.02139977179467678,0.00019257991516496986,-0.9174087047576904,0.3973706364631653
2.2942569255828857,-0.9677817764952715,2.2600735244206653,133.1434456421865,-0.03955078125,0.01708984375,1.0029296875,-0.30517578125,-0.732421875,-0.244140625,0.0,0.0,0.0,0.021452300250530243,9.340759424958378e-05,-0.9174135327339172,0.3973565697669983
2.3186721801757812,-0.9507576367107206,2.3017383186879776,133.14770768022856,-0.04052734375,0.0166015625,1.00439453125,-0.42724609375,-0.3662109375,-0.18310546875,0.0,0.0,0.0,0.02172680012881756,0.00037347691250033677,-0.917422890663147,0.3973197937011719
2.338214874267578,-0.9392930574671484,2.27550377552937,133.15265273718765,-0.03955078125,0.0166015625,1.00537109375,0.18310546875,-0.244140625,-0.1220703125,0.0,0.0,0.0,0.02147706039249897,0.00037330659688450396,-0.9174433946609497,0.39728599786758423
2.360846757888794,-0.8845912997041327,2.2263836163395774,133.15650496387954,-0.0390625,0.015625,1.00634765625,0.18310546875,-0.79345703125,0.0,0.0,0.0,0.0,0.020894212648272514,0.0006401339778676629,-0.917462944984436,0.3972717523574829
2.3784892559051514,-0.9091894255871403,2.218963896466828,133.15830813382044,-0.0390625,0.0166015625,1.00244140625,-0.42724609375,-1.0986328125,-0.18310546875,0.0,0.0,0.0,0.020920097827911377,0.0004171227919869125,-0.9174702763557434,0.3972538709640503
2.398183584213257,-0.9955310208240351,2.209940362799595,133.15803492625363,-0.03857421875,0.01708984375,1.00341796875,-0.3662109375,-0.48828125,-0.18310546875,0.0,0.0,0.0,0.02114717848598957,-0.0003054217086173594,-0.9174705147743225,0.3972413241863251
2.4184563159942627,-1.0102819882754412,2.1944742531977472,133.16139537932528,-0.03857421875,0.01806640625,1.005859375,-0.06103515625,-0.244140625,-0.06103515625,0.0,0.0,0.0,0.021074488759040833,-0.0004777982539962977,-0.9174839854240417,0.3972138464450836
2.4337217807769775,-1.0967833459058909,2.245725431408584,133.16196911521556,-0.03955078125,0.01953125,1.00439453125,-0.1220703125,-0.54931640625,-0.244140625,0.0,0.0,0.0,0.021784599870443344,-0.0009926862549036741,-0.9174790978431702,0.39718589186668396
2.458404302597046,-0.9106727505757967,2.259431059751861,133.17209145556552,-0.03955078125,0.01611328125,1.00390625,-0.1220703125,-0.79345703125,-0.06103515625,0.0,0.0,0.0,0.021249262616038322,0.0005430781748145819,-0.9175127744674683,0.3971378803253174
2.4783854484558105,-0.8854934716439562,2.292315645841122,133.17658572003938,-0.0400390625,0.015625,1.0029296875,0.30517578125,-0.79345703125,-0.244140625,0.0,0.0,0.0,0.021425297483801842,0.0008578905835747719,-0.9175238609313965,0.3971021771430969
2.4974119663238525,-0.9824159904005528,2.2943969325472717,133.17337553112947,-0.04052734375,0.01708984375,1.001953125,-0.1220703125,-0.30517578125,0.0,0.0,0.0,0.0,0.021777819842100143,8.966836321633309e-05,-0.9175128936767578,0.39710932970046997
2.5182223320007324,-0.9592930252957093,2.2811713384365997,133.17688624836288,-0.04052734375,0.01708984375,1.00390625,-0.42724609375,-0.54931640625,-0.06103515625,0.0,0.0,0.0,0.02159181609749794,0.00022828167129773647,-0.9175267815589905,0.3970875144004822
2.539438486099243,-1.0999152010837532,2.36480209562494,133.17404488966812,-0.04150390625,0.01953125,1.00146484375,-0.30517578125,-0.3662109375,0.0,0.0,0.0,0.0,0.022748613730072975,-0.0006070706294849515,-0.9175057411193848,0.39707106351852417
2.5585784912109375,-0.9711559966669636,2.4014806383547316,133.18363447526283,-0.0419921875,0.01708984375,1.0029296875,0.244140625,-0.48828125,-0.18310546875,0.0,0.0,0.0,0.02259611338376999,0.0005491850315593183,-0.9175339937210083,0.39701440930366516
2.5782432556152344,-0.9737508282213337,2.192395100925713,133.1857791546622,-0.03857421875,0.01708984375,1.00537109375,-0.1220703125,-1.0986328125,-0.30517578125,0.0,0.0,0.0,0.020931173115968704,-0.00019697588868439198,-0.9175688624382019,0.39702561497688293
2.598881721496582,-1.0004645518389,2.2713480323062405,133.18718617363123,-0.03955078125,0.017578125,1.00341796875,-0.3662109375,-1.03759765625,-0.30517578125,0.0,0.0,0.0,0.02165582962334156,-0.00013738915731664747,-0.9175636768341064,0.3969986140727997
2.6183676719665527,-1.036438197702005,2.37408197482946,133.18796481519664,-0.04150390625,0.01806640625,1.0029296875,-0.18310546875,-0.3662109375,-0.1220703125,0.0,0.0,0.0,0.022602936252951622,-6.938550359336659e-05,-0.9175528883934021,0.3969709277153015
2.6381678581237793,-1.0582104928984786,2.314145784202129,133.19043734367617,-0.04052734375,0.01904296875,1.00439453125,0.06103515625,-0.18310546875,0.0,0.0,0.0,0.0,0.02219850942492485,-0.00045201482134871185,-0.9175692796707153,0.3969554007053375
2.6581385135650635,-0.93964972140787,2.247059666174264,133.19797787251986,-0.03955078125,0.0166015625,1.005859375,-0.1220703125,-1.03759765625,-0.1220703125,0.0,0.0,0.0,0.021250704303383827,0.00026335788425058126,-0.9176041483879089,0.3969268798828125
2.678450584411621,-0.9584829008271223,2.2324362311612664,133.19968541981237,-0.0390625,0.01611328125,1.0048828125,-0.1220703125,-1.15966796875,-0.30517578125,0.0,0.0,0.0,0.021198857575654984,6.153988215373829e-05,-0.9176120162010193,0.39691162109375
2.6984777450561523,-0.9861514635463151,2.4062457625178735,133.2010651180247,-0.0419921875,0.01708984375,1.00146484375,0.1220703125,-0.54931640625,-0.18310546875,0.0,0.0,0.0,0.02268628031015396,0.0004421924822963774,-0.917593777179718,0.396871417760849
2.7139275074005127,-1.0054678788493459,2.2186798032860375,133.2024311558587,-0.0390625,0.017578125,1.00537109375,-0.244140625,-0.1220703125,-0.06103515625,0.0,0.0,0.0,0.02125144749879837,-0.00036289452691562474,-0.9176232218742371,0.3968828022480011
2.7336275577545166,-1.0091206426731274,2.2982299493321183,133.20547742022853,-0.0400390625,0.017578125,1.00341796875,-0.42724609375,-0.6103515625,-0.1220703125,0.0,0.0,0.0,0.02190101519227028,-0.00011699190508807078,-0.9176236391067505,0.3968467116355896
2.758246898651123,-0.931581240285675,2.2885724887325436,133.2118158357783,-0.04052734375,0.0166015625,1.00390625,0.06103515625,-0.79345703125,-0.1220703125,0.0,0.0,0.0,0.021555183455348015,0.00046926335198804736,-0.9176467061042786,0.39681199193000793
2.778186321258545,-0.9162481059292311,2.2327884127903452,133.21374194912426,-0.0390625,0.01611328125,1.0048828125,0.18310546875,-0.79345703125,-0.06103515625,0.0,0.0,0.0,0.02105543576180935,0.00039838056545704603,-0.9176605939865112,0.3968068063259125
2.798409938812256,-1.0170178354575432,2.2531457916115682,133.21116013761798,-0.03955078125,0.0185546875,1.0029296875,-0.1220703125,-0.6103515625,-0.18310546875,0.0,0.0,0.0,0.02156738005578518,-0.00033756159245967865,-0.9176490306854248,0.39680594205856323
2.818175792694092,-0.9215575107918582,2.3041903566000124,133.2171024021959,-0.04052734375,0.01611328125,1.00390625,-0.54931640625,-0.6103515625,0.0,0.0,0.0,0.0,0.021645549684762955,0.0006026569753885269,-0.9176629185676575,0.39676952362060547
2.840654134750366,-0.948517014497839,2.3654507501526796,133.2195202891621,-0.04150390625,0.0166015625,1.00341796875,0.1220703125,-0.54931640625,-0.06103515625,0.0,0.0,0.0,0.02222941443324089,0.0005985663738101721,-0.9176631569862366,0.39673665165901184
2.85888409614563,-1.031043308753047,2.324920407617824,133.21977983635054,-0.04052734375,0.01806640625,1.0048828125,0.3662109375,-0.732421875,-0.18310546875,0.0,0.0,0.0,0.022190609946846962,-0.00020280445460230112,-0.9176695942878723,0.3967241644859314
2.880521774291992,-1.0662559221322245,2.1874173871246545,133.22118685531956,-0.03857421875,0.0185546875,1.00390625,-0.244140625,-1.0986328125,-0.18310546875,0.0,0.0,0.0,0.021211521700024605,-0.0009615047601982951,-0.9176915884017944,0.39672574400901794
2.8983631134033203,-1.044058874546741,2.2494677347435164,133.2242331196894,-0.03955078125,0.0185546875,1.00146484375,-0.30517578125,-0.6103515625,-0.1220703125,0.0,0.0,0.0,0.021631503477692604,-0.0005693180719390512,-0.917694628238678,0.3966967463493347
2.918468475341797,-1.0513038909871262,2.3092681753610935,133.22604995000862,-0.04052734375,0.0185546875,1.00390625,-0.06103515625,-0.30517578125,-0.1220703125,0.0,0.0,0.0,0.022135404869914055,-0.00042050049523822963,-0.9176932573318481,0.3966723084449768
2.9382781982421875,-0.9798769742983063,2.245796294621223,133.2294240634586,-0.0390625,0.01708984375,1.00146484375,-0.18310546875,-0.42724609375,-0.06103515625,0.0,0.0,0.0,0.02137991040945053,-6.901317101437598e-05,-0.9177132844924927,0.3966677188873291
2.95827317237854,-0.9806876323754222,2.18266549645303,133.2319512334515,-0.03857421875,0.0166015625,1.00341796875,-0.1220703125,-0.91552734375,-0.1220703125,0.0,0.0,0.0,0.02087719365954399,-0.00029466705746017396,-0.917729914188385,0.3966558873653412
2.974750518798828,-0.9308885096934477,2.2805303678716764,133.23624059225028,-0.04052734375,0.015625,1.00390625,0.30517578125,-0.8544921875,-0.18310546875,0.0,0.0,0.0,0.021488487720489502,0.00044236070243641734,-0.917732298374176,0.3966176509857178
2.9938206672668457,-0.9496434621023623,2.3094342343352894,133.23801644143447,-0.041015625,0.0166015625,1.00390625,0.1220703125,-0.54931640625,-0.06103515625,0.0,0.0,0.0,0.021784856915473938,0.00039193409611471,-0.917734682559967,0.39659586548805237
3.018239736557007,-0.998625523404874,2.3091040373776015,133.2389043660266,-0.04052734375,0.01806640625,1.00341796875,-0.54931640625,-0.3662109375,-0.18310546875,0.0,0.0,0.0,0.02195173315703869,-1.662652607592463e-06,-0.9177379608154297,0.3965795934200287
3.0390536785125732,-0.9918327935535906,2.3362463553655863,133.24231946061158,-0.041015625,0.01806640625,1.00439453125,-0.244140625,-0.48828125,-0.06103515625,0.0,0.0,0.0,0.022145573049783707,0.00014608986384700984,-0.9177461266517639,0.39654970169067383
3.058537006378174,-1.087297173644095,2.3498461157767276,133.24207357380146,-0.04150390625,0.0185546875,1.0078125,0.42724609375,-0.54931640625,-0.1220703125,0.0,0.0,0.0,0.0225848276168108,-0.0005713182035833597,-0.9177432656288147,0.3965311050415039
3.078390598297119,-0.982033499807032,2.3153207901827826,133.24779727232593,-0.04052734375,0.0166015625,1.005859375,0.0,-1.03759765625,-0.1220703125,0.0,0.0,0.0,0.021944105625152588,0.00015104826889000833,-0.9177678227424622,0.39651060104370117
3.0981993675231934,-0.9145021388226466,2.3597520245073618,133.25322044252692,-0.04150390625,0.0166015625,1.00537109375,-0.3662109375,-0.732421875,-0.18310546875,0.0,0.0,0.0,0.02206626906991005,0.0008447282016277313,-0.917780339717865,0.396474152803421
3.1134750843048096,-1.0398444343854316,2.2546170570474713,133.25171780090952,-0.03955078125,0.01806640625,1.00537109375,-0.18310546875,-0.3662109375,-0.1220703125,0.0,0.0,0.0,0.021658018231391907,-0.0005229225498624146,-0.9177891612052917,0.396476686000824
3.1381421089172363,-1.035657848589331,2.2832007583937397,133.2555973483581,-0.0400390625,0.01806640625,1.00390625,0.18310546875,-0.3662109375,-0.1220703125,0.0,0.0,0.0,0.021872418001294136,-0.0003911529784090817,-0.9177989363670349,0.39644235372543335
3.158066987991333,-1.0130705197258048,2.189739437999047,133.25994134867022,-0.03857421875,0.01806640625,1.00634765625,-0.06103515625,-1.03759765625,-0.244140625,0.0,0.0,0.0,0.021045800298452377,-0.0005346479010768235,-0.9178258180618286,0.396424800157547
3.178189277648926,-0.9466372183722046,2.2538751277488784,133.2653645188712,-0.0400390625,0.01708984375,1.00439453125,-0.18310546875,-1.220703125,-0.1220703125,0.0,0.0,0.0,0.0213296078145504,0.00021848600590601563,-0.917836606502533,0.3963850140571594
3.198192834854126,-1.0490312522625103,2.260859209618628,133.26349304703862,-0.0400390625,0.0185546875,1.00390625,0.0,-0.48828125,-0.1220703125,0.0,0.0,0.0,0.02173973061144352,-0.0005771198193542659,-0.9178290963172913,0.39637982845306396
3.218156099319458,-1.0596016103333397,2.2286433417377935,133.26499568865603,-0.0390625,0.01806640625,1.0029296875,-0.1220703125,-0.1220703125,0.0,0.0,0.0,0.0,0.021518288180232048,-0.0007735971594229341,-0.9178382754325867,0.3963702917098999
3.2399725914001465,-1.0365378757752048,2.2875814709726567,133.26748187751392,-0.0400390625,0.01806640625,1.00439453125,-0.18310546875,-0.6103515625,0.0,0.0,0.0,0.0,0.02191050350666046,-0.0003853081725537777,-0.917839527130127,0.3963463306427002
3.258363962173462,-0.9878762997551549,2.25842168585858,133.27286406657987,-0.03955078125,0.017578125,1.00537109375,0.06103515625,-1.03759765625,-0.18310546875,0.0,0.0,0.0,0.021508658304810524,-9.749118180479854e-05,-0.9178619980812073,0.3963167071342468
3.278528928756714,-1.0627088127971667,2.281894484714975,133.2738202930637,-0.0400390625,0.0185546875,1.00244140625,0.18310546875,-0.91552734375,-0.30517578125,0.0,0.0,0.0,0.021955443546175957,-0.0006158259348012507,-0.917862057685852,0.39629146456718445
3.2981741428375244,-0.9633163268819641,2.2071781916105593,133.27917516137296,-0.0390625,0.01708984375,1.0029296875,-0.30517578125,-0.42724609375,-0.18310546875,0.0,0.0,0.0,0.021013319492340088,-7.929415733087808e-05,-0.9178903102874756,0.3962774872779846
3.3181564807891846,-1.0296171865986894,2.1723211749550453,133.27950301045314,-0.0380859375,0.01806640625,1.0029296875,-0.48828125,-0.42724609375,-0.18310546875,0.0,0.0,0.0,0.020963424816727638,-0.0007310632499866188,-0.917895495891571,0.3962675631046295
3.3382678031921387,-0.8957113279205895,2.2792505611759455,133.2894887470197,-0.0400390625,0.015625,1.0029296875,0.06103515625,-0.54931640625,-0.06103515625,0.0,0.0,0.0,0.021356819197535515,0.0007097277557477355,-0.917916476726532,0.39619776606559753
3.3537425994873047,-0.9709592018415026,2.167555837348492,133.28917455831788,-0.0380859375,0.01708984375,1.00341796875,0.244140625,-0.91552734375,-0.18310546875,0.0,0.0,0.0,0.020722389221191406,-0.0002794467145577073,-0.9179297685623169,0.3962012827396393
3.3782742023468018,-0.9651997515455951,2.340755987765087,133.29349123787333,-0.041015625,0.01708984375,1.0048828125,-0.244140625,-1.03759765625,-0.1220703125,0.0,0.0,0.0,0.022089684382081032,0.00036514343810267746,-0.9179224967956543,0.39614439010620117
3.398447275161743,-1.06213977266194,2.2204054932685238,133.29350489825165,-0.03857421875,0.0185546875,1.0029296875,-0.1220703125,-0.8544921875,-0.48828125,0.0,0.0,0.0,0.021460890769958496,-0.0008277842425741255,-0.9179378151893616,0.3961426615715027
3.4179561138153076,-1.0371014731034367,2.2343510320063973,133.29745274759193,-0.0390625,0.01806640625,1.00341796875,-0.06103515625,-0.30517578125,-0.1220703125,0.0,0.0,0.0,0.021486008539795876,-0.000579706160351634,-0.9179498553276062,0.39611366391181946
3.4332780838012695,-1.0137877963103619,2.2461676861573423,133.30168746487735,-0.03955078125,0.017578125,1.00390625,-0.244140625,-0.3662109375,0.0,0.0,0.0,0.0,0.02150004915893078,-0.0003528593806549907,-0.9179631471633911,0.39608263969421387
3.4599831104278564,-0.9575737386155702,2.352557700877223,133.3066598425931,-0.041015625,0.0166015625,1.005859375,-0.18310546875,-0.8544921875,0.0,0.0,0.0,0.0,0.02215789631009102,0.0004645179433282465,-0.917966365814209,0.39603880047798157
3.4775915145874023,-0.9507445099409094,2.18204416268197,133.31086723912182,-0.0380859375,0.01611328125,1.0048828125,0.1220703125,-0.91552734375,-0.1220703125,0.0,0.0,0.0,0.020768525078892708,-7.13179906597361e-05,-0.9180030226707458,0.3960292935371399
3.4981253147125244,-1.040094269898666,2.283533303228955,133.31029350323155,-0.0400390625,0.01806640625,1.00390625,0.1220703125,-0.6103515625,-0.1220703125,0.0,0.0,0.0,0.021890223026275635,-0.0004359824233688414,-0.9179880619049072,0.396003395318985
3.5244264602661133,-1.0747561992760113,2.217236712380461,133.31083991836516,-0.0390625,0.0185546875,1.00390625,-0.54931640625,-0.3662109375,0.0,0.0,0.0,0.0,0.021478984504938126,-0.0009430618956685066,-0.9179980158805847,0.39600178599357605
3.5335428714752197,-1.059460844403414,2.318730975569323,133.3139954657617,-0.0419921875,0.01953125,1.00439453125,-0.244140625,-0.54931640625,0.0,0.0,0.0,0.0,0.02223905362188816,-0.00047010660637170076,-0.9179962277412415,0.395965039730072
3.553330898284912,-0.9647959166109181,2.260225496129698,133.32113984363355,-0.03955078125,0.0166015625,1.00341796875,0.3662109375,-0.8544921875,-0.1220703125,0.0,0.0,0.0,0.0214433204382658,8.458863158011809e-05,-0.9180286526679993,0.39593401551246643
3.5781986713409424,-1.0625334690345676,2.1447893227409587,133.31930935293596,-0.03759765625,0.0185546875,1.0048828125,0.0,-0.8544921875,-0.1220703125,0.0,0.0,0.0,0.020856371149420738,-0.0010972577147185802,-0.9180361032485962,0.3959463834762573
3.598491907119751,-0.9823883494787554,2.202110618133233,133.32548384394565,-0.03857421875,0.017578125,1.00537109375,-0.54931640625,-0.732421875,-0.18310546875,0.0,0.0,0.0,0.021038582548499107,-0.0002581014996394515,-0.91805100440979,0.3959037661552429
3.618250608444214,-1.0269499977277996,2.212744155453885,133.32756022145335,-0.0390625,0.0185546875,1.00244140625,-0.244140625,-0.30517578125,0.0,0.0,0.0,0.0,0.02127770707011223,-0.0005787273403257132,-0.9180566668510437,0.3958773612976074
3.6384541988372803,-1.0294532620586092,2.292314578624064,133.3318495802521,-0.0400390625,0.017578125,1.00341796875,0.1220703125,-0.42724609375,-0.06103515625,0.0,0.0,0.0,0.021923722699284554,-0.00032448937417939305,-0.9180614352226257,0.39583152532577515
3.6586551666259766,-0.9821079915576675,2.167804925809786,133.33755961839825,-0.0380859375,0.01708984375,1.005859375,0.06103515625,-0.9765625,-0.244140625,0.0,0.0,0.0,0.020762773230671883,-0.0003766545560210943,-0.9180968999862671,0.3958117663860321
3.6781458854675293,-1.021748701953129,2.231418746418346,133.33837924109864,-0.03857421875,0.01806640625,1.001953125,-0.30517578125,-0.91552734375,-0.244140625,0.0,0.0,0.0,0.021409282460808754,-0.00047451237333007157,-0.9180917739868164,0.39578908681869507
3.698201894760132,-1.059893494198652,2.305032390858628,133.34015509028285,-0.04052734375,0.0185546875,1.0029296875,0.06103515625,-0.30517578125,-0.3662109375,0.0,0.0,0.0,0.022130709141492844,-0.0005260022589936852,-0.9180883169174194,0.3957572281360626
3.7183964252471924,-0.9602568290206216,2.3951962239880853,133.34732678891137,-0.04248046875,0.017578125,1.00390625,-0.06103515625,-0.06103515625,0.0,0.0,0.0,0.0,0.02250889502465725,0.000582511886022985,-0.9181010127067566,0.3957063853740692
3.7382702827453613,-0.9996457829121447,2.382156325645473,133.34766829836985,-0.0419921875,0.017578125,1.0048828125,-0.18310546875,-0.8544921875,0.0,0.0,0.0,0.0,0.02254045195877552,0.00022179819643497467,-0.9181041121482849,0.39569786190986633
3.759636640548706,-0.9839606803700335,2.3298727216529063,133.35100143068482,-0.0400390625,0.01611328125,1.0029296875,-0.06103515625,-0.9765625,-0.18310546875,0.0,0.0,0.0,0.022067461162805557,0.00016613311890978366,-0.9181226491928101,0.3956815302371979
3.7782070636749268,-0.925572061198239,2.232854793691341,133.3565885254259,-0.03955078125,0.01611328125,1.00439453125,0.244140625,-0.54931640625,-0.18310546875,0.0,0.0,0.0,0.02108863927423954,0.0002976569812744856,-0.9181545376777649,0.39566096663475037
3.801551580429077,-1.0156998223911422,2.3434058877196406,133.35548203478035,-0.041015625,0.0185546875,1.00244140625,-0.244140625,-0.3662109375,-0.1220703125,0.0,0.0,0.0,0.022285467013716698,-4.227116733090952e-05,-0.9181363582611084,0.3956374526023865
3.818145275115967,-1.159439979535297,2.2668712701921203,133.35359690256942,-0.03955078125,0.01953125,1.0029296875,-0.48828125,-0.732421875,-0.18310546875,0.0,0.0,0.0,0.022168638184666634,-0.0014580638380721211,-0.9181386828422546,0.3956359326839447
3.8386659622192383,-0.9617643798364903,2.2662567666102307,133.36444324297142,-0.0400390625,0.017578125,1.00439453125,0.0,-0.1220703125,-0.06103515625,0.0,0.0,0.0,0.021481206640601158,0.00012161194899817929,-0.9181773662567139,0.395586758852005
3.858160972595215,-1.0519504110807503,2.3108414667477235,133.36329577119085,-0.0400390625,0.01806640625,1.0029296875,0.244140625,-0.54931640625,0.06103515625,0.0,0.0,0.0,0.022149721160531044,-0.0004467573016881943,-0.9181675314903259,0.3955724835395813
3.8791892528533936,-0.9216304017169069,2.2237776857278058,133.3702762245226,-0.0390625,0.01611328125,1.00244140625,-0.06103515625,-1.15966796875,-0.1220703125,0.0,0.0,0.0,0.021002348512411118,0.0002953640650957823,-0.9182028770446777,0.3955530524253845
3.8988547325134277,-1.0337001456184762,2.2446437001987833,133.36755780923295,-0.03955078125,0.01806640625,1.0029296875,-0.30517578125,-0.8544921875,-0.18310546875,0.0,0.0,0.0,0.021556366235017776,-0.0005300389020703733,-0.9181908369064331,0.39555126428604126
3.918592691421509,-0.9573920982723302,2.2813239504758673,133.3729399982989,-0.0400390625,0.01708984375,1.0029296875,-0.1220703125,-0.1220703125,-0.06103515625,0.0,0.0,0.0,0.021586835384368896,0.00020709856471512467,-0.9182047843933105,0.3955174386501312
3.934103012084961,-0.898945209049179,2.3476982347261703,133.37717471558432,-0.04150390625,0.01611328125,1.00244140625,0.0,-0.42724609375,0.0,0.0,0.0,0.0,0.021916905418038368,0.0009038833086378872,-0.9182102084159851,0.3954857885837555
3.9589784145355225,-0.9910093288717808,2.34320503746936,133.3767649042341,-0.041015625,0.017578125,1.00439453125,-0.30517578125,-0.91552734375,-0.1220703125,0.0,0.0,0.0,0.022198639810085297,0.0001507401029812172,-0.9182097911834717,0.39547184109687805
3.978349208831787,-1.0637745357511001,2.3126463442358998,133.37725667785435,-0.041015625,0.01806640625,1.00341796875,0.1220703125,-1.03759765625,-0.244140625,0.0,0.0,0.0,0.02220492996275425,-0.0005379661452025175,-0.9182154536247253,0.3954581618309021
4.0008134841918945,-1.0290096199276757,2.311474539906419,133.3828710933521,-0.041015625,0.0185546875,1.00537109375,0.0,-0.3662109375,-0.1220703125,0.0,0.0,0.0,0.022075556218624115,-0.000264528498519212,-0.9182350635528564,0.3954199254512787
4.018377065658569,-1.0186991292104242,2.316711374009115,133.38557584826344,-0.04052734375,0.017578125,1.00390625,-0.42724609375,-0.3662109375,0.0,0.0,0.0,0.0,0.022081928327679634,-0.0001643412688281387,-0.9182437658309937,0.39539968967437744
4.038989782333374,-1.0228461212536797,2.25216822078661,133.38799373522963,-0.03955078125,0.01806640625,1.0048828125,-0.1220703125,-0.732421875,-0.06103515625,0.0,0.0,0.0,0.021579109132289886,-0.0004209202015772462,-0.918260395526886,0.39538857340812683
4.0585222244262695,-1.0319584473801229,2.2789901602138385,133.3915317732197,-0.04052734375,0.017578125,1.005859375,0.244140625,-0.8544921875,-0.30517578125,0.0,0.0,0.0,0.021825440227985382,-0.0004019940388388932,-0.918269157409668,0.39535462856292725
4.078333616256714,-1.039448176691865,2.2547024344120965,133.39393599980752,-0.03955078125,0.01806640625,1.0048828125,0.18310546875,-0.8544921875,-0.1220703125,0.0,0.0,0.0,0.021656669676303864,-0.000546331808436662,-0.9182805418968201,0.39533740282058716
4.09864616394043,-0.9679779309904979,2.270920932039703,133.40012415119557,-0.0400390625,0.01708984375,1.0029296875,-0.48828125,-0.6103515625,-0.18310546875,0.0,0.0,0.0,0.021540049463510513,8.123314182739705e-05,-0.9182999134063721,0.3952990472316742
4.11852502822876,-1.0608405426157566,2.3020181430005366,133.3989493586583,-0.04052734375,0.01904296875,1.00537109375,-0.244140625,-0.42724609375,0.06103515625,0.0,0.0,0.0,0.02210955135524273,-0.0005553507944568992,-0.9182916879653931,0.3952864706516266
4.133661508560181,-1.0791964625667543,2.2143031461319405,133.4028015853502,-0.0390625,0.01904296875,1.00439453125,0.3662109375,-0.54931640625,-0.1220703125,0.0,0.0,0.0,0.02147003263235092,-0.0010060070781037211,-0.9183158278465271,0.3952646553516388
4.160320043563843,-1.0070625145771321,2.2791611283865003,133.40736415171577,-0.0400390625,0.017578125,1.00244140625,0.06103515625,-1.0986328125,-0.1220703125,0.0,0.0,0.0,0.021740885451436043,-0.0002049048343906179,-0.918323814868927,0.39523255825042725
4.1789186000823975,-1.0513304646918658,2.197978353685375,133.4076100385259,-0.0390625,0.0185546875,1.00634765625,-0.42724609375,-1.03759765625,-0.18310546875,0.0,0.0,0.0,0.02124307118356228,-0.0008399452199228108,-0.9183346629142761,0.39523351192474365
4.198171377182007,-1.0153105016084516,2.216759666355618,133.41224090678315,-0.0390625,0.01806640625,1.00634765625,-0.1220703125,-0.244140625,-0.06103515625,0.0,0.0,0.0,0.021269306540489197,-0.00048731081187725067,-0.9183485507965088,0.3952004909515381
4.2184834480285645,-0.9454576233582023,2.288642925058359,133.41741819017403,-0.03955078125,0.01806640625,1.001953125,-0.06103515625,0.0,0.0,0.0,0.0,0.0,0.02160440757870674,0.00031962565844878554,-0.9183571934700012,0.39516234397888184
4.238192081451416,-0.9741031165721183,2.2427128910977854,133.41912573746654,-0.03955078125,0.01708984375,1.00390625,-0.18310546875,-0.91552734375,0.0,0.0,0.0,0.0,0.021335149183869362,-6.877621490275487e-05,-0.9183690547943115,0.3951494097709656
4.261106252670288,-0.9949764948407946,2.310678609424701,133.42107917156915,-0.0400390625,0.01708984375,1.00341796875,-0.06103515625,-1.03759765625,-0.30517578125,0.0,0.0,0.0,0.021951738744974136,-1.8825984398063156e-06,-0.9183670282363892,0.3951205313205719
4.278486490249634,-1.004363309194508,2.2495761639965903,133.42370196421044,-0.03857421875,0.01318359375,1.00390625,-0.732421875,-0.6103515625,-0.244140625,0.0,0.0,0.0,0.021494479849934578,-0.00028846273198723793,-0.9183839559555054,0.39510613679885864
4.29887843132019,-0.6568957379426507,2.2751511670134685,133.42083328475903,-0.03271484375,-0.24853515625,0.97900390625,-4.638671875,-1.03759765625,0.48828125,0.0,0.0,0.0,0.020501213148236275,0.0025850380770862103,-0.9183672070503235,0.3951896131038666
4.319575548171997,-0.5263521999660481,2.3053295040875232,133.46514755209407,-0.0458984375,-0.11181640625,1.07763671875,8.30078125,10.55908203125,1.77001953125,0.0,0.0,0.0,0.020294276997447014,0.003727526171132922,-0.9185120463371277,0.3948543965816498
4.338877201080322,-0.47301962832735556,2.33654048038672,133.5498965393156,-0.0498046875,0.0087890625,0.95361328125,-1.220703125,6.04248046875,-2.0751953125,0.0,0.0,0.0,0.020363805815577507,0.004247543402016163,-0.9187973141670227,0.39418110251426697
4.358375787734985,-0.34245471932917027,2.522725674189155,133.65001345216965,-0.0712890625,-0.03857421875,0.97509765625,-2.50244140625,1.64794921875,-3.90625,0.0,0.0,0.0,0.021412566304206848,0.00591637147590518,-0.9191061854362488,0.39338305592536926
4.373590707778931,-0.07025183066688681,2.5953107348291153,133.77656319711164,-0.04541015625,-0.1171875,1.03564453125,-4.08935546875,4.21142578125,-5.43212890625,0.0,0.0,0.0,0.021069422364234924,0.008325576782226562,-0.9195106625556946,0.39241182804107666
4.397563695907593,0.2481149192133377,2.5732443146115083,133.97287649423615,-0.017578125,-0.25634765625,1.0068359375,-2.99072265625,-0.06103515625,-10.1318359375,0.0,0.0,0.0,0.019820528104901314,0.01077069528400898,-0.9201591610908508,0.3908943831920624
4.4139485359191895,0.4724481335928959,2.6516785785019383,134.1957865479887,-0.0751953125,-0.2734375,1.02685546875,-0.244140625,4.5166015625,-11.1083984375,0.0,0.0,0.0,0.019710034132003784,0.012801192700862885,-0.9208795428276062,0.3891383111476898
4.4335877895355225,0.6790286457829596,2.708740326705752,134.45989630281474,-0.11083984375,-0.24267578125,0.9375,-0.54931640625,1.708984375,-14.0380859375,0.0,0.0,0.0,0.01950080506503582,0.01461004838347435,-0.921737551689148,0.3870479464530945
4.4585676193237305,0.9495979986556994,2.72949855225389,134.8282074236185,-0.07275390625,-0.251953125,0.9677734375,-4.45556640625,1.3427734375,-18.6767578125,0.0,0.0,0.0,0.018807943910360336,0.016796069219708443,-0.922935426235199,0.3841281831264496
4.478770732879639,1.2185287998187235,2.7294076253605644,135.2967310799247,-0.05810546875,-0.3017578125,1.021484375,0.244140625,-1.52587890625,-24.71923828125,0.0,0.0,0.0,0.01798303797841072,0.018888352438807487,-0.9244564771652222,0.38039475679397583
4.498967885971069,1.448266267976922,2.69397964757912,135.85639678051555,-0.0830078125,-0.296875,1.0029296875,-0.67138671875,-3.96728515625,-29.9072265625,0.0,0.0,0.0,0.01703502982854843,0.020541297271847725,-0.9262720346450806,0.3759097456932068
4.519372463226318,1.6445967472960594,2.6975714733089,136.4635459562163,-0.09814453125,-0.2978515625,1.0234375,0.0,-0.06103515625,-30.82275390625,0.0,0.0,0.0,0.016537072136998177,0.022052709013223648,-0.9282134175300598,0.3710257112979889
4.539770841598511,1.7747525119547052,2.7043476612957873,137.14525347689695,-0.04638671875,-0.2919921875,0.99755859375,3.84521484375,0.18310546875,-35.64453125,0.0,0.0,0.0,0.016307855024933815,0.023032275959849358,-0.9303770661354065,0.36551621556282043
4.558445930480957,1.9368179599202984,2.730586046435803,137.91135481496227,-0.0634765625,-0.27685546875,0.95751953125,0.3662109375,0.1220703125,-41.259765625,0.0,0.0,0.0,0.016166960820555687,0.02432406134903431,-0.9327600598335266,0.3593127131462097
4.578199148178101,2.1243529698574575,2.8035698193685628,138.74469253521718,-0.06884765625,-0.2578125,0.9609375,-2.0751953125,-1.52587890625,-44.37255859375,0.0,0.0,0.0,0.016362378373742104,0.025960566475987434,-0.9352890849113464,0.3525519073009491
4.598191976547241,2.4765664020045626,2.900892331078428,139.66101705388775,-0.09033203125,-0.2392578125,0.91259765625,-7.75146484375,10.498046875,-44.86083984375,0.0,0.0,0.0,0.01630571112036705,0.029004337266087532,-0.9379682540893555,0.34512102603912354
4.618319988250732,2.8646028956879155,3.0638736647230376,140.61684738671767,-0.08935546875,-0.3115234375,1.04638671875,-5.4931640625,9.82666015625,-46.08154296875,0.0,0.0,0.0,0.01674339547753334,0.03253105655312538,-0.9406642913818359,0.33736032247543335
4.638714790344238,3.115066999769341,3.0793387071078273,141.49772322359587,-0.20654296875,-0.34130859375,1.09912109375,1.8310546875,-1.28173828125,-40.0390625,0.0,0.0,0.0,0.016398727893829346,0.03450730815529823,-0.943152129650116,0.33015817403793335
4.658347845077515,3.2050641335943677,3.0970493876256704,142.16945866808828,-0.16650390625,-0.3173828125,1.03955078125,7.50732421875,-1.3427734375,-30.029296875,0.0,0.0,0.0,0.016491906717419624,0.035202763974666595,-0.9450386166572571,0.3246394395828247
4.678454399108887,3.229194978488611,3.070032574363685,142.6488150044181,-0.080078125,-0.27880859375,0.99560546875,7.2021484375,-2.5634765625,-20.751953125,0.0,0.0,0.0,0.016348255798220634,0.0352574847638607,-0.9463891386985779,0.32068249583244324
4.698714971542358,3.3476270436020474,2.9525104185137416,142.97574883922996,-0.05078125,-0.2197265625,0.90185546875,0.48828125,-4.69970703125,-13.12255859375,0.0,0.0,0.0,0.01514812558889389,0.03586510196328163,-0.9472983479499817,0.3179781436920166
4.718325614929199,3.609558181526278,2.8244371145000096,143.14939956868835,-0.0185546875,-0.2353515625,0.91796875,-2.13623046875,-6.04248046875,-6.28662109375,0.0,0.0,0.0,0.013419099152088165,0.03765629976987839,-0.9477325677871704,0.31655165553092957
4.738709449768066,3.8456137881101498,2.639455741538789,143.1932630435382,-0.01123046875,-0.23583984375,0.91015625,0.42724609375,-7.9345703125,-0.79345703125,0.0,0.0,0.0,0.011251327581703663,0.03909566253423691,-0.9478276371955872,0.31617656350135803
4.7606024742126465,3.943230851727972,2.579316139340238,143.2420715753471,0.0517578125,-0.1943359375,1.1220703125,3.96728515625,0.67138671875,-1.28173828125,0.0,0.0,0.0,0.010501218028366566,0.03973344713449478,-0.9479455947875977,0.3157690763473511
4.779206275939941,4.010446316463244,2.4840601867411247,143.2573711990879,-0.0947265625,-0.1669921875,1.11376953125,5.2490234375,-11.962890625,-2.74658203125,0.0,0.0,0.0,0.00953295361250639,0.04002693295478821,-0.9479909539222717,0.31562671065330505
4.798166036605835,4.064453902891005,2.355564264772498,143.31632939200347,-0.03564453125,-0.14208984375,0.96044921875,6.40869140625,-4.69970703125,-3.41796875,0.0,0.0,0.0,0.008341292850673199,0.04011711850762367,-0.9481691718101501,0.3151130676269531
4.813866853713989,4.105041875146982,2.248278214610876,143.42737460752954,0.0234375,-0.1025390625,0.97705078125,0.9765625,1.0986328125,-5.43212890625,0.0,0.0,0.0,0.007380441762506962,0.04015208035707474,-0.9484882354736328,0.31417128443717957
4.838324069976807,4.230167525647031,2.1736169899066438,143.53059242626676,-0.052734375,-0.10791015625,0.9921875,3.60107421875,-5.79833984375,-6.04248046875,0.0,0.0,0.0,0.006456052418798208,0.04097812622785568,-0.948745846748352,0.3133057653903961
4.858268976211548,4.323226291767516,2.099168354840328,143.69968058935962,0.078125,-0.0869140625,0.9765625,-1.0986328125,9.521484375,-8.30078125,0.0,0.0,0.0,0.005646257195621729,0.04153761267662048,-0.9491927027702332,0.31189119815826416
4.878108501434326,4.415743338509454,2.1296574655216185,143.87421924341012,-0.01416015625,-0.10986328125,0.93798828125,3.7841796875,10.498046875,-7.50732421875,0.0,0.0,0.0,0.005711657926440239,0.04237791895866394,-0.9496249556541443,0.3104577958583832
4.898412227630615,4.426792023265596,2.1962362285601986,144.00080996948714,-0.1611328125,-0.068359375,0.94189453125,-0.1220703125,-12.39013671875,-5.55419921875,0.0,0.0,0.0,0.0062808264046907425,0.042642150074243546,-0.9499459266662598,0.30942708253860474
4.9131317138671875,4.294723485474229,2.216483257137644,144.10696476956747,-0.033203125,-0.01806640625,1.1123046875,2.9296875,6.53076171875,-6.9580078125,0.0,0.0,0.0,0.006843913812190294,0.04159540310502052,-0.9502753019332886,0.3085446357727051
4.938530921936035,3.9405961062556396,2.3025030864316074,144.26333512042575,-0.0224609375,0.0771484375,1.13916015625,13.24462890625,2.3193359375,-7.99560546875,0.0,0.0,0.0,0.008564187213778496,0.03887751325964928,-0.9507975578308105,0.30724483728408813
4.958662033081055,3.665876933214441,2.2293758795262777,144.40487030040674,-0.123046875,0.13916015625,0.8330078125,-1.77001953125,-6.77490234375,-7.26318359375,0.0,0.0,0.0,0.008738626725971699,0.03639193996787071,-0.9512849450111389,0.306033194065094
4.979546308517456,3.6390744171376648,2.1762722259464864,144.52741755449512,-0.07080078125,0.12890625,0.83935546875,-12.87841796875,-4.45556640625,-6.7138671875,0.0,0.0,0.0,0.00840771570801735,0.036019183695316315,-0.951633095741272,0.30500224232673645
4.999659061431885,3.6372575868184414,2.193524856903115,144.6307173355024,-0.0380859375,0.044921875,1.0185546875,-3.0517578125,7.01904296875,-5.67626953125,0.0,0.0,0.0,0.00858837366104126,0.036042116582393646,-0.9519040584564209,0.304147869348526
5.018301248550415,3.3799494197452518,2.1846522277278573,144.69445666083695,-0.1142578125,0.052734375,1.15869140625,5.55419921875,-6.16455078125,-2.8076171875,0.0,0.0,0.0,0.009216401726007462,0.033875998109579086,-0.952153742313385,0.303596556186676
5.038554668426514,3.154676120539891,2.163139479719844,144.73322481456594,-0.09521484375,0.10693359375,1.06005859375,4.2724609375,-6.34765625,-2.62451171875,0.0,0.0,0.0,0.009645204059779644,0.031944047659635544,-0.9523261189460754,0.3032517731189728
5.05813193321228,2.8786069179205573,2.0608817294478214,144.7674440623077,-0.03564453125,0.095703125,1.03466796875,6.04248046875,2.13623046875,-3.84521484375,0.0,0.0,0.0,0.0095343803986907,0.029377013444900513,-0.9525132775306702,0.30292677879333496
5.078327417373657,2.663852323480428,2.21917862053886,144.9350842252965,-0.0146484375,0.13037109375,1.015625,0.3662109375,8.23974609375,-11.29150390625,0.0,0.0,0.0,0.01145925372838974,0.02799244597554207,-0.9529744982719421,0.3015373647212982
5.098223447799683,2.49934977864161,2.353825341298495,145.32342146074674,-0.12158203125,0.130859375,0.94091796875,0.0,5.67626953125,-24.7802734375,0.0,0.0,0.0,0.013103555887937546,0.026933446526527405,-0.9539999961853027,0.29830679297447205
5.118419885635376,2.3709708236625193,2.651612197600942,146.01417215188846,-0.046875,0.09326171875,0.9326171875,-5.615234375,18.06640625,-40.22216796875,0.0,0.0,0.0,0.016077855601906776,0.026541179046034813,-0.9557403922080994,0.2925705015659332
5.140538930892944,2.377751280517638,3.1244732374735062,146.97550761718944,-0.12890625,-0.04052734375,1.03466796875,2.86865234375,6.40869140625,-54.26025390625,0.0,0.0,0.0,0.02023792639374733,0.027632202953100204,-0.9580355286598206,0.2845957577228546
5.159998893737793,2.15515370791963,3.226564074997687,148.54467527710815,-0.17138671875,0.06640625,1.0810546875,5.31005859375,-1.89208984375,-71.044921875,0.0,0.0,0.0,0.02199886180460453,0.025724943727254868,-0.9618657827377319,0.2714194655418396
5.1795172691345215,2.0431576019950497,3.3547031195821804,149.66326901785948,-0.1689453125,0.05908203125,1.02197265625,4.21142578125,9.033203125,-75.5615234375,0.0,0.0,0.0,0.02358379401266575,0.02485821209847927,-0.9644576907157898,0.26200640201568604
5.198461532592773,1.937496283082245,3.6689108178663963,151.2423267916964,-0.205078125,0.0078125,1.0615234375,6.53076171875,7.568359375,-80.6884765625,0.0,0.0,0.0,0.026808202266693115,0.024317460134625435,-0.9679057598114014,0.24869373440742493
5.218513488769531,1.9057877701906956,3.8020849925296587,152.89788268423743,-0.2529296875,0.01611328125,0.96630859375,2.197265625,-0.91552734375,-84.04541015625,0.0,0.0,0.0,0.02835085801780224,0.023930339142680168,-0.971362829208374,0.23468679189682007
5.238399267196655,1.963450361598059,3.994662176178168,154.56770001176548,-0.18603515625,-0.01904296875,0.90576171875,1.953125,3.2958984375,-82.82470703125,0.0,0.0,0.0,0.030223943293094635,0.024373846128582954,-0.9746054410934448,0.2205376923084259
5.25968861579895,2.0983374196391136,4.133178412546027,156.15334208796227,-0.2783203125,-0.0390625,0.9130859375,-0.67138671875,-8.056640625,-75.5615234375,0.0,0.0,0.0,0.03149650990962982,0.025352763012051582,-0.9774882793426514,0.20707964897155762
5.2782135009765625,2.219478508532106,4.211621000729507,157.5781741903403,-0.22509765625,-0.0517578125,1.0703125,2.13623046875,4.150390625,-67.5048828125,0.0,0.0,0.0,0.032274238765239716,0.02612767554819584,-0.979933500289917,0.19495153427124023
5.2982728481292725,2.2489753207930407,4.264270233286082,158.83520220518943,-0.2216796875,-0.0556640625,1.08544921875,5.31005859375,-8.23974609375,-57.9833984375,0.0,0.0,0.0,0.03296279534697533,0.026108823716640472,-0.9819880127906799,0.184204563498497
5.318047046661377,2.313857208709696,4.201896092011879,159.84067435290703,-0.185546875,-0.03369140625,0.982421875,-1.5869140625,-11.53564453125,-44.43359375,0.0,0.0,0.0,0.032555680721998215,0.026280706748366356,-0.9835733771324158,0.17559272050857544
5.339483022689819,2.4345332044088925,4.06211114800569,160.55348655506788,-0.07421875,-0.0537109375,0.951171875,1.0986328125,-11.16943359375,-30.3955078125,0.0,0.0,0.0,0.03133859857916832,0.026909681037068367,-0.9846664071083069,0.1694873869419098
5.359377861022949,2.4570309937612684,3.967384961954076,161.01616356944456,0.1015625,-0.02734375,0.9921875,-0.06103515625,13.61083984375,-18.37158203125,0.0,0.0,0.0,0.03059976175427437,0.02684079110622406,-0.9853688478469849,0.16550379991531372
5.378462314605713,2.3519440510689793,3.982116399333324,161.23956539681734,-0.10888671875,0.0048828125,0.953125,0.91552734375,-5.9814453125,-8.23974609375,0.0,0.0,0.0,0.030928781256079674,0.025897983461618423,-0.9857089519500732,0.16355614364147186
5.3981499671936035,2.216835865653546,3.9809061751897623,161.36384751895488,-0.0556640625,0.0283203125,1.11572265625,-1.89208984375,-0.67138671875,-6.65283203125,0.0,0.0,0.0,0.031137995421886444,0.024700304493308067,-0.985916018486023,0.16245022416114807
5.418135643005371,2.086639013138174,3.935533655420191,161.48403152759042,-0.0263671875,0.00341796875,1.11474609375,2.685546875,5.18798828125,-6.8359375,0.0,0.0,0.0,0.030956728383898735,0.02348383702337742,-0.9861278533935547,0.16137561202049255
5.433517217636108,1.8635118874360785,3.952548937303162,161.60401063055087,-0.12451171875,0.009765625,0.904296875,5.2490234375,-8.544921875,-6.2255859375,0.0,0.0,0.0,0.03143993392586708,0.02155453711748123,-0.9863346815109253,0.16028404235839844
5.453161239624023,1.7839384760581376,3.9421230804219607,161.72215924281375,-0.06494140625,0.052734375,0.85888671875,-5.2490234375,1.28173828125,-6.77490234375,0.0,0.0,0.0,0.03148295730352402,0.0208226777613163,-0.9865174889564514,0.15924419462680817
5.478148460388184,1.7368183883563948,3.9409939647747927,161.89371993438613,0.01171875,-0.0048828125,1.1337890625,0.91552734375,5.55419921875,-9.46044921875,0.0,0.0,0.0,0.03156924247741699,0.020368222147226334,-0.986763596534729,0.157754048705101
5.4979424476623535,1.5868488852457767,3.963214277692137,162.0545982100966,-0.1201171875,0.00439453125,1.0029296875,2.44140625,-3.7841796875,-6.7138671875,0.0,0.0,0.0,0.031993843615055084,0.019062301144003868,-0.9870027303695679,0.15632866322994232
5.5183632373809814,1.5077875246121752,3.981471373343581,162.16983716177307,-0.0986328125,0.05517578125,0.8720703125,-9.46044921875,-2.9296875,-6.40869140625,0.0,0.0,0.0,0.032277464866638184,0.018373627215623856,-0.9871666431427002,0.15531501173973083
5.5398359298706055,1.5290494766116016,4.049129092827612,162.24402667653774,-0.1103515625,0.01171875,1.03076171875,-3.5400390625,-2.50244140625,-4.150390625,0.0,0.0,0.0,0.032843638211488724,0.01862669549882412,-0.9872418642044067,0.15468649566173553
5.5581865310668945,1.433274643078979,4.127377874393393,162.3175195120071,-0.1201171875,-0.01513671875,1.123046875,4.0283203125,-7.2021484375,-2.74658203125,0.0,0.0,0.0,0.033658623695373535,0.017884984612464905,-0.9873306751251221,0.1540304571390152
5.578806400299072,1.2857805499339616,4.076011009853489,162.37692849740785,-0.06640625,0.05517578125,0.9580078125,-3.90625,-4.08935546875,-3.11279296875,0.0,0.0,0.0,0.03342277556657791,0.01652815192937851,-0.9874492287635803,0.15347255766391754
5.59834361076355,1.1861313983163548,3.862361411955021,162.46047537133546,0.0087890625,0.01953125,0.96728515625,-2.62451171875,0.3662109375,-6.16455078125,0.0,0.0,0.0,0.03172609210014343,0.015361573547124863,-0.9876415729522705,0.15271426737308502
5.618089199066162,1.1284613363895868,3.87220243388854,162.6062316082235,0.099609375,0.00732421875,1.01904296875,2.0751953125,17.08984375,-6.77490234375,0.0,0.0,0.0,0.03190666809678078,0.014837007969617844,-0.9878396987915039,0.15144230425357819
5.638293027877808,0.9579082044414892,3.7803739555923035,162.7046136530284,-0.11279296875,0.0419921875,1.03271484375,1.0986328125,-11.04736328125,-5.4931640625,0.0,0.0,0.0,0.03135169297456741,0.013218947686254978,-0.9880176186561584,0.15054386854171753
5.659175157546997,0.8441284586481839,3.6791629318105854,162.82203826523926,0.00732421875,0.06298828125,1.11181640625,-3.662109375,2.44140625,-7.080078125,0.0,0.0,0.0,0.030640801414847374,0.01207401230931282,-0.9882134199142456,0.14949797093868256
5.678265571594238,0.7101381297399578,3.6151183823974913,162.98201495597928,-0.06005859375,0.00244140625,1.00732421875,4.21142578125,0.18310546875,-7.99560546875,0.0,0.0,0.0,0.03027833066880703,0.010792925022542477,-0.9884527325630188,0.14808154106140137
5.698338270187378,0.5786231574364796,3.5866215525197287,163.1525374587978,-0.10888671875,0.044921875,0.826171875,-2.25830078125,-6.77490234375,-8.7890625,0.0,0.0,0.0,0.030216723680496216,0.009576791897416115,-0.9886915683746338,0.1465754210948944
5.719508409500122,0.5557060585020887,3.5849981019313812,163.35103641645674,0.03369140625,0.0,1.02978515625,-4.150390625,7.38525390625,-11.3525390625,0.0,0.0,0.0,0.03024822100996971,0.00932461116462946,-0.9889463186264038,0.14485661685466766
5.7333972454071045,0.7661117434316239,3.5988411878317046,163.56588684698866,-0.07470703125,-0.1162109375,1.076171875,0.9765625,1.8310546875,-8.97216796875,0.0,0.0,0.0,0.0301225408911705,0.011101431213319302,-0.9891936182975769,0.1430576890707016
5.7581751346588135,0.814840180600346,3.640008872393487,163.72851365112666,-0.14306640625,-0.01953125,0.96142578125,-0.732421875,-5.9814453125,-6.89697265625,0.0,0.0,0.0,0.03043348528444767,0.011530130170285702,-0.9893792867660522,0.1416674554347992
5.778219699859619,0.8717881634657967,3.72166250326052,163.8484244521954,-0.11181640625,0.0087890625,0.91259765625,-6.2255859375,-3.41796875,-5.2490234375,0.0,0.0,0.0,0.031080782413482666,0.012089911848306656,-0.989497721195221,0.14064928889274597
5.798367261886597,0.9794030232029309,3.7859785526931224,163.96464695111234,-0.107421875,-0.0498046875,1.07568359375,4.638671875,-6.9580078125,-4.39453125,0.0,0.0,0.0,0.03151734918355942,0.013065849430859089,-0.9896091818809509,0.13967697322368622
5.818284511566162,0.9418395440887996,3.809928184130949,164.06194982602835,-0.06640625,-0.0009765625,1.0087890625,-3.35693359375,-2.3193359375,-5.126953125,0.0,0.0,0.0,0.03178081288933754,0.012743547558784485,-0.9897245168685913,0.13882701098918915
5.8398847579956055,0.8893669893161468,3.623679597635279,164.14505956784905,-0.02685546875,0.00439453125,0.93798828125,-3.7841796875,-4.39453125,-6.103515625,0.0,0.0,0.0,0.03024432808160782,0.012043610215187073,-0.9898846745491028,0.13808941841125488
5.860089063644409,0.9970718688121076,3.5539469947474456,164.29055625754867,0.0634765625,-0.10400390625,1.0400390625,0.18310546875,13.61083984375,-5.92041015625,0.0,0.0,0.0,0.02952844835817814,0.012852796353399754,-0.9900670647621155,0.13685815036296844
5.878394365310669,1.1055863925289795,3.5227240656172016,164.3891022268936,-0.119140625,-0.1103515625,1.05908203125,2.50244140625,-6.89697265625,-2.86865234375,0.0,0.0,0.0,0.029140867292881012,0.013728160411119461,-0.990180492401123,0.13603313267230988
5.898730993270874,1.2744547089079052,3.4225341551164004,164.46719860986354,-0.05517578125,-0.064453125,1.1142578125,0.42724609375,-4.7607421875,-4.69970703125,0.0,0.0,0.0,0.028084823861718178,0.015049804002046585,-0.9902792572975159,0.13539502024650574
5.918291091918945,1.32504186466537,3.3250957436340562,164.56603144715362,-0.02880859375,-0.07080078125,1.037109375,3.7841796875,0.79345703125,-4.8828125,0.0,0.0,0.0,0.027196167036890984,0.015348955057561398,-0.990415096282959,0.1345469206571579
5.9365222454071045,1.3533595087991257,3.289836599591158,164.6418602073191,-0.1328125,-0.05517578125,0.8291015625,4.57763671875,-11.04736328125,-4.150390625,0.0,0.0,0.0,0.026868432760238647,0.015534733422100544,-0.9905093312263489,0.13389572501182556
5.95814847946167,1.394571696312219,3.2425294287391804,164.76310972546517,0.04638671875,-0.0390625,0.99169921875,1.220703125,8.4228515625,-5.9814453125,0.0,0.0,0.0,0.026428064331412315,0.01580801233649254,-0.9906570911407471,0.13285383582115173
5.9788055419921875,1.4408615958646878,3.22908420135801,164.84839146744196,-0.11181640625,-0.0458984375,1.0322265625,2.62451171875,-6.53076171875,-2.5634765625,0.0,0.0,0.0,0.026270193979144096,0.016173139214515686,-0.9907526969909668,0.13212616741657257
5.993688583374023,1.4565104130268334,3.2386234143075794,164.86385501572286,-0.15380859375,-0.01953125,0.9013671875,-3.41796875,-10.3759765625,0.1220703125,0.0,0.0,0.0,0.026336833834648132,0.016315825283527374,-0.9907658696174622,0.13199681043624878
6.020374774932861,1.4896444077425057,3.3301656649889098,164.86227041183542,-0.064453125,-0.02880859375,1.048828125,-2.25830078125,-4.638671875,-1.0986328125,0.0,0.0,0.0,0.027089979499578476,0.016707545146346092,-0.9907352328300476,0.13202548027038574
6.035667419433594,1.5221576022956473,3.405969238831827,164.83645229677276,-0.0849609375,-0.04052734375,1.06298828125,2.13623046875,-4.94384765625,0.42724609375,0.0,0.0,0.0,0.027704110369086266,0.017081720754504204,-0.9906802177429199,0.1322624832391739
6.058367967605591,1.4203035802365958,3.411600302915679,164.7732593865718,-0.03466796875,0.02392578125,0.91796875,-7.8125,1.5869140625,2.74658203125,0.0,0.0,0.0,0.02786140702664852,0.016222979873418808,-0.990620493888855,0.13278448581695557
6.073502779006958,1.4334123140794368,3.208042736402728,164.76140217817266,0.04443359375,-0.03271484375,1.01904296875,-0.3662109375,-0.79345703125,-0.3662109375,0.0,0.0,0.0,0.026084620505571365,0.016104407608509064,-0.9906586408615112,0.132874995470047
6.098944187164307,1.2855808736224446,3.0521801674205644,164.75293274360186,0.04736328125,-0.02587890625,1.115234375,9.27734375,3.7841796875,0.0,0.0,0.0,0.0,0.024907318875193596,0.014648363925516605,-0.9907076358795166,0.1329043209552765
6.118430137634277,1.0603922047297687,2.8828301092617408,164.71607704284045,-0.04052734375,0.05078125,1.03125,0.48828125,-1.77001953125,0.6103515625,0.0,0.0,0.0,0.023700132966041565,0.012513445690274239,-0.9907314777374268,0.13316528499126434
6.138428688049316,0.9640966759946381,2.758898674649387,164.718508590185,-0.033203125,0.00927734375,0.94482421875,-1.220703125,-3.173828125,-0.3662109375,0.0,0.0,0.0,0.02274070680141449,0.011536860838532448,-0.9907720685005188,0.13311882317066193
6.160297632217407,0.9428468902696706,2.5886284619433155,164.764789952001,0.00244140625,-0.02392578125,0.99365234375,4.2724609375,0.18310546875,-3.41796875,0.0,0.0,0.0,0.02129761315882206,0.011147309094667435,-0.9908638596534729,0.13270694017410278
6.178823232650757,0.7785887914979447,2.4427994408519007,164.86258460053725,0.0078125,0.03759765625,0.99560546875,2.86865234375,2.197265625,-5.2490234375,0.0,0.0,0.0,0.020234908908605576,0.009541240520775318,-0.9910204410552979,0.13182561099529266
6.197063207626343,0.5356029441448898,2.381403510732891,164.9262556239801,-0.08544921875,0.11181640625,0.93115234375,0.18310546875,-6.4697265625,-2.99072265625,0.0,0.0,0.0,0.01998749002814293,0.007358204107731581,-0.9911230206489563,0.13123071193695068
6.218357086181641,0.42002525777428446,2.297644047167378,164.94472445549582,-0.07470703125,0.12353515625,0.9619140625,-1.64794921875,-6.40869140625,-0.67138671875,0.0,0.0,0.0,0.019396372139453888,0.006259622983634472,-0.9911662340164185,0.1310500204563141
6.238688230514526,0.19882168409719367,2.1034954931229426,164.85192950543203,-0.06787109375,0.12255859375,1.1171875,4.94384765625,-16.11328125,9.58251953125,0.0,0.0,0.0,0.017966603860259056,0.004138992168009281,-0.9911026954650879,0.13181635737419128
6.259158372879028,-0.08472424779609675,1.7923329919914948,164.4455469101946,0.04638671875,0.10498046875,1.00341796875,4.638671875,-13.61083984375,25.93994140625,0.0,0.0,0.0,0.015596587210893631,0.0013840212486684322,-0.9906818866729736,0.13529378175735474
6.27339243888855,-0.2626371820492542,1.4767965017485942,163.73680550077904,0.1328125,0.16455078125,1.00634765625,0.18310546875,-10.009765625,40.95458984375,0.0,0.0,0.0,0.013081680983304977,-0.00044586442527361214,-0.989865243434906,0.1414058953523636
6.298243761062622,-0.4998113655118479,1.0608723456840794,162.74237093876022,0.15087890625,0.15283203125,1.015625,3.96728515625,-8.72802734375,55.2978515625,0.0,0.0,0.0,0.009807214140892029,-0.0029231610242277384,-0.9886353611946106,0.14998486638069153
6.3182971477508545,-0.7495564321005708,0.8794366413148887,161.49154473567745,0.212890625,0.1513671875,1.0771484375,8.60595703125,0.6103515625,66.5283203125,0.0,0.0,0.0,0.008626282215118408,-0.0052215964533388615,-0.9869423508644104,0.16075772047042847
6.334139347076416,-1.0194351888151987,0.5792778951014489,159.9912117222141,0.11767578125,0.19091796875,1.0107421875,1.89208984375,-9.70458984375,79.4677734375,0.0,0.0,0.0,0.006523517891764641,-0.007882589474320412,-0.9847506880760193,0.17367029190063477
6.358366012573242,-1.151552711869519,0.1748150632684798,158.3082257899663,0.169921875,0.16796875,0.94580078125,-2.5634765625,-12.63427734375,85.02197265625,0.0,0.0,0.0,0.003389124060049653,-0.009582461789250374,-0.9820889830589294,0.18814314901828766
6.378404378890991,-1.2758313121907803,-0.06021926995191656,156.6342966885579,0.318359375,0.09521484375,1.0693359375,6.16455078125,4.638671875,83.49609375,0.0,0.0,0.0,0.0017398751806467772,-0.011009255424141884,-0.979221522808075,0.20248739421367645
6.39337682723999,-1.417264572942763,-0.2520656767200876,154.9836038907059,0.1787109375,0.05029296875,0.90185546875,-2.74658203125,-5.67626953125,81.6650390625,0.0,0.0,0.0,0.0005312581197358668,-0.012550446204841137,-0.9761821031570435,0.21658876538276672
6.41831111907959,-1.1667328072998724,-0.6956404128963711,153.33894898008018,0.1328125,-0.0654296875,0.8681640625,-9.3994140625,-18.06640625,80.13916015625,0.0,0.0,0.0,-0.003559216158464551,-0.011306584812700748,-0.9729735851287842,0.2306121438741684
6.438182353973389,-0.7913804017920563,-0.9816050121583195,151.6298307440679,0.26171875,-0.14306640625,1.0029296875,-11.90185546875,-5.06591796875,84.04541015625,0.0,0.0,0.0,-0.006612333469092846,-0.008794319815933704,-0.9694360494613647,0.2450975775718689
6.4585301876068115,-0.5477948851742156,-1.2447037922655049,149.94244616999458,0.26123046875,-0.220703125,1.083984375,0.244140625,-6.16455078125,83.740234375,0.0,0.0,0.0,-0.009250730276107788,-0.007433109916746616,-0.9657142162322998,0.25933608412742615
6.473303556442261,-0.4027669705672489,-1.558042135534425,148.25110008620265,0.24560546875,-0.20751953125,1.0888671875,-1.5869140625,-3.11279296875,86.669921875,0.0,0.0,0.0,-0.012116160243749619,-0.007099355570971966,-0.9617554545402527,0.27354931831359863
6.498302221298218,-0.26425225498369775,-1.812637009959827,146.50447045126867,0.21044921875,-0.2119140625,1.02099609375,4.57763671875,-10.07080078125,90.33203125,0.0,0.0,0.0,-0.01448217686265707,-0.006765908095985651,-0.9574497938156128,0.288157194852829
6.5133957862854,-0.07339423128330175,-1.7849008924008747,144.58834284189163,0.216796875,-0.1787109375,0.87060546875,-1.28173828125,15.625,99.18212890625,0.0,0.0,0.0,-0.014642992056906223,-0.005347067955881357,-0.9525117874145508,0.30410251021385193
6.538304805755615,0.27191441989155624,-1.8992301482572487,142.56450314930348,0.109375,-0.22900390625,0.96533203125,-4.0283203125,-14.70947265625,102.23388671875,0.0,0.0,0.0,-0.016457943245768547,-0.003071325831115246,-0.9469907879829407,0.32082417607307434
6.553855657577515,0.6157645522042454,-2.2384884190961323,140.42431801439335,0.20654296875,-0.310546875,1.09912109375,-2.25830078125,-11.16943359375,107.60498046875,0.0,0.0,0.0,-0.0201983992010355,-0.0015573822893202305,-0.9407951235771179,0.33837002515792847
6.579037666320801,0.7084311694168365,-2.3546479522066583,138.1928678917935,0.2353515625,-0.28173828125,1.0283203125,10.55908203125,-0.6103515625,114.8681640625,0.0,0.0,0.0,-0.021399343386292458,-0.001556783216074109,-0.9340125322341919,0.35659533739089966
6.598149299621582,1.010839822631561,-2.7002476268030757,135.7587660565194,0.0771484375,-0.201171875,0.78076171875,-5.79833984375,-18.310546875,126.40380859375,0.0,0.0,0.0,-0.02514749765396118,-0.0007025140221230686,-0.9261782169342041,0.3762459456920624
6.618217706680298,1.334845320558454,-2.982085137619897,133.13320035843145,0.3037109375,-0.31982421875,1.1279296875,1.40380859375,-0.48828125,134.33837890625,0.0,0.0,0.0,-0.02850375883281231,0.00033683792571537197,-0.9172706604003906,0.3972432017326355
6.63832688331604,1.5332286986100032,-2.9555859246309515,130.3753338961204,0.30322265625,-0.26806640625,1.04345703125,5.06591796875,3.47900390625,140.19775390625,0.0,0.0,0.0,-0.029019523411989212,0.0013188740704208612,-0.9074488282203674,0.41915714740753174
6.658496141433716,1.7577390443407321,-3.0621827660166363,127.454867950428,0.23583984375,-0.298828125,1.0302734375,5.92041015625,-14.22119140625,146.97265625,0.0,0.0,0.0,-0.030743498355150223,0.0019234205828979611,-0.8964542746543884,0.4420643150806427
6.678102970123291,1.880165169293039,-3.377417767440704,124.43063777086478,0.3525390625,-0.3115234375,1.0361328125,10.92529296875,-0.244140625,154.78515625,0.0,0.0,0.0,-0.03371282294392586,0.0007736327825114131,-0.8844277858734131,0.4654572308063507
6.698629379272461,2.0779943415264652,-3.358376480695178,121.23173233346765,0.2734375,-0.1884765625,0.845703125,-2.99072265625,-7.01904296875,161.2548828125,0.0,0.0,0.0,-0.034422434866428375,0.001417734194546938,-0.8710930943489075,0.4899081587791443
6.718271970748901,2.524321590577411,-3.833896598588993,117.89301292376035,0.17822265625,-0.2822265625,0.86962890625,1.8310546875,-27.587890625,166.19873046875,0.0,0.0,0.0,-0.040005944669246674,0.0016087148105725646,-0.856378972530365,0.5147930979728699
6.739323854446411,2.84015081845927,-3.889318461061769,114.3779448598725,0.39697265625,-0.30615234375,1.0009765625,0.06103515625,11.5966796875,180.0537109375,0.0,0.0,0.0,-0.041932784020900726,0.0024344525299966335,-0.840175986289978,0.540684700012207
6.758847236633301,3.152096016580919,-4.0270867917155115,110.71331614372887,0.318359375,-0.3779296875,1.087890625,6.4697265625,-25.0244140625,182.4951171875,0.0,0.0,0.0,-0.04452076554298401,0.002647631336003542,-0.8224369287490845,0.5671052932739258
6.775414228439331,3.3674168763919248,-4.094619860247189,106.97086425218212,0.474609375,-0.33154296875,1.068359375,9.765625,2.01416015625,189.208984375,0.0,0.0,0.0,-0.04617168381810188,0.0023514365311712027,-0.8034703731536865,0.593546986579895
6.7935707569122314,3.6406970139523662,-4.241822816578835,103.11505171098068,0.28564453125,-0.26171875,0.86962890625,-2.99072265625,-23.4375,194.091796875,0.0,0.0,0.0,-0.04870771989226341,0.0018653267761692405,-0.7830321788787842,0.620068371295929
6.818626642227173,4.034204275717488,-4.54378163780369,99.13742957612122,0.36474609375,-0.27099609375,0.8544921875,1.220703125,-1.03759765625,200.8056640625,0.0,0.0,0.0,-0.0529649443924427,0.0010779048316180706,-0.7610195875167847,0.6465622186660767
6.839933633804321,4.420110390710031,-4.108847571175149,95.03807297968463,0.400390625,-0.3857421875,1.03759765625,11.16943359375,-11.04736328125,201.904296875,0.0,0.0,0.0,-0.052445583045482635,0.0042298343032598495,-0.7374131083488464,0.6733896136283875
6.859141826629639,4.65685926149466,-4.223811180850688,90.91423698526272,0.35546875,-0.427734375,1.06640625,11.77978515625,-24.7802734375,205.87158203125,0.0,0.0,0.0,-0.05472178757190704,0.0031088644172996283,-0.7127037048339844,0.6993207335472107
6.8758931159973145,4.803497019672486,-4.144531040720234,86.67882985074864,0.4658203125,-0.36279296875,1.0126953125,12.3291015625,-9.8876953125,210.5712890625,0.0,0.0,0.0,-0.055253900587558746,0.0024660888593643904,-0.6863695979118347,0.7251467704772949
6.899868965148926,5.075306959014083,-4.107091785671632,82.35572991748077,0.302734375,-0.2587890625,0.68994140625,1.64794921875,0.30517578125,221.0693359375,0.0,0.0,0.0,-0.05687330663204193,0.002188199432566762,-0.6585248112678528,0.750403642654419
6.919027328491211,5.474304412211425,-3.727212458847979,77.94329110986912,0.4287109375,-0.4873046875,1.0751953125,6.65283203125,-0.48828125,220.3369140625,0.0,0.0,0.0,-0.05753703415393829,0.004764079116284847,-0.6290932893753052,0.7751829028129578
6.940135955810547,5.53484891656171,-3.7893488241617006,73.54867909599122,0.5400390625,-0.4619140625,1.150390625,13.36669921875,-26.0009765625,215.75927734375,0.0,0.0,0.0,-0.058422770351171494,0.0024368823505938053,-0.5989184379577637,0.7986724376678467
6.958183765411377,5.4871904178543,-3.833432145725432,69.24256584318917,0.66015625,-0.32421875,1.0537109375,16.90673828125,-10.68115234375,210.75439453125,0.0,0.0,0.0,-0.058349478989839554,-0.00031254865461960435,-0.5684981942176819,0.8206126093864441
6.9781975746154785,5.6691065299820655,-3.2771245503287063,65.01081285988106,0.4677734375,-0.193359375,0.66455078125,1.953125,15.13671875,213.07373046875,0.0,0.0,0.0,-0.0570351667702198,0.0024783422704786062,-0.5376947522163391,0.8412046432495117
6.998161315917969,6.014613783581277,-3.2838676545868015,60.92086143393157,0.44873046875,-0.34912109375,0.95068359375,4.0283203125,-19.83642578125,197.021484375,0.0,0.0,0.0,-0.05970928072929382,0.0019205156713724136,-0.507332980632782,0.8596768975257874
7.013331174850464,6.046649932109575,-3.04189731762511,57.23917432033584,0.76708984375,-0.38037109375,1.1923828125,12.0849609375,11.962890625,179.74853515625,0.0,0.0,0.0,-0.05897798761725426,0.001987291034311056,-0.479385644197464,0.8756181597709656
7.03831934928894,5.997721018216542,-2.998762111695541,53.83304435861511,0.5185546875,-0.23193359375,0.93359375,10.31494140625,-19.6533203125,163.63525390625,0.0,0.0,0.0,-0.058461546897888184,0.0003754197678063065,-0.45313775539398193,0.8895214200019836
7.054669618606567,6.086214656650521,-2.7884644291322562,50.92040580971155,0.578125,-0.14501953125,0.89453125,-1.40380859375,10.009765625,135.986328125,0.0,0.0,0.0,-0.058362457901239395,0.0008770340355113149,-0.4303170442581177,0.9007887840270996
7.078839540481567,6.373778427312751,-2.6065833217239867,48.521732165662286,0.3935546875,-0.109375,0.7041015625,-12.3291015625,-13.916015625,110.90087890625,0.0,0.0,0.0,-0.06000135838985443,0.0021328325383365154,-0.41130298376083374,0.9095192551612854
7.093372106552124,6.486885933081338,-2.8739186333855784,46.65801601288134,0.69189453125,-0.22265625,1.1298828125,2.38037109375,-0.48828125,81.9091796875,0.0,0.0,0.0,-0.06185153126716614,-0.0005913667846471071,-0.3965545892715454,0.9159249663352966
7.118422508239746,6.497972610764739,-2.854807123757648,45.342391805142654,0.7451171875,-0.18408203125,1.1552734375,0.8544921875,-0.67138671875,56.7626953125,0.0,0.0,0.0,-0.061865776777267456,-0.0011103925062343478,-0.3860059678554535,0.9204187989234924
7.138255596160889,6.616907548555817,-3.0497701778606077,44.38528764203252,0.57470703125,-0.15380859375,0.99072265625,-2.50244140625,-10.986328125,39.36767578125,0.0,0.0,0.0,-0.06345194578170776,-0.0028075703885406256,-0.37838080525398254,0.9234684705734253
7.1583051681518555,6.590562655153432,-2.9834189454987534,43.79871441120641,0.60986328125,-0.173828125,1.01513671875,4.39453125,4.5166015625,23.74267578125,0.0,0.0,0.0,-0.06300926953554153,-0.0026817405596375465,-0.373622864484787,0.9254343509674072
7.180515289306641,6.693510254531626,-3.080878701322254,43.416643874319654,0.408203125,-0.0400390625,0.6904296875,-9.3994140625,5.06591796875,15.93017578125,0.0,0.0,0.0,-0.06414518505334854,-0.00334796286188066,-0.370575487613678,0.9265786409378052
7.199070453643799,6.933479986396738,-3.229897420756065,43.323452773284,0.4951171875,-0.08837890625,0.90673828125,-8.30078125,-15.31982421875,-3.173828125,0.0,0.0,0.0,-0.06656025350093842,-0.003832395887002349,-0.36988797783851624,0.9266812205314636
7.218251466751099,7.0230600517955715,-3.6361685985326475,43.69446181880992,0.7529296875,-0.11279296875,1.22802734375,-5.4931640625,7.14111328125,-27.83203125,0.0,0.0,0.0,-0.06860601902008057,-0.006610895041376352,-0.3730510473251343,0.925247311592102
7.239911317825317,6.850591371950403,-3.7322740559097816,44.644377207818614,0.69970703125,-0.07373046875,1.169921875,9.21630859375,7.26318359375,-57.0068359375,0.0,0.0,0.0,-0.06758684664964676,-0.007389600854367018,-0.3807346522808075,0.9221814274787903
7.2594358921051025,6.697696306719197,-3.791484965824622,46.08376102822335,0.56005859375,-0.01318359375,0.98193359375,4.150390625,5.67626953125,-81.1767578125,0.0,0.0,0.0,-0.06665119528770447,-0.007538297679275274,-0.3922998905181885,0.9173884987831116
7.278512001037598,6.537064771592484,-4.18447142566553,48.020939280622365,0.43701171875,0.02880859375,0.93994140625,2.13623046875,-6.4697265625,-106.3232421875,0.0,0.0,0.0,-0.06687866896390915,-0.010110585018992424,-0.4078722596168518,0.9105302691459656
7.29841423034668,6.158674426007893,-4.176335389703575,50.512749384193924,0.4736328125,-0.00634765625,1.10791015625,12.26806640625,32.65380859375,-128.41796875,0.0,0.0,0.0,-0.06407558917999268,-0.010001718997955322,-0.4275406002998352,0.901667058467865
7.3205718994140625,5.742581436204832,-3.841603186406883,53.35505064502469,0.0712890625,0.1103515625,0.82421875,1.52587890625,42.05322265625,-142.15087890625,0.0,0.0,0.0,-0.05976452678442001,-0.007435040548443794,-0.44965317845344543,0.8911706209182739
7.339323997497559,5.365586583645039,-3.338218458020355,56.32648004720913,-0.3017578125,0.0869140625,1.00634765625,7.6904296875,24.10888671875,-148.3154296875,0.0,0.0,0.0,-0.05497997626662254,-0.0035681123845279217,-0.4724698066711426,0.8796231746673584
7.358623266220093,4.933131875685213,-3.044529928663327,59.35046433996224,-0.3779296875,0.08837890625,1.13232421875,13.24462890625,22.27783203125,-148.74267578125,0.0,0.0,0.0,-0.050518687814474106,-0.0017607809277251363,-0.495443195104599,0.8671683073043823
7.378687381744385,4.392306398146202,-2.728011065118708,62.454887770570586,-0.345703125,0.13525390625,1.07080078125,13.73291015625,26.67236328125,-154.23583984375,0.0,0.0,0.0,-0.04509124904870987,-0.000479115144116804,-0.5186890959739685,0.8537729382514954
7.398116827011108,3.8389722829159587,-2.417141194904513,65.60535350637399,-0.4638671875,0.234375,1.04638671875,23.3154296875,10.009765625,-159.1796875,0.0,0.0,0.0,-0.03956785053014755,0.00042311547440476716,-0.5419168472290039,0.8395001292228699
7.418866395950317,3.32348744752793,-2.155300556986785,68.78675316892837,-0.45654296875,0.28173828125,0.958984375,13.427734375,16.66259765625,-156.8603515625,0.0,0.0,0.0,-0.03454430773854256,0.00086474564159289,-0.5649842023849487,0.8243778944015503
7.4395105838775635,2.804673748693166,-1.8345990563491799,72.0026043056563,-0.3935546875,0.291015625,0.962890625,14.16015625,15.2587890625,-160.7666015625,0.0,0.0,0.0,-0.0292036235332489,0.0014358124462887645,-0.5878692269325256,0.8084274530410767
7.458211660385132,2.4462548762416922,-1.6300945481408298,75.34886424420729,-0.37060546875,0.283203125,0.8671875,9.6435546875,13.18359375,-167.54150390625,0.0,0.0,0.0,-0.025585388764739037,0.0017884901026263833,-0.6112131476402283,0.791050374507904
7.478859901428223,2.0892351253530137,-1.4719352213285435,78.81739139909068,-0.36181640625,0.259765625,0.83447265625,7.01904296875,3.0517578125,-175.47607421875,0.0,0.0,0.0,-0.02223786897957325,0.0016503105871379375,-0.6348708271980286,0.7722964882850647
7.498724937438965,1.7482788054534415,-1.3370003519632987,82.34725365272078,-0.3876953125,0.26953125,1.0537109375,11.1083984375,10.68115234375,-177.001953125,0.0,0.0,0.0,-0.019162867218255997,0.0012618721229955554,-0.6583555936813354,0.7524620294570923
7.5163209438323975,1.245448923215271,-1.0941182914691165,85.87364617025251,-0.4970703125,0.2861328125,1.13623046875,17.76123046875,1.5869140625,-177.3681640625,0.0,0.0,0.0,-0.01445995643734932,0.00041350044193677604,-0.6811962127685547,0.7319579124450684
7.538104057312012,0.8440408934885901,-0.9723952491144978,89.4576308428658,-0.43701171875,0.306640625,0.9453125,10.3759765625,1.52587890625,-178.89404296875,0.0,0.0,0.0,-0.011204286478459835,-0.000845072849188,-0.7037520408630371,0.7103567719459534
7.55425763130188,0.5845377277317405,-0.9117266274203885,93.04646494978978,-0.41015625,0.2734375,0.9453125,4.69970703125,-0.732421875,-180.60302734375,0.0,0.0,0.0,-0.009283097460865974,-0.0017728330567479134,-0.7256489396095276,0.6880003213882446
7.579043626785278,0.25553431892096984,-0.7674227128654432,96.64893894448629,-0.35693359375,0.21142578125,0.96533203125,13.85498046875,6.103515625,-179.50439453125,0.0,0.0,0.0,-0.006484797690063715,-0.0027873190119862556,-0.7469135522842407,0.6648837924003601
7.5935118198394775,-0.09720900650566025,-0.641992158451977,100.23703539097991,-0.44091796875,0.27783203125,0.94873046875,4.57763671875,-4.39453125,-178.03955078125,0.0,0.0,0.0,-0.0037552043795585632,-0.004243230912834406,-0.7673570513725281,0.6411949992179871
7.618353605270386,-0.28236839794223095,-0.5840295189688092,103.66981333574746,-0.44580078125,0.22998046875,1.044921875,5.67626953125,-7.38525390625,-170.2880859375,0.0,0.0,0.0,-0.002484465716406703,-0.005086681805551052,-0.7862131595611572,0.6179295182228088
7.635729551315308,-0.651001551493194,-0.48091212535671685,106.90883247414007,-0.4169921875,0.201171875,1.0341796875,13.0615234375,-4.638671875,-157.28759765625,0.0,0.0,0.0,1.1273182281001937e-05,-0.007062962744385004,-0.8033491373062134,0.5954663753509521
7.658313512802124,-0.8290543912325243,-0.3239272175557025,109.88969778266289,-0.396484375,0.26611328125,0.9140625,-2.5634765625,0.79345703125,-143.49365234375,0.0,0.0,0.0,0.0018414459191262722,-0.007545948959887028,-0.8185631632804871,0.574364185333252
7.678560018539429,-0.951165633791923,-0.17756698917376024,112.53064506676168,-0.40625,0.19580078125,1.01904296875,5.615234375,-3.2958984375,-125.42724609375,0.0,0.0,0.0,0.0033209980465471745,-0.0077632637694478035,-0.8315814137458801,0.5553388595581055
7.698424816131592,-1.160544015581606,-0.05131623176061733,114.7758375299716,-0.40771484375,0.2216796875,1.02587890625,7.080078125,-2.99072265625,-105.5908203125,0.0,0.0,0.0,0.00508099514991045,-0.008772109635174274,-0.8422930836677551,0.5389245748519897
7.7216808795928955,-1.3518790652965254,0.12027252095027685,116.67159751524365,-0.384765625,0.26220703125,0.99169921875,4.69970703125,1.52587890625,-88.37890625,0.0,0.0,0.0,0.0070860362611711025,-0.009490040130913258,-0.8510860800743103,0.5248926281929016
7.733629941940308,-1.5048765833652804,0.234371137860244,118.27049015843028,-0.38525390625,0.2607421875,0.97021484375,4.0283203125,-2.44140625,-75.25634765625,0.0,0.0,0.0,0.0084924241527915,-0.01022319495677948,-0.8583186268806458,0.5129450559616089
7.759021282196045,-1.669316909449628,0.3415320835022632,119.63206104871564,-0.376953125,0.25390625,0.9638671875,5.79833984375,-4.57763671875,-64.63623046875,0.0,0.0,0.0,0.009899999015033245,-0.011093570850789547,-0.8643417954444885,0.5026849508285522
7.778521776199341,-1.7992212377694525,0.46555225721297466,120.80194951013377,-0.357421875,0.279296875,0.96875,1.953125,-4.57763671875,-54.99267578125,0.0,0.0,0.0,0.011286944150924683,-0.011645114049315453,-0.8694204688072205,0.4938066601753235
7.79835057258606,-1.8641026987992848,0.5330716653663126,121.75915954117603,-0.3544921875,0.29833984375,1.013671875,-2.5634765625,-3.23486328125,-43.51806640625,0.0,0.0,0.0,0.011979392729699612,-0.011946831829845905,-0.8735105991363525,0.48651108145713806
7.818408250808716,-1.958604769268758,0.5967322300820048,122.4745672152215,-0.3232421875,0.27001953125,1.048828125,1.03759765625,-4.21142578125,-31.494140625,0.0,0.0,0.0,0.012788183987140656,-0.012476928532123566,-0.8765228986740112,0.48102855682373047
7.83340048789978,-2.101493607365894,0.6736592633216834,122.89489705674409,-0.28857421875,0.26708984375,0.98681640625,3.5400390625,-4.94384765625,-14.404296875,0.0,0.0,0.0,0.013927649706602097,-0.013298040255904198,-0.878267765045166,0.4777813255786896
7.858259439468384,-2.284079718362556,0.6680038133280599,123.01154302738956,-0.25,0.3173828125,0.97119140625,0.9765625,-5.67626953125,-0.6103515625,0.0,0.0,0.0,0.014630580320954323,-0.014735911972820759,-0.8787310719490051,0.476865291595459
7.879087924957275,-2.381307247754276,0.6438396712616126,122.87514414966441,-0.2255859375,0.33984375,1.00341796875,-2.5634765625,-5.615234375,11.5966796875,0.0,0.0,0.0,0.014868445694446564,-0.015564396046102047,-0.8781490325927734,0.4779027998447418
7.89884614944458,-2.4477489801226326,0.6238267367457992,122.50386872676086,-0.19091796875,0.326171875,1.0205078125,-4.150390625,-5.55419921875,22.4609375,0.0,0.0,0.0,0.015044464729726315,-0.016108397394418716,-0.8765859603881836,0.480740487575531
7.921344995498657,-2.528932608597404,0.6115209770172576,121.97155110360674,-0.1474609375,0.31591796875,1.01708984375,-2.99072265625,-2.5634765625,28.25927734375,0.0,0.0,0.0,0.01536871213465929,-0.01670985110104084,-0.8743310570716858,0.4847988784313202
7.938344240188599,-2.607368366591715,0.6210646189176167,121.36041309743068,-0.1259765625,0.30126953125,0.9951171875,-2.50244140625,-0.48828125,30.70068359375,0.0,0.0,0.0,0.01586521975696087,-0.01718355529010296,-0.8717220425605774,0.48944219946861267
7.954461097717285,-2.769162954868035,0.62403238947284,120.78268837667433,-0.083984375,0.28515625,1.0087890625,0.6103515625,-0.6103515625,28.80859375,0.0,0.0,0.0,0.01667139306664467,-0.01831784099340439,-0.869218647480011,0.493807315826416
7.978165864944458,-2.890203085027358,0.6328026725322538,120.38205680071806,-0.072265625,0.29345703125,0.99755859375,-0.67138671875,-0.18310546875,25.45166015625,0.0,0.0,0.0,0.017326509580016136,-0.019137699156999588,-0.8674676418304443,0.496823251247406
7.995630741119385,-3.0779395855450327,0.6225261193174407,119.830136534646,-0.01611328125,0.28466796875,1.017578125,-0.9765625,1.220703125,19.1650390625,0.0,0.0,0.0,0.018161682412028313,-0.02051619254052639,-0.8650315403938293,0.5009686946868896
8.015478372573853,-3.260543412344854,0.5795180189394571,119.50685002085096,-0.0078125,0.27490234375,1.0107421875,0.30517578125,-2.74658203125,13.7939453125,0.0,0.0,0.0,0.018697597086429596,-0.022030053660273552,-0.8635774254798889,0.5033878087997437
8.040565967559814,-3.4022239472891327,0.5495218024563181,119.25461113480239,-0.02783203125,0.26123046875,1.00830078125,-0.3662109375,-1.708984375,11.5966796875,0.0,0.0,0.0,0.019145049154758453,-0.023187506943941116,-0.8624365329742432,0.5052712559700012
8.058286190032959,-3.5580011389066715,0.5656342187083782,119.01631949503899,-0.06103515625,0.24365234375,0.99365234375,-2.62451171875,0.67138671875,11.8408203125,0.0,0.0,0.0,0.020003605633974075,-0.024247270077466965,-0.86135333776474,0.5070328712463379
8.080655336380005,-3.6692621457218286,0.6234830394923301,118.78433895006867,-0.08544921875,0.2177734375,1.00048828125,-2.44140625,-1.64794921875,10.80322265625,0.0,0.0,0.0,0.020980847999453545,-0.024785062298178673,-0.8603072762489319,0.5087406039237976
8.098788022994995,-3.8177893049788105,0.6556375423923402,118.59234233249961,-0.07421875,0.19970703125,1.021484375,-0.3662109375,-0.79345703125,9.033203125,0.0,0.0,0.0,0.0219246968626976,-0.025720590725541115,-0.8594242930412292,0.5101447701454163
8.119945764541626,-3.9782227646195936,0.7144059841150109,118.44840292593076,-0.05712890625,0.18408203125,1.00341796875,-0.6103515625,-0.06103515625,6.103515625,0.0,0.0,0.0,0.023113006725907326,-0.026632994413375854,-0.858752429485321,0.5111758708953857
8.13902473449707,-4.153806864499934,0.7480494682540838,118.3661947690805,-0.0498046875,0.185546875,1.02783203125,0.9765625,-2.38037109375,3.47900390625,0.0,0.0,0.0,0.024168208241462708,-0.027781279757618904,-0.8583475947380066,0.5117455124855042
8.159031629562378,-4.321120885955859,0.7938475408254589,118.31010525561635,-0.060546875,0.1787109375,0.9921875,-0.6103515625,-1.28173828125,2.86865234375,0.0,0.0,0.0,0.025272421538829803,-0.028817465528845787,-0.858060896396637,0.5121155381202698
8.178260087966919,-4.488740131490319,0.8296793535415805,118.27293536615313,-0.0556640625,0.1796875,0.99267578125,-1.8310546875,0.0,2.01416015625,0.0,0.0,0.0,0.026299402117729187,-0.02990376576781273,-0.8578560948371887,0.5123447179794312
8.200525045394897,-4.581885982522722,0.9124017489311619,118.25099679853906,-0.06494140625,0.12255859375,0.99072265625,-1.89208984375,-2.685546875,0.732421875,0.0,0.0,0.0,0.027340678498148918,-0.03022562526166439,-0.857743501663208,0.5124598145484924
8.219425916671753,-4.722552447818665,1.0136225911098122,118.25292291188501,-0.05078125,0.1279296875,1.0322265625,0.67138671875,-1.64794921875,-1.0986328125,0.0,0.0,0.0,0.028726521879434586,-0.030825858935713768,-0.8577267527580261,0.5123763680458069
8.238540649414062,-4.87217670621108,1.1085502677419419,118.28446472547212,-0.05126953125,0.12451171875,0.994140625,-0.8544921875,-1.3427734375,-2.3193359375,0.0,0.0,0.0,0.03009701706469059,-0.03152909874916077,-0.8578382134437561,0.5120682120323181
8.258596181869507,-4.923581990565065,1.2539606195815762,118.3287243512938,-0.0634765625,0.09375,0.99169921875,-2.25830078125,-2.13623046875,-2.25830078125,0.0,0.0,0.0,0.03140261769294739,-0.03127535060048103,-0.8580383658409119,0.5116698145866394
8.278378009796143,-4.817138188105471,1.3981628817117646,118.37936337380027,-0.05712890625,0.06396484375,1.0009765625,-2.3193359375,-2.685546875,-2.3193359375,0.0,0.0,0.0,0.03199330344796181,-0.029847508296370506,-0.8583076596260071,0.5112666487693787
8.298619508743286,-4.610726456293101,1.4771793125072323,118.44038428384518,-0.0458984375,0.04443359375,1.0048828125,-1.953125,-2.44140625,-2.9296875,0.0,0.0,0.0,0.03164895623922348,-0.02796509489417076,-0.8586389422416687,0.510837972164154
8.318726539611816,-4.383057895123181,1.5203508038167672,118.50416459031474,-0.048828125,0.03466796875,1.013671875,-1.77001953125,-2.86865234375,-2.8076171875,0.0,0.0,0.0,0.030942771583795547,-0.02608354017138481,-0.8589801788330078,0.5104069709777832
8.338900566101074,-4.163950122304227,1.5610196711257274,118.5612103302627,-0.046875,0.0322265625,1.01318359375,-1.52587890625,-3.0517578125,-2.50244140625,0.0,0.0,0.0,0.03025939129292965,-0.024274658411741257,-0.8592849969863892,0.5100240707397461
8.358429670333862,-3.940655443524054,1.5913078248350316,118.61137123952727,-0.0419921875,0.02880859375,1.0068359375,-1.40380859375,-2.25830078125,-2.01416015625,0.0,0.0,0.0,0.029482664540410042,-0.022478075698018074,-0.8595553636550903,0.5096960663795471
8.37828540802002,-3.719670222456992,1.6174923155136274,118.6570105635613,-0.04296875,0.021484375,1.00732421875,-1.28173828125,-1.5869140625,-1.8310546875,0.0,0.0,0.0,0.028687747195363045,-0.02071518637239933,-0.8598011136054993,0.5094015598297119
8.399859428405762,-3.4993197820959185,1.6485628460480155,118.69564211350689,-0.0458984375,0.01708984375,1.00634765625,-1.220703125,-1.8310546875,-1.3427734375,0.0,0.0,0.0,0.027934793382883072,-0.018932903185486794,-0.8600119948387146,0.5091568231582642
8.418328046798706,-3.2822128278169544,1.6882450711870258,118.73035313486889,-0.04541015625,0.0146484375,1.00830078125,-0.79345703125,-1.77001953125,-1.28173828125,0.0,0.0,0.0,0.027262577787041664,-0.01713515818119049,-0.8602012395858765,0.5089370608329773
8.4384605884552,-3.068549142653323,1.7160729694129504,118.76242770321127,-0.03955078125,0.015625,1.00927734375,-0.42724609375,-1.46484375,-1.15966796875,0.0,0.0,0.0,0.026518074795603752,-0.015414881519973278,-0.8603743314743042,0.5087387561798096
8.45836067199707,-2.8550924975989074,1.7475999486829656,118.7885463465974,-0.04150390625,0.01611328125,1.00732421875,-0.8544921875,-1.708984375,-0.91552734375,0.0,0.0,0.0,0.025803864002227783,-0.01367790438234806,-0.8605174422264099,0.5085832476615906
8.478391647338867,-2.645449232535475,1.7953451054154703,118.8062228761694,-0.04443359375,0.01708984375,1.00830078125,-0.67138671875,-1.3427734375,-0.48828125,0.0,0.0,0.0,0.025229942053556442,-0.011895295232534409,-0.8606187701225281,0.5084853172302246
8.495382070541382,-2.448413429462828,1.8580152927015108,118.81791616002846,-0.0439453125,0.0185546875,1.005859375,-0.3662109375,-0.9765625,-0.06103515625,0.0,0.0,0.0,0.024825040251016617,-0.010139578953385353,-0.860688328742981,0.5084257125854492
8.518338918685913,-2.2200592880549688,1.8779622198422985,118.82907668913225,-0.03173828125,-0.0029296875,0.990234375,-2.86865234375,-0.54931640625,-0.3662109375,0.0,0.0,0.0,0.023960774764418602,-0.008338137529790401,-0.8607556223869324,0.5083860158920288
8.540432691574097,-1.8768410016013586,1.8379370978626122,118.82070287720983,-0.03564453125,-0.11865234375,0.98583984375,-5.4931640625,-5.67626953125,0.79345703125,0.0,0.0,0.0,0.022137852385640144,-0.0059361569583415985,-0.8607414364814758,0.5085261464118958
8.558967113494873,-1.5654929114235567,1.7988020349091431,118.77097910005213,-0.0673828125,-0.125,0.97802734375,-9.46044921875,0.18310546875,6.28662109375,0.0,0.0,0.0,0.020463841035962105,-0.003762424224987626,-0.8605359792709351,0.5089645385742188
8.57828688621521,-1.1346670968590724,1.678877680183765,118.6824735087871,-0.00341796875,-0.24560546875,0.9697265625,-9.765625,-5.4931640625,6.591796875,0.0,0.0,0.0,0.0176505409181118,-0.0010464524384588003,-0.8601590394973755,0.5097194910049438
8.598633766174316,-0.8561586095715448,1.4757590600466928,118.5621665567465,0.0029296875,-0.16552734375,1.107421875,-1.0986328125,-6.34765625,8.1787109375,0.0,0.0,0.0,0.01488699484616518,0.00015583654749207199,-0.8596375584602356,0.5106873512268066
8.618274450302124,-0.5144058789425785,1.405641832131223,118.3331639742543,-0.0439453125,-0.23193359375,0.95458984375,-8.056640625,-7.6904296875,12.14599609375,0.0,0.0,0.0,0.012833076529204845,0.002432658802717924,-0.858616054058075,0.5124528408050537
8.638774156570435,-0.13703516587523687,1.2819805101562016,118.04299021755548,-0.0380859375,-0.28564453125,0.96875,-9.09423828125,-4.57763671875,16.90673828125,0.0,0.0,0.0,0.01020690705627203,0.004732993897050619,-0.8573130965232849,0.5146725177764893
8.658522367477417,0.1475855403066587,1.1480635524207004,117.6753894364254,-0.0126953125,-0.3017578125,1.0625,-2.685546875,-6.9580078125,19.53125,0.0,0.0,0.0,0.007906515151262283,0.006286279764026403,-0.8556545376777649,0.5174488425254822
8.678508043289185,0.3296880018729322,1.0341883974224264,117.25195868901963,0.03125,-0.248046875,1.04736328125,0.3662109375,-4.39453125,20.20263671875,0.0,0.0,0.0,0.006207483354955912,0.0071548353880643845,-0.8537351489067078,0.5206213593482971
8.698405265808105,0.5312686555079879,0.9181449775277906,116.79564741094943,-0.00830078125,-0.22705078125,0.9560546875,-4.39453125,-1.708984375,26.0009765625,0.0,0.0,0.0,0.004394644405692816,0.00814705342054367,-0.8516510725021362,0.5240275263786316
8.718355417251587,0.7697502599076838,0.8460522241166002,116.24058525785917,0.009765625,-0.287109375,0.9970703125,-1.89208984375,-2.0751953125,30.70068359375,0.0,0.0,0.0,0.002721753204241395,0.009603110142052174,-0.8490902781486511,0.5281534790992737
8.738276720046997,0.9782887418728667,0.8143683105782333,115.59417615480916,0.02734375,-0.29443359375,1.01318359375,0.06103515625,-2.44140625,32.65380859375,0.0,0.0,0.0,0.0014637232525274158,0.01101073157042265,-0.846081554889679,0.5329378247261047
8.758454084396362,1.1060287539994436,0.7467741438699955,114.93511754141629,0.06982421875,-0.23583984375,1.0400390625,2.8076171875,-0.54931640625,32.8369140625,0.0,0.0,0.0,0.0003035737026948482,0.01164152566343546,-0.8429961204528809,0.5377935767173767
8.778447389602661,1.1854704707924504,0.6503435054553457,114.29061406114471,0.0556640625,-0.1708984375,0.97802734375,2.8076171875,-3.90625,32.8369140625,0.0,0.0,0.0,-0.0008449126034975052,0.011768901720643044,-0.8399588465690613,0.5425219535827637
8.798497200012207,1.3902764678196329,0.5270888465402045,113.61868737135553,0.06689453125,-0.14404296875,0.91552734375,-3.7841796875,-2.0751953125,34.48486328125,0.0,0.0,0.0,-0.0027924010064452887,0.012670542113482952,-0.8367526531219482,0.5474274158477783
8.818425178527832,1.6717392787274554,0.40490548678812405,112.89255630031315,0.01513671875,-0.1640625,0.97607421875,-4.638671875,-2.8076171875,37.109375,0.0,0.0,0.0,-0.0051187388598918915,0.014110028743743896,-0.833245575428009,0.5526993870735168
8.83839464187622,1.881288308524683,0.3419679616291011,112.12470643382031,0.0400390625,-0.16796875,1.05712890625,2.3193359375,1.03759765625,38.57421875,0.0,0.0,0.0,-0.0066896709613502026,0.015285739675164223,-0.8295028209686279,0.5582534074783325
8.85812759399414,1.9242709024149849,0.2902553454428916,111.34672056659917,0.029296875,-0.138671875,1.09423828125,8.056640625,-2.13623046875,39.9169921875,0.0,0.0,0.0,-0.007377436850219965,0.015295258723199368,-0.8256931304931641,0.5638638734817505
8.881272792816162,1.991939080626182,0.17544397428064987,110.53500722525652,0.041015625,-0.08154296875,0.95263671875,1.46484375,-1.8310546875,40.71044921875,0.0,0.0,0.0,-0.008645300753414631,0.015157102607190609,-0.8216807842254639,0.56968092918396
8.89832091331482,2.153293335144448,0.019081981065961963,109.69136274954406,0.044921875,-0.07763671875,0.93994140625,-2.8076171875,-1.52587890625,43.5791015625,0.0,0.0,0.0,-0.010682747699320316,0.015458580106496811,-0.8174580931663513,0.5756816267967224
8.91853380203247,2.3658780638626284,0.02772099309221119,108.73336041655807,-0.04833984375,-0.09814453125,1.01513671875,0.244140625,-8.1787109375,49.072265625,0.0,0.0,0.0,-0.011830946430563927,0.016920147463679314,-0.8125859498977661,0.5824755430221558
8.938279390335083,2.545081950559665,-0.0752026839486213,107.75238815739333,0.03759765625,-0.06787109375,0.97607421875,-0.3662109375,-3.11279296875,48.7060546875,0.0,0.0,0.0,-0.013622409664094448,0.017551764845848083,-0.8075542449951172,0.5893747806549072
8.958156824111938,2.606189518629653,-0.27664678049102304,106.73210815955517,0.02587890625,-0.052734375,1.05322265625,1.03759765625,-5.92041015625,51.6357421875,0.0,0.0,0.0,-0.01550652738660574,0.016808869317173958,-0.8022869825363159,0.5965003371238708
8.978787183761597,2.5657861749246775,-0.38920712407406954,105.64088298680808,0.03076171875,-0.0361328125,0.9931640625,-1.64794921875,2.0751953125,55.96923828125,0.0,0.0,0.0,-0.016235271468758583,0.015786081552505493,-0.7965872287750244,0.604099452495575
8.998623371124268,2.5116959858966426,-0.5012920758187126,104.51220788684181,0.05810546875,-0.04443359375,0.97265625,2.3193359375,4.39453125,58.41064453125,0.0,0.0,0.0,-0.016874341294169426,0.014653566293418407,-0.790615975856781,0.6119043231010437
9.018301963806152,2.427693196841948,-0.5955167232140071,103.36818535181052,0.00341796875,-0.009765625,0.9248046875,-6.103515625,-1.708984375,59.02099609375,0.0,0.0,0.0,-0.017210407182574272,0.013399559073150158,-0.7844858765602112,0.6197630167007446
9.038486003875732,2.4485621995206874,-0.6980315660752573,102.2436220257246,0.1533203125,-0.00927734375,1.08251953125,-1.220703125,1.3427734375,56.5185546875,0.0,0.0,0.0,-0.01815154030919075,0.012810304760932922,-0.7783716917037964,0.6274106502532959
9.058342695236206,2.413190784243307,-0.9659556613876452,101.12032228463514,0.06787109375,-0.03515625,1.05615234375,2.197265625,-7.568359375,55.84716796875,0.0,0.0,0.0,-0.0198852326720953,0.01090819388628006,-0.7722061276435852,0.6349671483039856
9.073607921600342,2.2417135490448477,-1.1511964748156205,100.0169940166788,0.13134765625,-0.0078125,1.04931640625,7.9345703125,0.3662109375,54.3212890625,0.0,0.0,0.0,-0.02026606723666191,0.008530991151928902,-0.7660807967185974,0.6423680782318115
9.098213911056519,2.0836307416956066,-1.230197324242044,98.90828355965647,0.06494140625,0.03173828125,0.958984375,2.25830078125,-4.08935546875,55.48095703125,0.0,0.0,0.0,-0.0199749618768692,0.006838137283921242,-0.7598434090614319,0.6497633457183838
9.11815071105957,1.929149578473078,-1.2441336849132205,97.75965747712459,0.0263671875,0.03125,1.015625,-2.01416015625,-4.39453125,57.373046875,0.0,0.0,0.0,-0.01924789696931839,0.005542074330151081,-0.7533009648323059,0.6573708653450012
9.135191440582275,1.8389880932211478,-1.3473869352567727,96.60250048831938,0.0419921875,0.0244140625,0.978515625,-4.150390625,-8.544921875,57.9833984375,0.0,0.0,0.0,-0.019452225416898727,0.004160575568675995,-0.7466304898262024,0.6649416089057922
9.158345699310303,1.7858668305599026,-1.5727529756244572,95.42634874343234,0.0634765625,-0.0302734375,0.99169921875,2.50244140625,-2.13623046875,58.9599609375,0.0,0.0,0.0,-0.02063649147748947,0.0022944794036448,-0.739770233631134,0.6725391149520874
9.175975561141968,1.6425762919622051,-1.703920355332205,94.28789964276379,0.123046875,-0.025390625,1.08056640625,11.65771484375,3.11279296875,56.7626953125,0.0,0.0,0.0,-0.020646901801228523,0.0003941491013392806,-0.7330535054206848,0.6798574328422546
9.198340892791748,1.4021128654861477,-1.8067423432626946,93.15448439151353,0.02880859375,0.04638671875,0.9384765625,2.25830078125,-2.74658203125,57.80029296875,0.0,0.0,0.0,-0.019859423860907555,-0.0019509471021592617,-0.726289689540863,0.6870990991592407
9.218184471130371,1.2557651769046347,-1.8340304431007763,91.96055366421697,0.00146484375,0.130859375,0.94677734375,-2.44140625,-5.7373046875,60.97412109375,0.0,0.0,0.0,-0.019122056663036346,-0.003241601400077343,-0.7190872430801392,0.6946492195129395
9.238551378250122,1.1669818957611662,-1.973939397729083,90.73337357604078,0.046875,0.10400390625,0.95849609375,-3.90625,-7.9345703125,61.34033203125,0.0,0.0,0.0,-0.01941063441336155,-0.004855302162468433,-0.7115984559059143,0.7023015022277832
9.25840139389038,1.0044369471714971,-2.0610330608266194,89.51826926231716,0.10107421875,0.125,1.08349609375,1.77001953125,-0.8544921875,59.75341796875,0.0,0.0,0.0,-0.018886175006628036,-0.006599268410354853,-0.7040989398956299,0.7098199725151062
9.278422355651855,0.8486591152237237,-2.171048198448484,88.32199578013528,0.033203125,0.15234375,0.96826171875,-3.11279296875,-5.18798828125,60.546875,0.0,0.0,0.0,-0.01850998029112816,-0.008431789465248585,-0.6966334581375122,0.717138946056366
9.298288583755493,0.7061363325774179,-2.270165128919359,87.15526969630288,0.07177734375,0.15185546875,1.0634765625,2.8076171875,-3.11279296875,58.77685546875,0.0,0.0,0.0,-0.018118496984243393,-0.010103664360940456,-0.6892768740653992,0.7242009043693542
9.315061092376709,0.5280331201929588,-2.3919766435680705,86.00665044396017,0.052734375,0.14013671875,1.0439453125,0.9765625,-8.30078125,57.55615234375,0.0,0.0,0.0,-0.017604807391762733,-0.012122011743485928,-0.6819553375244141,0.731081485748291
9.333596467971802,0.42843556852009734,-2.4491280380047407,84.88475772183973,0.1162109375,0.17236328125,0.99609375,-1.953125,4.94384765625,55.0537109375,0.0,0.0,0.0,-0.017180558294057846,-0.013248245231807232,-0.6747485399246216,0.7377286553382874
9.358249425888062,0.24620790905272896,-2.5765913207482263,83.80941956910209,0.06591796875,0.109375,1.03857421875,4.8828125,-6.28662109375,53.89404296875,0.0,0.0,0.0,-0.016614971682429314,-0.0152985118329525,-0.6677592992782593,0.7440346479415894
9.378353357315063,-0.0867054495525434,-2.611012272513917,82.78883221275127,0.1005859375,0.234375,1.00439453125,10.6201171875,2.8076171875,49.74365234375,0.0,0.0,0.0,-0.014497795142233372,-0.017591744661331177,-0.6610540151596069,0.7499920725822449
9.398249387741089,-0.25607587821695776,-2.564906788069038,81.82958678533635,0.060546875,0.2216796875,0.90771484375,-3.41796875,-1.708984375,46.0205078125,0.0,0.0,0.0,-0.012969901785254478,-0.018376262858510017,-0.6547324657440186,0.7555260062217712
9.418471574783325,-0.3437760407684504,-2.5924228454706695,80.92354853155581,0.0341796875,0.1884765625,1.0205078125,-5.18798828125,2.99072265625,46.630859375,0.0,0.0,0.0,-0.012397823855280876,-0.01915736310184002,-0.6487199664115906,0.76068514585495
9.438321828842163,-0.4483044287331058,-2.557616414903696,80.05174318589539,0.0673828125,0.15283203125,1.0859375,-0.3662109375,3.60107421875,42.66357421875,0.0,0.0,0.0,-0.011358034797012806,-0.019605062901973724,-0.6429014801979065,0.7656136751174927
9.46004605293274,-0.5606186187017673,-2.5513539852084404,79.22509905102709,0.0390625,0.14501953125,0.97900390625,-2.01416015625,-1.953125,39.6728515625,0.0,0.0,0.0,-0.010426543653011322,-0.020269086584448814,-0.637343168258667,0.7702429294586182
9.478718757629395,-0.6742817176706536,-2.515717473213899,78.44998869344653,0.0263671875,0.126953125,0.91259765625,-1.40380859375,0.8544921875,38.39111328125,0.0,0.0,0.0,-0.009324300102889538,-0.02072531171143055,-0.6321039199829102,0.7745502591133118
9.498253345489502,-0.8103465030958594,-2.455047677581026,77.68519192151268,-0.02734375,0.0986328125,1.00146484375,-0.1220703125,-1.89208984375,38.87939453125,0.0,0.0,0.0,-0.007929048500955105,-0.02111925557255745,-0.6269054412841797,0.7787687182426453
9.522140264511108,-1.0635030357315922,-2.352679577065225,76.91828462112531,-0.00146484375,0.10546875,1.13671875,7.26318359375,-0.67138671875,37.353515625,0.0,0.0,0.0,-0.0055022165179252625,-0.021845979616045952,-0.6216493248939514,0.7829716801643372
9.539187669754028,-1.2976849293270591,-2.3173352691011133,76.18626592701837,0.02001953125,0.1357421875,1.0732421875,3.90625,-0.54931640625,35.888671875,0.0,0.0,0.0,-0.003564066020771861,-0.022898171097040176,-0.6165956258773804,0.7869389653205872
9.558201789855957,-1.4311077655647924,-2.3144691509706465,75.4588781011687,-0.005859375,0.13818359375,0.94482421875,-1.953125,-2.0751953125,37.29248046875,0.0,0.0,0.0,-0.002482542535290122,-0.02361263893544674,-0.6115614771842957,0.7908406257629395
9.578133821487427,-1.533778635559895,-2.267289832722195,74.71716053844033,-0.01123046875,0.10546875,0.951171875,-1.64794921875,-1.89208984375,37.53662109375,0.0,0.0,0.0,-0.0013677052920684218,-0.023844456300139427,-0.6064178347587585,0.7947873473167419
9.59829306602478,-1.6613072319873188,-2.2141121142785916,73.97234206982877,-0.015625,0.0908203125,0.966796875,-1.03759765625,-1.77001953125,37.65869140625,0.0,0.0,0.0,-4.459272895473987e-05,-0.02415144443511963,-0.6012229919433594,0.7987163066864014
9.618431568145752,-1.8077493692784483,-2.1945248392862875,73.25409303708858,0.00244140625,0.09033203125,0.9931640625,0.3662109375,-3.173828125,35.94970703125,0.0,0.0,0.0,0.001234286231920123,-0.024776047095656395,-0.5961777567863464,0.8024691939353943
9.638318538665771,-1.9073015108654998,-2.160505588021158,72.5527145715983,-0.00537109375,0.09912109375,1.001953125,-3.35693359375,-2.01416015625,35.64453125,0.0,0.0,0.0,0.0022618912626057863,-0.025042470544576645,-0.5912404656410217,0.8061034083366394
9.658147096633911,-2.023385271564921,-2.0906634886631927,71.84197191675595,0.00244140625,0.09619140625,1.0615234375,-1.15966796875,0.79345703125,36.31591796875,0.0,0.0,0.0,0.0035950792953372,-0.02512851357460022,-0.586219072341919,0.8097549080848694
9.678229093551636,-2.194808719023666,-2.0557486288431455,71.14108522488593,0.0078125,0.09326171875,1.052734375,1.77001953125,-1.46484375,35.33935546875,0.0,0.0,0.0,0.005142662208527327,-0.02572786808013916,-0.5812250971794128,0.8133199214935303
9.698231220245361,-2.301951548656129,-2.026446903860379,70.45439849630034,-0.0234375,0.09912109375,0.95654296875,-1.5869140625,-3.7841796875,34.72900390625,0.0,0.0,0.0,0.006207951344549656,-0.026026705279946327,-0.5763234496116638,0.816783607006073
9.718315839767456,-2.3787747416760823,-1.9572489767185104,69.77406384364289,-0.00634765625,0.078125,0.982421875,-2.99072265625,-1.46484375,34.66796875,0.0,0.0,0.0,0.007257665041834116,-0.025877466425299644,-0.5714627504348755,0.8201878666877747
9.734476566314697,-2.4178184508494023,-1.8219815625180507,69.10234888971799,-0.00244140625,0.041015625,1.04541015625,0.67138671875,-3.23486328125,33.935546875,0.0,0.0,0.0,0.008359391242265701,-0.0250558964908123,-0.5666678547859192,0.8235229849815369
9.7583167552948,-2.3777764668402024,-1.7127162516010064,68.42525174672711,0.00146484375,0.04638671875,1.0166015625,-0.54931640625,-4.150390625,34.423828125,0.0,0.0,0.0,0.008754564449191093,-0.024021673947572708,-0.5618253350257874,0.8268607258796692
9.779478549957275,-2.2988943986723136,-1.5740048212332736,67.72158516786489,0.0029296875,0.0341796875,0.97509765625,-3.72314453125,-1.03759765625,36.4990234375,0.0,0.0,0.0,0.009004887193441391,-0.022579532116651535,-0.5567835569381714,0.8303018808364868
9.798840522766113,-2.08734038818857,-1.5455506800378236,67.01694870214052,0.029296875,0.00146484375,1.0419921875,-0.42724609375,-0.79345703125,34.85107421875,0.0,0.0,0.0,0.0077414847910404205,-0.021298279985785484,-0.5517137050628662,0.83372563123703
9.81933069229126,-1.975275340042055,-1.6704399419595664,66.3506364278491,0.04833984375,0.00390625,1.0478515625,5.615234375,-1.220703125,32.3486328125,0.0,0.0,0.0,0.0064502740278840065,-0.02162994258105755,-0.5468530058860779,0.8369243741035461
9.838212728500366,-1.8532862404749233,-1.6982362505605795,65.72213608080287,0.025390625,0.029296875,0.94970703125,0.91552734375,-1.46484375,31.8603515625,0.0,0.0,0.0,0.005543042439967394,-0.02122063934803009,-0.5422719120979309,0.8399168848991394
9.858365297317505,-1.8781647776398716,-1.9099208884121996,65.10584811199261,0.04736328125,0.03173828125,0.98193359375,-1.220703125,-0.9765625,30.8837890625,0.0,0.0,0.0,0.00484593166038394,-0.02286369353532791,-0.5377011895179749,0.8428114056587219
9.875826835632324,-1.6694768852865944,-2.0026302476679563,64.48264116155315,0.03662109375,0.013671875,1.0615234375,-0.9765625,2.9296875,30.70068359375,0.0,0.0,0.0,0.0029983383137732744,-0.022550106048583984,-0.5331329703330994,0.8457255363464355
9.898625612258911,-1.5438995885276787,-1.9052492524633224,63.85984402246387,0.0048828125,0.01318359375,1.0185546875,1.220703125,-0.1220703125,31.67724609375,0.0,0.0,0.0,0.0026403930969536304,-0.02123330906033516,-0.5285704135894775,0.8486197590827942
9.918478012084961,-1.5011603201265586,-1.7369206277505334,63.23373424162714,-0.00341796875,0.02587890625,0.97998046875,0.06103515625,0.91552734375,32.40966796875,0.0,0.0,0.0,0.003208956215530634,-0.019772665575146675,-0.5239623188972473,0.8515059351921082
9.939581632614136,-1.4534636150484788,-1.5421683490164921,62.59078121429716,-0.01220703125,0.02392578125,1.0166015625,-1.40380859375,2.0751953125,33.26416015625,0.0,0.0,0.0,0.0038471289444714785,-0.018086424097418785,-0.5192157030105591,0.8544431924819946
9.958662033081055,-1.392516876589103,-1.414292266715044,61.93518550681348,-0.00146484375,0.00634765625,1.0234375,0.67138671875,-2.8076171875,32.470703125,0.0,0.0,0.0,0.004068788606673479,-0.016833946108818054,-0.5143473744392395,0.8574070930480957
9.978322982788086,-1.1997116286553384,-1.4169631908456364,61.279132176655416,0.0263671875,0.00634765625,0.96142578125,0.91552734375,0.79345703125,32.28759765625,0.0,0.0,0.0,0.0027056573890149593,-0.01597326435148716,-0.5094574093818665,0.8603434562683105
9.998957872390747,-1.0615115019800045,-1.364523666440923,60.625653827814446,-0.0048828125,-0.00537109375,0.951171875,1.28173828125,-0.48828125,33.38623046875,0.0,0.0,0.0,0.0019866081420332193,-0.014954089187085629,-0.5045682191848755,0.8632400631904602
10.019153356552124,-1.018278218802822,-1.2669856836070847,59.95784574209479,-0.0283203125,0.00927734375,0.9970703125,2.197265625,-5.126953125,34.11865234375,0.0,0.0,0.0,0.0021722831297665834,-0.014016615226864815,-0.49954602122306824,0.8661713004112244
10.038491010665894,-1.0738173684302519,-1.163175559402765,59.26820154159861,0.017578125,0.0361328125,1.06298828125,-0.8544921875,-0.8544921875,33.8134765625,0.0,0.0,0.0,0.0031258265953511,-0.013455572538077831,-0.49432942271232605,0.8691649436950684
10.058797836303711,-1.20985894188445,-1.3304394216569726,58.593194436493754,0.04638671875,0.03076171875,1.08935546875,1.28173828125,0.30517578125,33.02001953125,0.0,0.0,0.0,0.00352601264603436,-0.01529042236506939,-0.48916351795196533,0.872050940990448
10.078474998474121,-1.3041564268439405,-1.5245757027052433,57.94173782364711,0.04345703125,0.03759765625,0.978515625,0.732421875,-0.732421875,32.04345703125,0.0,0.0,0.0,0.0035120868124067783,-0.017150405794382095,-0.48415815830230713,0.8748053908348083
10.098382949829102,-1.4290405661238057,-1.5837831975254988,57.297691966049925,0.02001953125,0.04931640625,0.90966796875,-5.0048828125,0.8544921875,32.28759765625,0.0,0.0,0.0,0.004316996317356825,-0.018105974420905113,-0.479205846786499,0.8775051236152649
10.118563175201416,-1.4028494586994513,-1.4698228786060112,56.63813816394223,0.01904296875,0.013671875,0.9873046875,-1.40380859375,0.42724609375,32.65380859375,0.0,0.0,0.0,0.00469178007915616,-0.01709720306098461,-0.4741683900356293,0.8802557587623596
10.138348817825317,-1.2129039255938066,-1.3235424246991407,55.95366441664774,0.0078125,0.00537109375,0.98828125,-0.244140625,-0.8544921875,32.71484375,0.0,0.0,0.0,0.0039289542473852634,-0.015164470300078392,-0.46894896030426025,0.8830864429473877
10.158239126205444,-1.096466809326543,-1.1437061051736437,55.268336895707,-0.0048828125,0.0224609375,0.9697265625,-3.47900390625,-0.91552734375,33.99658203125,0.0,0.0,0.0,0.0038474102038890123,-0.013279441744089127,-0.4636954963207245,0.8858867883682251
10.175540924072266,-1.075884354427827,-1.0220620368813034,54.57157905319025,-0.029296875,0.03515625,1.03857421875,-2.99072265625,-0.9765625,35.64453125,0.0,0.0,0.0,0.0042551434598863125,-0.012230184860527515,-0.45831626653671265,0.8886948227882385
10.198752880096436,-1.1244094333861825,-0.8772069580768498,53.85399596389412,-0.01171875,0.03125,1.10205078125,-0.67138671875,-0.42724609375,37.29248046875,0.0,0.0,0.0,0.005281679332256317,-0.011268106289207935,-0.45275285840034485,0.8915492296218872
10.219605207443237,-1.195147141299066,-0.8498993815274628,53.144113912887185,-0.01513671875,0.04150390625,1.001953125,-3.35693359375,-6.04248046875,37.17041015625,0.0,0.0,0.0,0.006010064389556646,-0.011298133991658688,-0.4472171664237976,0.8943338394165039
10.238260984420776,-1.2992813793238438,-0.8411313396238705,52.42271616293961,0.00537109375,0.04248046875,0.94287109375,-1.64794921875,-3.23486328125,37.17041015625,0.0,0.0,0.0,0.006930128671228886,-0.011592711322009563,-0.4415687322616577,0.897125780582428
10.258429288864136,-1.4685764758041897,-0.8307266136404139,51.68989492160519,0.0146484375,0.03173828125,1.0224609375,0.6103515625,-3.173828125,36.92626953125,0.0,0.0,0.0,0.008373238146305084,-0.012110315263271332,-0.43580639362335205,0.8999199867248535
10.273263692855835,-1.6118301954133927,-0.7466840173894631,50.95824505771342,0.0048828125,0.0419921875,1.04736328125,-0.30517578125,-5.67626953125,36.56005859375,0.0,0.0,0.0,0.009894376620650291,-0.011932244524359703,-0.4300477206707001,0.9026731848716736
10.298386812210083,-1.7579858916462048,-0.7520879776834125,50.20097515424494,0.0078125,0.04296875,0.99755859375,-1.220703125,-5.126953125,38.39111328125,0.0,0.0,0.0,0.011107911355793476,-0.012450171634554863,-0.42405688762664795,0.9054818153381348
10.318464517593384,-1.6989660135847129,-0.8512691012603149,49.4355636652858,0.03515625,0.0126953125,1.04443359375,5.0048828125,-2.9296875,36.9873046875,0.0,0.0,0.0,0.010361060500144958,-0.012946482747793198,-0.4179914593696594,0.9082996845245361
10.338404178619385,-1.764842761242663,-1.1212468423570552,48.721293217737134,0.03857421875,0.033203125,0.99951171875,5.615234375,-2.62451171875,35.58349609375,0.0,0.0,0.0,0.009993275627493858,-0.015264459885656834,-0.4122729003429413,0.9108777046203613
10.354710817337036,-1.9054050661537634,-1.3329448204218979,48.0478775467089,0.03076171875,0.0654296875,0.9462890625,-4.21142578125,-1.46484375,34.72900390625,0.0,0.0,0.0,0.010450798086822033,-0.01739151030778885,-0.40685781836509705,0.913266122341156
10.378320693969727,-2.025342974535776,-1.4767055748552684,47.36571923354304,0.03955078125,0.052734375,1.00927734375,-2.44140625,1.40380859375,34.66796875,0.0,0.0,0.0,0.01100847776979208,-0.018897641450166702,-0.4013691842556,0.915655255317688
10.398269891738892,-1.9206844127704934,-1.4534055584405337,46.66226439054509,0.02294921875,0.02783203125,1.05615234375,3.41796875,-0.42724609375,34.5458984375,0.0,0.0,0.0,0.010366305708885193,-0.018281616270542145,-0.3957618176937103,0.9181126952171326
10.418555736541748,-1.881931413523722,-1.285435625380876,45.96369654789828,-0.01220703125,0.037109375,0.9853515625,0.732421875,-4.21142578125,34.5458984375,0.0,0.0,0.0,0.010738716460764408,-0.01673705503344536,-0.3901926577091217,0.9205185770988464
10.43850827217102,-1.9934310500730068,-1.2461450689020834,45.28687602756879,0.03125,0.05322265625,0.994140625,-3.47900390625,2.50244140625,34.11865234375,0.0,0.0,0.0,0.011867324821650982,-0.016731346026062965,-0.38473954796791077,0.9227972030639648
10.458258152008057,-1.9675397239201924,-1.4391762466869873,44.618620564458496,0.0341796875,0.0244140625,1.0205078125,0.3662109375,1.8310546875,33.935546875,0.0,0.0,0.0,0.011116061359643936,-0.0181341003626585,-0.3793210983276367,0.9250206351280212
10.47868299484253,-1.8286226408254187,-1.4120767241030212,43.959387781241794,0.01220703125,0.02783203125,0.994140625,1.15966796875,-0.8544921875,33.14208984375,0.0,0.0,0.0,0.010184717364609241,-0.017397219315171242,-0.3740195631980896,0.9272016882896423
10.498941659927368,-1.7957903483719906,-1.2857990127890617,43.30841269673163,0.0087890625,0.03125,0.98681640625,0.8544921875,-3.662109375,31.73828125,0.0,0.0,0.0,0.010423868894577026,-0.01620948687195778,-0.368772029876709,0.9293201565742493
10.518664836883545,-1.7442723658967,-1.1934318033220406,42.6558598385232,0.00244140625,0.02001953125,0.97021484375,-0.42724609375,-4.7607421875,32.40966796875,0.0,0.0,0.0,0.010390502400696278,-0.01523577980697155,-0.3634958267211914,0.9314132928848267
