time,orientation.x,orientation.y,orientation.z,orientation.w,orientation_covariance,angular_velocity.x,angular_velocity.y,angular_velocity.z,angular_velocity_covariance,linear_acceleration.x,linear_acceleration.y,linear_acceleration.z,linear_acceleration_covariance
0.9533240795135498,0.02273816615343094,0.0005086910095997155,-0.9167283177375793,0.39886337518692017,[0. 0. 0. 0. 0. 0. 0. 0. 0.],-0.1220703125,-0.67138671875,-0.1220703125,[0. 0. 0. 0. 0. 0. 0. 0. 0.],-0.0419921875,0.01708984375,1.00341796875,[0. 0. 0. 0. 0. 0. 0. 0. 0.]
0.9784836769104004,0.021851005032658577,0.00021234346786513925,-0.9167549014091492,0.39885225892066956,[0. 0. 0. 0. 0. 0. 0. 0. 0.],0.3662109375,-0.91552734375,-0.18310546875,[0. 0. 0. 0. 0. 0. 0. 0. 0.],-0.04052734375,0.017578125,1.005859375,[0. 0. 0. 0. 0. 0. 0. 0. 0.]
0.9981968402862549,0.021336568519473076,-0.0004870991106145084,-0.9167649745941162,0.398856520652771,[0. 0. 0. 0. 0. 0. 0. 0. 0.],0.0,-0.79345703125,-0.30517578125,[0. 0. 0. 0. 0. 0. 0. 0. 0.],-0.0390625,0.01806640625,1.00390625,[0. 0. 0. 0. 0. 0. 0. 0. 0.]
1.0245857238769531,0.02168278954923153,-0.0003632586158346385,-0.916772186756134,0.3988213837146759,[0. 0. 0. 0. 0. 0. 0. 0. 0.],-0.30517578125,-0.8544921875,-0.1220703125,[0. 0. 0. 0. 0. 0. 0. 0. 0.],-0.0400390625,0.01806640625,1.00390625,[0. 0. 0. 0. 0. 0. 0. 0. 0.]
1.0383434295654297,0.021955866366624832,6.394862430170178e-05,-0.9167774319648743,0.3987947404384613,[0. 0. 0. 0. 0. 0. 0. 0. 0.],-0.244140625,-0.48828125,0.0,[0. 0. 0. 0. 0. 0. 0. 0. 0.],-0.04052734375,0.01708984375,1.00390625,[0. 0. 0. 0. 0. 0. 0. 0. 0.]
1.058314323425293,0.021982824429869652,-0.0007806564681231976,-0.9167782068252563,0.398790568113327,[0. 0. 0. 0. 0. 0. 0. 0. 0.],0.06103515625,-0.244140625,0.0,[0. 0. 0. 0. 0. 0. 0. 0. 0.],-0.03955078125,0.0185546875,1.0048828125,[0. 0. 0. 0. 0. 0. 0. 0. 0.]
1.0783464908599854,0.020830679684877396,0.0006143457139842212,-0.9168251156806946,0.39874500036239624,[0. 0. 0. 0. 0. 0. 0. 0. 0.],-0.06103515625,-0.79345703125,-0.18310546875,[0. 0. 0. 0. 0. 0. 0. 0. 0.],-0.0390625,0.0146484375,1.00341796875,[0. 0. 0. 0. 0. 0. 0. 0. 0.]
1.1032562255859375,0.021972928196191788,0.00020633266831282526,-0.9168072938919067,0.39872482419013977,[0. 0. 0. 0. 0. 0. 0. 0. 0.],-0.244140625,-1.03759765625,-0.244140625,[0. 0. 0. 0. 0. 0. 0. 0. 0.],-0.04052734375,0.01708984375,1.00341796875,[0. 0. 0. 0. 0. 0. 0. 0. 0.]
1.1286258697509766,0.021488282829523087,-0.0006549673853442073,-0.916824996471405,0.39871034026145935,[0. 0. 0. 0. 0. 0. 0. 0. 0.],0.30517578125,-0.79345703125,-0.30517578125,[0. 0. 0. 0. 0. 0. 0. 0. 0.],-0.0390625,0.01806640625,1.00341796875,[0. 0. 0. 0. 0. 0. 0. 0. 0.]
1.1434917449951172,0.022190002724528313,0.00013941836368758231,-0.916823148727417,0.3986765444278717,[0. 0. 0. 0. 0. 0. 0. 0. 0.],-0.30517578125,-1.15966796875,-0.1220703125,[0. 0. 0. 0. 0. 0. 0. 0. 0.],-0.041015625,0.017578125,1.0029296875,[0. 0. 0. 0. 0. 0. 0. 0. 0.]
1.1614291667938232,0.022032735869288445,9.735637286212295e-05,-0.9168304800987244,0.39866846799850464,[0. 0. 0. 0. 0. 0. 0. 0. 0.],-0.18310546875,-0.48828125,-0.06103515625,[0. 0. 0. 0. 0. 0. 0. 0. 0.],-0.04052734375,0.01806640625,1.00341796875,[0. 0. 0. 0. 0. 0. 0. 0. 0.]
1.173577070236206,0.02141476795077324,0.00015308370348066092,-0.9168530702590942,0.3986501097679138,[0. 0. 0. 0. 0. 0. 0. 0. 0.],0.244140625,-0.91552734375,-0.1220703125,[0. 0. 0. 0. 0. 0. 0. 0. 0.],-0.03955078125,0.01708984375,1.00439453125,[0. 0. 0. 0. 0. 0. 0. 0. 0.]
1.1982202529907227,0.02141762152314186,0.0002810933510772884,-0.9168667197227478,0.3986184000968933,[0. 0. 0. 0. 0. 0. 0. 0. 0.],0.244140625,-0.732421875,-0.18310546875,[0. 0. 0. 0. 0. 0. 0. 0. 0.],-0.03955078125,0.0166015625,1.00634765625,[0. 0. 0. 0. 0. 0. 0. 0. 0.]
1.2182679176330566,0.021885564550757408,-6.021919762133621e-05,-0.916864275932312,0.39859896898269653,[0. 0. 0. 0. 0. 0. 0. 0. 0.],-0.30517578125,-0.42724609375,-0.1220703125,[0. 0. 0. 0. 0. 0. 0. 0. 0.],-0.04052734375,0.017578125,1.00439453125,[0. 0. 0. 0. 0. 0. 0. 0. 0.]
1.2387480735778809,0.02093936875462532,-0.0005275183939374983,-0.9168884754180908,0.3985937833786011,[0. 0. 0. 0. 0. 0. 0. 0. 0.],-0.42724609375,-0.54931640625,-0.1220703125,[0. 0. 0. 0. 0. 0. 0. 0. 0.],-0.03857421875,0.017578125,1.00341796875,[0. 0. 0. 0. 0. 0. 0. 0. 0.]
1.255821943283081,0.02048153057694435,4.883917063125409e-05,-0.9169135689735413,0.398560106754303,[0. 0. 0. 0. 0. 0. 0. 0. 0.],0.30517578125,-0.48828125,0.0,[0. 0. 0. 0. 0. 0. 0. 0. 0.],-0.0380859375,0.01611328125,1.00390625,[0. 0. 0. 0. 0. 0. 0. 0. 0.]
1.2786662578582764,0.021322958171367645,0.0003635241009760648,-0.9169082641601562,0.39852795004844666,[0. 0. 0. 0. 0. 0. 0. 0. 0.],0.18310546875,-0.8544921875,0.0,[0. 0. 0. 0. 0. 0. 0. 0. 0.],-0.03955078125,0.0166015625,1.005859375,[0. 0. 0. 0. 0. 0. 0. 0. 0.]
1.2931632995605469,0.02204657718539238,0.00018800821271725,-0.9169011116027832,0.39850500226020813,[0. 0. 0. 0. 0. 0. 0. 0. 0.],-0.244140625,-1.0986328125,-0.244140625,[0. 0. 0. 0. 0. 0. 0. 0. 0.],-0.04052734375,0.01708984375,1.00439453125,[0. 0. 0. 0. 0. 0. 0. 0. 0.]
1.3188107013702393,0.021150751039385796,0.00044125260319560766,-0.9169299006462097,0.3984871804714203,[0. 0. 0. 0. 0. 0. 0. 0. 0.],-0.244140625,-0.54931640625,-0.1220703125,[0. 0. 0. 0. 0. 0. 0. 0. 0.],-0.03955078125,0.01611328125,1.00390625,[0. 0. 0. 0. 0. 0. 0. 0. 0.]
1.3386116027832031,0.021451832726597786,0.00024231952556874603,-0.9169325232505798,0.39846521615982056,[0. 0. 0. 0. 0. 0. 0. 0. 0.],-0.06103515625,0.0,-0.1220703125,[0. 0. 0. 0. 0. 0. 0. 0. 0.],-0.0400390625,0.017578125,1.00341796875,[0. 0. 0. 0. 0. 0. 0. 0. 0.]
1.3532617092132568,0.02162901684641838,0.0008085541194304824,-0.9169443249702454,0.39842793345451355,[0. 0. 0. 0. 0. 0. 0. 0. 0.],0.06103515625,-0.6103515625,-0.1220703125,[0. 0. 0. 0. 0. 0. 0. 0. 0.],-0.04052734375,0.01611328125,1.00244140625,[0. 0. 0. 0. 0. 0. 0. 0. 0.]
1.3793764114379883,0.021080855280160904,0.00023336375306826085,-0.9169610142707825,0.39841940999031067,[0. 0. 0. 0. 0. 0. 0. 0. 0.],-0.1220703125,-1.15966796875,-0.244140625,[0. 0. 0. 0. 0. 0. 0. 0. 0.],-0.03955078125,0.0166015625,1.0048828125,[0. 0. 0. 0. 0. 0. 0. 0. 0.]
1.3939099311828613,0.022633882239460945,-0.0004770183004438877,-0.9169324636459351,0.3983999192714691,[0. 0. 0. 0. 0. 0. 0. 0. 0.],-0.1220703125,-0.732421875,-0.1220703125,[0. 0. 0. 0. 0. 0. 0. 0. 0.],-0.041015625,0.0185546875,1.00244140625,[0. 0. 0. 0. 0. 0. 0. 0. 0.]
1.4181060791015625,0.022159362211823463,-0.0006479710573330522,-0.9169446229934692,0.39839816093444824,[0. 0. 0. 0. 0. 0. 0. 0. 0.],0.0,-0.18310546875,-0.06103515625,[0. 0. 0. 0. 0. 0. 0. 0. 0.],-0.04052734375,0.0185546875,1.001953125,[0. 0. 0. 0. 0. 0. 0. 0. 0.]
1.4333999156951904,0.02141188085079193,-0.00015668649575673044,-0.9169707298278809,0.3983795642852783,[0. 0. 0. 0. 0. 0. 0. 0. 0.],-0.54931640625,-0.42724609375,0.06103515625,[0. 0. 0. 0. 0. 0. 0. 0. 0.],-0.03955078125,0.017578125,1.00439453125,[0. 0. 0. 0. 0. 0. 0. 0. 0.]
1.4594836235046387,0.021579181775450706,0.0001766939676599577,-0.9169790744781494,0.39835137128829956,[0. 0. 0. 0. 0. 0. 0. 0. 0.],0.0,-1.03759765625,-0.1220703125,[0. 0. 0. 0. 0. 0. 0. 0. 0.],-0.0400390625,0.0166015625,1.0048828125,[0. 0. 0. 0. 0. 0. 0. 0. 0.]
1.4829199314117432,0.021411893889307976,-0.00016628630692139268,-0.9169872999191284,0.39834126830101013,[0. 0. 0. 0. 0. 0. 0. 0. 0.],0.244140625,-0.6103515625,-0.18310546875,[0. 0. 0. 0. 0. 0. 0. 0. 0.],-0.03955078125,0.0166015625,1.00244140625,[0. 0. 0. 0. 0. 0. 0. 0. 0.]
1.4995262622833252,0.02131640538573265,-1.9947769033024088e-05,-0.9169953465461731,0.39832794666290283,[0. 0. 0. 0. 0. 0. 0. 0. 0.],-0.06103515625,-0.6103515625,-0.06103515625,[0. 0. 0. 0. 0. 0. 0. 0. 0.],-0.03955078125,0.01708984375,1.005859375,[0. 0. 0. 0. 0. 0. 0. 0. 0.]
1.518202543258667,0.020759370177984238,0.00039609961095266044,-0.9170231819152832,0.39829325675964355,[0. 0. 0. 0. 0. 0. 0. 0. 0.],-0.42724609375,-0.9765625,-0.18310546875,[0. 0. 0. 0. 0. 0. 0. 0. 0.],-0.0390625,0.01611328125,1.00439453125,[0. 0. 0. 0. 0. 0. 0. 0. 0.]
1.5374948978424072,0.02096647582948208,-9.976674482459202e-05,-0.9170269966125488,0.3982737064361572,[0. 0. 0. 0. 0. 0. 0. 0. 0.],-0.1220703125,-0.30517578125,-0.06103515625,[0. 0. 0. 0. 0. 0. 0. 0. 0.],-0.03857421875,0.017578125,1.00341796875,[0. 0. 0. 0. 0. 0. 0. 0. 0.]
1.5649700164794922,0.02119419351220131,-0.0009927644859999418,-0.9170275330543518,0.3982592821121216,[0. 0. 0. 0. 0. 0. 0. 0. 0.],0.06103515625,-0.30517578125,-0.1220703125,[0. 0. 0. 0. 0. 0. 0. 0. 0.],-0.0380859375,0.01806640625,1.00439453125,[0. 0. 0. 0. 0. 0. 0. 0. 0.]
1.5782175064086914,0.02131495252251625,-0.00012729938316624612,-0.9170418381690979,0.398220956325531,[0. 0. 0. 0. 0. 0. 0. 0. 0.],-0.18310546875,-0.9765625,-0.1220703125,[0. 0. 0. 0. 0. 0. 0. 0. 0.],-0.03955078125,0.01708984375,1.00439453125,[0. 0. 0. 0. 0. 0. 0. 0. 0.]
1.6010725498199463,0.02201605960726738,-1.3434552784019616e-05,-0.9170396327972412,0.398188054561615,[0. 0. 0. 0. 0. 0. 0. 0. 0.],-0.1220703125,-1.03759765625,-0.30517578125,[0. 0. 0. 0. 0. 0. 0. 0. 0.],-0.04052734375,0.01806640625,1.0029296875,[0. 0. 0. 0. 0. 0. 0. 0. 0.]
1.6196353435516357,0.02233915589749813,-0.00013513254816643894,-0.9170439839363098,0.39816001057624817,[0. 0. 0. 0. 0. 0. 0. 0. 0.],-0.1220703125,-0.48828125,-0.244140625,[0. 0. 0. 0. 0. 0. 0. 0. 0.],-0.041015625,0.01806640625,1.00537109375,[0. 0. 0. 0. 0. 0. 0. 0. 0.]
1.634077787399292,0.021773578599095345,-6.64617182337679e-05,-0.9170655608177185,0.398141473531723,[0. 0. 0. 0. 0. 0. 0. 0. 0.],-0.18310546875,0.0,-0.06103515625,[0. 0. 0. 0. 0. 0. 0. 0. 0.],-0.0400390625,0.017578125,1.0029296875,[0. 0. 0. 0. 0. 0. 0. 0. 0.]
1.6581473350524902,0.02264760620892048,-0.00014745458611287177,-0.9170560240745544,0.3981146514415741,[0. 0. 0. 0. 0. 0. 0. 0. 0.],-0.18310546875,-0.79345703125,0.0,[0. 0. 0. 0. 0. 0. 0. 0. 0.],-0.0419921875,0.0185546875,1.0048828125,[0. 0. 0. 0. 0. 0. 0. 0. 0.]
1.678107500076294,0.021799426525831223,0.0004516406334005296,-0.9170871376991272,0.398090124130249,[0. 0. 0. 0. 0. 0. 0. 0. 0.],0.06103515625,-0.91552734375,-0.06103515625,[0. 0. 0. 0. 0. 0. 0. 0. 0.],-0.04052734375,0.01611328125,1.0048828125,[0. 0. 0. 0. 0. 0. 0. 0. 0.]
1.6969258785247803,0.021013135090470314,0.0001296912378165871,-0.9171079397201538,0.39808470010757446,[0. 0. 0. 0. 0. 0. 0. 0. 0.],0.1220703125,-0.732421875,-0.1220703125,[0. 0. 0. 0. 0. 0. 0. 0. 0.],-0.0390625,0.0166015625,1.0048828125,[0. 0. 0. 0. 0. 0. 0. 0. 0.]
1.7180452346801758,0.022668272256851196,-0.0002558448468334973,-0.917073130607605,0.39807432889938354,[0. 0. 0. 0. 0. 0. 0. 0. 0.],-0.3662109375,-0.54931640625,-0.18310546875,[0. 0. 0. 0. 0. 0. 0. 0. 0.],-0.04150390625,0.0185546875,1.00244140625,[0. 0. 0. 0. 0. 0. 0. 0. 0.]
1.7398653030395508,0.02225172147154808,0.00017637254495639354,-0.917093813419342,0.398049920797348,[0. 0. 0. 0. 0. 0. 0. 0. 0.],-0.48828125,-0.48828125,-0.06103515625,[0. 0. 0. 0. 0. 0. 0. 0. 0.],-0.041015625,0.017578125,1.00537109375,[0. 0. 0. 0. 0. 0. 0. 0. 0.]
1.7610979080200195,0.021848849952220917,0.00013772858073934913,-0.9171143174171448,0.39802512526512146,[0. 0. 0. 0. 0. 0. 0. 0. 0.],0.30517578125,-0.54931640625,-0.1220703125,[0. 0. 0. 0. 0. 0. 0. 0. 0.],-0.04052734375,0.01708984375,1.00439453125,[0. 0. 0. 0. 0. 0. 0. 0. 0.]
1.7733464241027832,0.02188529260456562,0.00010878580360440537,-0.917126476764679,0.3979949951171875,[0. 0. 0. 0. 0. 0. 0. 0. 0.],0.244140625,-0.79345703125,-0.244140625,[0. 0. 0. 0. 0. 0. 0. 0. 0.],-0.0400390625,0.017578125,1.0048828125,[0. 0. 0. 0. 0. 0. 0. 0. 0.]
1.7981784343719482,0.021082323044538498,-0.0004018483159597963,-0.9171442985534668,0.39799731969833374,[0. 0. 0. 0. 0. 0. 0. 0. 0.],-0.244140625,-0.91552734375,-0.1220703125,[0. 0. 0. 0. 0. 0. 0. 0. 0.],-0.03857421875,0.017578125,1.0048828125,[0. 0. 0. 0. 0. 0. 0. 0. 0.]
1.8186445236206055,0.020976658910512924,-0.00043236796045675874,-0.917153537273407,0.39798155426979065,[0. 0. 0. 0. 0. 0. 0. 0. 0.],-0.244140625,-0.48828125,-0.1220703125,[0. 0. 0. 0. 0. 0. 0. 0. 0.],-0.03857421875,0.01806640625,1.00244140625,[0. 0. 0. 0. 0. 0. 0. 0. 0.]
1.8552889823913574,0.022148536518216133,0.0002639099257066846,-0.9171613454818726,0.39790013432502747,[0. 0. 0. 0. 0. 0. 0. 0. 0.],0.1220703125,-0.91552734375,-0.1220703125,[0. 0. 0. 0. 0. 0. 0. 0. 0.],-0.041015625,0.01708984375,1.00537109375,[0. 0. 0. 0. 0. 0. 0. 0. 0.]
1.8608288764953613,0.02185656502842903,-0.0001380978210363537,-0.917165219783783,0.39790746569633484,[0. 0. 0. 0. 0. 0. 0. 0. 0.],0.244140625,-0.732421875,-0.06103515625,[0. 0. 0. 0. 0. 0. 0. 0. 0.],-0.04052734375,0.017578125,1.0048828125,[0. 0. 0. 0. 0. 0. 0. 0. 0.]
1.8781158924102783,0.021457834169268608,-0.0002039480459643528,-0.9171851873397827,0.39788302779197693,[0. 0. 0. 0. 0. 0. 0. 0. 0.],-0.244140625,-1.220703125,-0.18310546875,[0. 0. 0. 0. 0. 0. 0. 0. 0.],-0.03955078125,0.01708984375,1.00537109375,[0. 0. 0. 0. 0. 0. 0. 0. 0.]
1.8988275527954102,0.02131533809006214,-6.842969014542177e-05,-0.917199969291687,0.3978566825389862,[0. 0. 0. 0. 0. 0. 0. 0. 0.],-0.1220703125,-0.79345703125,-0.244140625,[0. 0. 0. 0. 0. 0. 0. 0. 0.],-0.03955078125,0.01708984375,1.0029296875,[0. 0. 0. 0. 0. 0. 0. 0. 0.]
1.9181132316589355,0.020837681367993355,-0.00025024430942721665,-0.9172108769416809,0.39785686135292053,[0. 0. 0. 0. 0. 0. 0. 0. 0.],0.06103515625,-0.1220703125,0.1220703125,[0. 0. 0. 0. 0. 0. 0. 0. 0.],-0.0390625,0.017578125,1.00537109375,[0. 0. 0. 0. 0. 0. 0. 0. 0.]
1.938828706741333,0.021113911643624306,0.00021486780315171927,-0.9172198176383972,0.3978216350078583,[0. 0. 0. 0. 0. 0. 0. 0. 0.],-0.244140625,-0.79345703125,0.0,[0. 0. 0. 0. 0. 0. 0. 0. 0.],-0.0390625,0.0166015625,1.0029296875,[0. 0. 0. 0. 0. 0. 0. 0. 0.]
1.9582693576812744,0.021830357611179352,0.0004624815774150193,-0.9172216057777405,0.39777863025665283,[0. 0. 0. 0. 0. 0. 0. 0. 0.],-0.06103515625,-1.03759765625,-0.18310546875,[0. 0. 0. 0. 0. 0. 0. 0. 0.],-0.04052734375,0.0166015625,1.00439453125,[0. 0. 0. 0. 0. 0. 0. 0. 0.]
1.978107213973999,0.021418463438749313,5.671779035765212e-06,-0.9172389507293701,0.3977612853050232,[0. 0. 0. 0. 0. 0. 0. 0. 0.],0.18310546875,-0.8544921875,-0.18310546875,[0. 0. 0. 0. 0. 0. 0. 0. 0.],-0.03955078125,0.01708984375,1.00390625,[0. 0. 0. 0. 0. 0. 0. 0. 0.]
1.9981389045715332,0.021748971194028854,-9.480886546953116e-07,-0.917243480682373,0.39773303270339966,[0. 0. 0. 0. 0. 0. 0. 0. 0.],-0.1220703125,-0.91552734375,-0.18310546875,[0. 0. 0. 0. 0. 0. 0. 0. 0.],-0.0400390625,0.017578125,1.0048828125,[0. 0. 0. 0. 0. 0. 0. 0. 0.]
2.018192768096924,0.022693201899528503,0.00034430439700372517,-0.9172354936599731,0.3976983428001404,[0. 0. 0. 0. 0. 0. 0. 0. 0.],-0.3662109375,-0.79345703125,-0.244140625,[0. 0. 0. 0. 0. 0. 0. 0. 0.],-0.04150390625,0.01708984375,1.00439453125,[0. 0. 0. 0. 0. 0. 0. 0. 0.]
2.0382895469665527,0.02229386754333973,-2.1680181816918775e-05,-0.9172555804252625,0.3976747691631317,[0. 0. 0. 0. 0. 0. 0. 0. 0.],-0.18310546875,-0.244140625,0.0,[0. 0. 0. 0. 0. 0. 0. 0. 0.],-0.04150390625,0.017578125,1.0048828125,[0. 0. 0. 0. 0. 0. 0. 0. 0.]
2.0582003593444824,0.02144685946404934,-6.798649701522663e-05,-0.9172874093055725,0.39764800667762756,[0. 0. 0. 0. 0. 0. 0. 0. 0.],0.30517578125,-0.48828125,-0.18310546875,[0. 0. 0. 0. 0. 0. 0. 0. 0.],-0.03955078125,0.017578125,1.00244140625,[0. 0. 0. 0. 0. 0. 0. 0. 0.]
2.0782294273376465,0.022404761984944344,0.000182030547875911,-0.917281985282898,0.3976074457168579,[0. 0. 0. 0. 0. 0. 0. 0. 0.],0.06103515625,-1.0986328125,-0.244140625,[0. 0. 0. 0. 0. 0. 0. 0. 0.],-0.04150390625,0.017578125,1.00341796875,[0. 0. 0. 0. 0. 0. 0. 0. 0.]
2.0986416339874268,0.02204647660255432,0.0005506054731085896,-0.9173027873039246,0.3975794017314911,[0. 0. 0. 0. 0. 0. 0. 0. 0.],-0.42724609375,-1.03759765625,-0.244140625,[0. 0. 0. 0. 0. 0. 0. 0. 0.],-0.041015625,0.0166015625,1.005859375,[0. 0. 0. 0. 0. 0. 0. 0. 0.]
2.1132876873016357,0.022498412057757378,0.0005531570641323924,-0.917305588722229,0.3975474238395691,[0. 0. 0. 0. 0. 0. 0. 0. 0.],0.0,-0.18310546875,-0.18310546875,[0. 0. 0. 0. 0. 0. 0. 0. 0.],-0.04150390625,0.01708984375,1.00244140625,[0. 0. 0. 0. 0. 0. 0. 0. 0.]
2.138209819793701,0.02173805981874466,-8.27331023174338e-05,-0.9173272252082825,0.39754024147987366,[0. 0. 0. 0. 0. 0. 0. 0. 0.],-0.1220703125,-0.1220703125,0.0,[0. 0. 0. 0. 0. 0. 0. 0. 0.],-0.0400390625,0.017578125,1.00439453125,[0. 0. 0. 0. 0. 0. 0. 0. 0.]
2.1581554412841797,0.0213979110121727,-0.0004611749609466642,-0.9173415899276733,0.39752525091171265,[0. 0. 0. 0. 0. 0. 0. 0. 0.],-0.1220703125,-0.79345703125,-0.06103515625,[0. 0. 0. 0. 0. 0. 0. 0. 0.],-0.03955078125,0.01806640625,1.00244140625,[0. 0. 0. 0. 0. 0. 0. 0. 0.]
2.182591199874878,0.0217719916254282,0.0006724850973114371,-0.9173571467399597,0.3974688947200775,[0. 0. 0. 0. 0. 0. 0. 0. 0.],0.06103515625,-0.6103515625,-0.06103515625,[0. 0. 0. 0. 0. 0. 0. 0. 0.],-0.0400390625,0.0166015625,1.00439453125,[0. 0. 0. 0. 0. 0. 0. 0. 0.]
2.1934003829956055,0.021021520718932152,-0.00018126705253962427,-0.9173682332038879,0.39748436212539673,[0. 0. 0. 0. 0. 0. 0. 0. 0.],0.06103515625,-0.67138671875,-0.1220703125,[0. 0. 0. 0. 0. 0. 0. 0. 0.],-0.0390625,0.01708984375,1.00244140625,[0. 0. 0. 0. 0. 0. 0. 0. 0.]
2.2134194374084473,0.021924104541540146,0.00023362103092949837,-0.9173640012741089,0.39744532108306885,[0. 0. 0. 0. 0. 0. 0. 0. 0.],-0.18310546875,-0.30517578125,-0.06103515625,[0. 0. 0. 0. 0. 0. 0. 0. 0.],-0.04052734375,0.01708984375,1.00390625,[0. 0. 0. 0. 0. 0. 0. 0. 0.]
2.2381632328033447,0.022114858031272888,-0.0005373017047531903,-0.9173664450645447,0.3974286913871765,[0. 0. 0. 0. 0. 0. 0. 0. 0.],-0.42724609375,-0.54931640625,-0.06103515625,[0. 0. 0. 0. 0. 0. 0. 0. 0.],-0.04052734375,0.01904296875,1.00439453125,[0. 0. 0. 0. 0. 0. 0. 0. 0.]
2.259345293045044,0.020916249603033066,-0.00017592214862816036,-0.9174042344093323,0.39740657806396484,[0. 0. 0. 0. 0. 0. 0. 0. 0.],0.244140625,-0.732421875,-0.06103515625,[0. 0. 0. 0. 0. 0. 0. 0. 0.],-0.03857421875,0.01708984375,1.005859375,[0. 0. 0. 0. 0. 0. 0. 0. 0.]
2.2785181999206543,0.02139977179467678,0.00019257991516496986,-0.9174087047576904,0.3973706364631653,[0. 0. 0. 0. 0. 0. 0. 0. 0.],0.244140625,-0.91552734375,-0.18310546875,[0. 0. 0. 0. 0. 0. 0. 0. 0.],-0.03955078125,0.01708984375,1.005859375,[0. 0. 0. 0. 0. 0. 0. 0. 0.]
2.294257640838623,0.021452300250530243,9.340759424958378e-05,-0.9174135327339172,0.3973565697669983,[0. 0. 0. 0. 0. 0. 0. 0. 0.],-0.30517578125,-0.732421875,-0.244140625,[0. 0. 0. 0. 0. 0. 0. 0. 0.],-0.03955078125,0.01708984375,1.0029296875,[0. 0. 0. 0. 0. 0. 0. 0. 0.]
2.318674325942993,0.02172680012881756,0.00037347691250033677,-0.917422890663147,0.3973197937011719,[0. 0. 0. 0. 0. 0. 0. 0. 0.],-0.42724609375,-0.3662109375,-0.18310546875,[0. 0. 0. 0. 0. 0. 0. 0. 0.],-0.04052734375,0.0166015625,1.00439453125,[0. 0. 0. 0. 0. 0. 0. 0. 0.]
2.3382160663604736,0.02147706039249897,0.00037330659688450396,-0.9174433946609497,0.39728599786758423,[0. 0. 0. 0. 0. 0. 0. 0. 0.],0.18310546875,-0.244140625,-0.1220703125,[0. 0. 0. 0. 0. 0. 0. 0. 0.],-0.03955078125,0.0166015625,1.00537109375,[0. 0. 0. 0. 0. 0. 0. 0. 0.]
2.360848903656006,0.020894212648272514,0.0006401339778676629,-0.917462944984436,0.3972717523574829,[0. 0. 0. 0. 0. 0. 0. 0. 0.],0.18310546875,-0.79345703125,0.0,[0. 0. 0. 0. 0. 0. 0. 0. 0.],-0.0390625,0.015625,1.00634765625,[0. 0. 0. 0. 0. 0. 0. 0. 0.]
2.378491163253784,0.020920097827911377,0.0004171227919869125,-0.9174702763557434,0.3972538709640503,[0. 0. 0. 0. 0. 0. 0. 0. 0.],-0.42724609375,-1.0986328125,-0.18310546875,[0. 0. 0. 0. 0. 0. 0. 0. 0.],-0.0390625,0.0166015625,1.00244140625,[0. 0. 0. 0. 0. 0. 0. 0. 0.]
2.3981857299804688,0.02114717848598957,-0.0003054217086173594,-0.9174705147743225,0.3972413241863251,[0. 0. 0. 0. 0. 0. 0. 0. 0.],-0.3662109375,-0.48828125,-0.18310546875,[0. 0. 0. 0. 0. 0. 0. 0. 0.],-0.03857421875,0.01708984375,1.00341796875,[0. 0. 0. 0. 0. 0. 0. 0. 0.]
2.4184587001800537,0.021074488759040833,-0.0004777982539962977,-0.9174839854240417,0.3972138464450836,[0. 0. 0. 0. 0. 0. 0. 0. 0.],-0.06103515625,-0.244140625,-0.06103515625,[0. 0. 0. 0. 0. 0. 0. 0. 0.],-0.03857421875,0.01806640625,1.005859375,[0. 0. 0. 0. 0. 0. 0. 0. 0.]
2.433722972869873,0.021784599870443344,-0.0009926862549036741,-0.9174790978431702,0.39718589186668396,[0. 0. 0. 0. 0. 0. 0. 0. 0.],-0.1220703125,-0.54931640625,-0.244140625,[0. 0. 0. 0. 0. 0. 0. 0. 0.],-0.03955078125,0.01953125,1.00439453125,[0. 0. 0. 0. 0. 0. 0. 0. 0.]
2.458406448364258,0.021249262616038322,0.0005430781748145819,-0.9175127744674683,0.3971378803253174,[0. 0. 0. 0. 0. 0. 0. 0. 0.],-0.1220703125,-0.79345703125,-0.06103515625,[0. 0. 0. 0. 0. 0. 0. 0. 0.],-0.03955078125,0.01611328125,1.00390625,[0. 0. 0. 0. 0. 0. 0. 0. 0.]
2.478386163711548,0.021425297483801842,0.0008578905835747719,-0.9175238609313965,0.3971021771430969,[0. 0. 0. 0. 0. 0. 0. 0. 0.],0.30517578125,-0.79345703125,-0.244140625,[0. 0. 0. 0. 0. 0. 0. 0. 0.],-0.0400390625,0.015625,1.0029296875,[0. 0. 0. 0. 0. 0. 0. 0. 0.]
2.497412919998169,0.021777819842100143,8.966836321633309e-05,-0.9175128936767578,0.39710932970046997,[0. 0. 0. 0. 0. 0. 0. 0. 0.],-0.1220703125,-0.30517578125,0.0,[0. 0. 0. 0. 0. 0. 0. 0. 0.],-0.04052734375,0.01708984375,1.001953125,[0. 0. 0. 0. 0. 0. 0. 0. 0.]
2.5182230472564697,0.02159181609749794,0.00022828167129773647,-0.9175267815589905,0.3970875144004822,[0. 0. 0. 0. 0. 0. 0. 0. 0.],-0.42724609375,-0.54931640625,-0.06103515625,[0. 0. 0. 0. 0. 0. 0. 0. 0.],-0.04052734375,0.01708984375,1.00390625,[0. 0. 0. 0. 0. 0. 0. 0. 0.]
2.539440631866455,0.022748613730072975,-0.0006070706294849515,-0.9175057411193848,0.39707106351852417,[0. 0. 0. 0. 0. 0. 0. 0. 0.],-0.30517578125,-0.3662109375,0.0,[0. 0. 0. 0. 0. 0. 0. 0. 0.],-0.04150390625,0.01953125,1.00146484375,[0. 0. 0. 0. 0. 0. 0. 0. 0.]
2.5586161613464355,0.02259611338376999,0.0005491850315593183,-0.9175339937210083,0.39701440930366516,[0. 0. 0. 0. 0. 0. 0. 0. 0.],0.244140625,-0.48828125,-0.18310546875,[0. 0. 0. 0. 0. 0. 0. 0. 0.],-0.0419921875,0.01708984375,1.0029296875,[0. 0. 0. 0. 0. 0. 0. 0. 0.]
2.5782439708709717,0.020931173115968704,-0.00019697588868439198,-0.9175688624382019,0.39702561497688293,[0. 0. 0. 0. 0. 0. 0. 0. 0.],-0.1220703125,-1.0986328125,-0.30517578125,[0. 0. 0. 0. 0. 0. 0. 0. 0.],-0.03857421875,0.01708984375,1.00537109375,[0. 0. 0. 0. 0. 0. 0. 0. 0.]
2.5988824367523193,0.02165582962334156,-0.00013738915731664747,-0.9175636768341064,0.3969986140727997,[0. 0. 0. 0. 0. 0. 0. 0. 0.],-0.3662109375,-1.03759765625,-0.30517578125,[0. 0. 0. 0. 0. 0. 0. 0. 0.],-0.03955078125,0.017578125,1.00341796875,[0. 0. 0. 0. 0. 0. 0. 0. 0.]
2.61836838722229,0.022602936252951622,-6.938550359336659e-05,-0.9175528883934021,0.3969709277153015,[0. 0. 0. 0. 0. 0. 0. 0. 0.],-0.18310546875,-0.3662109375,-0.1220703125,[0. 0. 0. 0. 0. 0. 0. 0. 0.],-0.04150390625,0.01806640625,1.0029296875,[0. 0. 0. 0. 0. 0. 0. 0. 0.]
2.6381685733795166,0.02219850942492485,-0.00045201482134871185,-0.9175692796707153,0.3969554007053375,[0. 0. 0. 0. 0. 0. 0. 0. 0.],0.06103515625,-0.18310546875,0.0,[0. 0. 0. 0. 0. 0. 0. 0. 0.],-0.04052734375,0.01904296875,1.00439453125,[0. 0. 0. 0. 0. 0. 0. 0. 0.]
2.65813946723938,0.021250704303383827,0.00026335788425058126,-0.9176041483879089,0.3969268798828125,[0. 0. 0. 0. 0. 0. 0. 0. 0.],-0.1220703125,-1.03759765625,-0.1220703125,[0. 0. 0. 0. 0. 0. 0. 0. 0.],-0.03955078125,0.0166015625,1.005859375,[0. 0. 0. 0. 0. 0. 0. 0. 0.]
2.6784515380859375,0.021198857575654984,6.153988215373829e-05,-0.9176120162010193,0.39691162109375,[0. 0. 0. 0. 0. 0. 0. 0. 0.],-0.1220703125,-1.15966796875,-0.30517578125,[0. 0. 0. 0. 0. 0. 0. 0. 0.],-0.0390625,0.01611328125,1.0048828125,[0. 0. 0. 0. 0. 0. 0. 0. 0.]
2.698479652404785,0.02268628031015396,0.0004421924822963774,-0.917593777179718,0.396871417760849,[0. 0. 0. 0. 0. 0. 0. 0. 0.],0.1220703125,-0.54931640625,-0.18310546875,[0. 0. 0. 0. 0. 0. 0. 0. 0.],-0.0419921875,0.01708984375,1.00146484375,[0. 0. 0. 0. 0. 0. 0. 0. 0.]
2.71392822265625,0.02125144749879837,-0.00036289452691562474,-0.9176232218742371,0.3968828022480011,[0. 0. 0. 0. 0. 0. 0. 0. 0.],-0.244140625,-0.1220703125,-0.06103515625,[0. 0. 0. 0. 0. 0. 0. 0. 0.],-0.0390625,0.017578125,1.00537109375,[0. 0. 0. 0. 0. 0. 0. 0. 0.]
2.733628273010254,0.02190101519227028,-0.00011699190508807078,-0.9176236391067505,0.3968467116355896,[0. 0. 0. 0. 0. 0. 0. 0. 0.],-0.42724609375,-0.6103515625,-0.1220703125,[0. 0. 0. 0. 0. 0. 0. 0. 0.],-0.0400390625,0.017578125,1.00341796875,[0. 0. 0. 0. 0. 0. 0. 0. 0.]
2.7582478523254395,0.021555183455348015,0.00046926335198804736,-0.9176467061042786,0.39681199193000793,[0. 0. 0. 0. 0. 0. 0. 0. 0.],0.06103515625,-0.79345703125,-0.1220703125,[0. 0. 0. 0. 0. 0. 0. 0. 0.],-0.04052734375,0.0166015625,1.00390625,[0. 0. 0. 0. 0. 0. 0. 0. 0.]
2.7781872749328613,0.02105543576180935,0.00039838056545704603,-0.9176605939865112,0.3968068063259125,[0. 0. 0. 0. 0. 0. 0. 0. 0.],0.18310546875,-0.79345703125,-0.06103515625,[0. 0. 0. 0. 0. 0. 0. 0. 0.],-0.0390625,0.01611328125,1.0048828125,[0. 0. 0. 0. 0. 0. 0. 0. 0.]
2.7984120845794678,0.02156738005578518,-0.00033756159245967865,-0.9176490306854248,0.39680594205856323,[0. 0. 0. 0. 0. 0. 0. 0. 0.],-0.1220703125,-0.6103515625,-0.18310546875,[0. 0. 0. 0. 0. 0. 0. 0. 0.],-0.03955078125,0.0185546875,1.0029296875,[0. 0. 0. 0. 0. 0. 0. 0. 0.]
2.818176507949829,0.021645549684762955,0.0006026569753885269,-0.9176629185676575,0.39676952362060547,[0. 0. 0. 0. 0. 0. 0. 0. 0.],-0.54931640625,-0.6103515625,0.0,[0. 0. 0. 0. 0. 0. 0. 0. 0.],-0.04052734375,0.01611328125,1.00390625,[0. 0. 0. 0. 0. 0. 0. 0. 0.]
2.84065580368042,0.02222941443324089,0.0005985663738101721,-0.9176631569862366,0.39673665165901184,[0. 0. 0. 0. 0. 0. 0. 0. 0.],0.1220703125,-0.54931640625,-0.06103515625,[0. 0. 0. 0. 0. 0. 0. 0. 0.],-0.04150390625,0.0166015625,1.00341796875,[0. 0. 0. 0. 0. 0. 0. 0. 0.]
2.8588852882385254,0.022190609946846962,-0.00020280445460230112,-0.9176695942878723,0.3967241644859314,[0. 0. 0. 0. 0. 0. 0. 0. 0.],0.3662109375,-0.732421875,-0.18310546875,[0. 0. 0. 0. 0. 0. 0. 0. 0.],-0.04052734375,0.01806640625,1.0048828125,[0. 0. 0. 0. 0. 0. 0. 0. 0.]
2.880523204803467,0.021211521700024605,-0.0009615047601982951,-0.9176915884017944,0.39672574400901794,[0. 0. 0. 0. 0. 0. 0. 0. 0.],-0.244140625,-1.0986328125,-0.18310546875,[0. 0. 0. 0. 0. 0. 0. 0. 0.],-0.03857421875,0.0185546875,1.00390625,[0. 0. 0. 0. 0. 0. 0. 0. 0.]
2.8983638286590576,0.021631503477692604,-0.0005693180719390512,-0.917694628238678,0.3966967463493347,[0. 0. 0. 0. 0. 0. 0. 0. 0.],-0.30517578125,-0.6103515625,-0.1220703125,[0. 0. 0. 0. 0. 0. 0. 0. 0.],-0.03955078125,0.0185546875,1.00146484375,[0. 0. 0. 0. 0. 0. 0. 0. 0.]
2.918470859527588,0.022135404869914055,-0.00042050049523822963,-0.9176932573318481,0.3966723084449768,[0. 0. 0. 0. 0. 0. 0. 0. 0.],-0.06103515625,-0.30517578125,-0.1220703125,[0. 0. 0. 0. 0. 0. 0. 0. 0.],-0.04052734375,0.0185546875,1.00390625,[0. 0. 0. 0. 0. 0. 0. 0. 0.]
2.9382803440093994,0.02137991040945053,-6.901317101437598e-05,-0.9177132844924927,0.3966677188873291,[0. 0. 0. 0. 0. 0. 0. 0. 0.],-0.18310546875,-0.42724609375,-0.06103515625,[0. 0. 0. 0. 0. 0. 0. 0. 0.],-0.0390625,0.01708984375,1.00146484375,[0. 0. 0. 0. 0. 0. 0. 0. 0.]
2.9582738876342773,0.02087719365954399,-0.00029466705746017396,-0.917729914188385,0.3966558873653412,[0. 0. 0. 0. 0. 0. 0. 0. 0.],-0.1220703125,-0.91552734375,-0.1220703125,[0. 0. 0. 0. 0. 0. 0. 0. 0.],-0.03857421875,0.0166015625,1.00341796875,[0. 0. 0. 0. 0. 0. 0. 0. 0.]
2.9747512340545654,0.021488487720489502,0.00044236070243641734,-0.917732298374176,0.3966176509857178,[0. 0. 0. 0. 0. 0. 0. 0. 0.],0.30517578125,-0.8544921875,-0.18310546875,[0. 0. 0. 0. 0. 0. 0. 0. 0.],-0.04052734375,0.015625,1.00390625,[0. 0. 0. 0. 0. 0. 0. 0. 0.]
2.993821620941162,0.021784856915473938,0.00039193409611471,-0.917734682559967,0.39659586548805237,[0. 0. 0. 0. 0. 0. 0. 0. 0.],0.1220703125,-0.54931640625,-0.06103515625,[0. 0. 0. 0. 0. 0. 0. 0. 0.],-0.041015625,0.0166015625,1.00390625,[0. 0. 0. 0. 0. 0. 0. 0. 0.]
3.0182406902313232,0.02195173315703869,-1.662652607592463e-06,-0.9177379608154297,0.3965795934200287,[0. 0. 0. 0. 0. 0. 0. 0. 0.],-0.54931640625,-0.3662109375,-0.18310546875,[0. 0. 0. 0. 0. 0. 0. 0. 0.],-0.04052734375,0.01806640625,1.00341796875,[0. 0. 0. 0. 0. 0. 0. 0. 0.]
3.0390543937683105,0.022145573049783707,0.00014608986384700984,-0.9177461266517639,0.39654970169067383,[0. 0. 0. 0. 0. 0. 0. 0. 0.],-0.244140625,-0.48828125,-0.06103515625,[0. 0. 0. 0. 0. 0. 0. 0. 0.],-0.041015625,0.01806640625,1.00439453125,[0. 0. 0. 0. 0. 0. 0. 0. 0.]
3.058539390563965,0.0225848276168108,-0.0005713182035833597,-0.9177432656288147,0.3965311050415039,[0. 0. 0. 0. 0. 0. 0. 0. 0.],0.42724609375,-0.54931640625,-0.1220703125,[0. 0. 0. 0. 0. 0. 0. 0. 0.],-0.04150390625,0.0185546875,1.0078125,[0. 0. 0. 0. 0. 0. 0. 0. 0.]
3.0783934593200684,0.021944105625152588,0.00015104826889000833,-0.9177678227424622,0.39651060104370117,[0. 0. 0. 0. 0. 0. 0. 0. 0.],0.0,-1.03759765625,-0.1220703125,[0. 0. 0. 0. 0. 0. 0. 0. 0.],-0.04052734375,0.0166015625,1.005859375,[0. 0. 0. 0. 0. 0. 0. 0. 0.]
3.0982015132904053,0.02206626906991005,0.0008447282016277313,-0.917780339717865,0.396474152803421,[0. 0. 0. 0. 0. 0. 0. 0. 0.],-0.3662109375,-0.732421875,-0.18310546875,[0. 0. 0. 0. 0. 0. 0. 0. 0.],-0.04150390625,0.0166015625,1.00537109375,[0. 0. 0. 0. 0. 0. 0. 0. 0.]
3.113476037979126,0.021658018231391907,-0.0005229225498624146,-0.9177891612052917,0.396476686000824,[0. 0. 0. 0. 0. 0. 0. 0. 0.],-0.18310546875,-0.3662109375,-0.1220703125,[0. 0. 0. 0. 0. 0. 0. 0. 0.],-0.03955078125,0.01806640625,1.00537109375,[0. 0. 0. 0. 0. 0. 0. 0. 0.]
3.1381428241729736,0.021872418001294136,-0.0003911529784090817,-0.9177989363670349,0.39644235372543335,[0. 0. 0. 0. 0. 0. 0. 0. 0.],0.18310546875,-0.3662109375,-0.1220703125,[0. 0. 0. 0. 0. 0. 0. 0. 0.],-0.0400390625,0.01806640625,1.00390625,[0. 0. 0. 0. 0. 0. 0. 0. 0.]
3.1580679416656494,0.021045800298452377,-0.0005346479010768235,-0.9178258180618286,0.396424800157547,[0. 0. 0. 0. 0. 0. 0. 0. 0.],-0.06103515625,-1.03759765625,-0.244140625,[0. 0. 0. 0. 0. 0. 0. 0. 0.],-0.03857421875,0.01806640625,1.00634765625,[0. 0. 0. 0. 0. 0. 0. 0. 0.]
3.178189992904663,0.0213296078145504,0.00021848600590601563,-0.917836606502533,0.3963850140571594,[0. 0. 0. 0. 0. 0. 0. 0. 0.],-0.18310546875,-1.220703125,-0.1220703125,[0. 0. 0. 0. 0. 0. 0. 0. 0.],-0.0400390625,0.01708984375,1.00439453125,[0. 0. 0. 0. 0. 0. 0. 0. 0.]
3.1981937885284424,0.02173973061144352,-0.0005771198193542659,-0.9178290963172913,0.39637982845306396,[0. 0. 0. 0. 0. 0. 0. 0. 0.],0.0,-0.48828125,-0.1220703125,[0. 0. 0. 0. 0. 0. 0. 0. 0.],-0.0400390625,0.0185546875,1.00390625,[0. 0. 0. 0. 0. 0. 0. 0. 0.]
3.2181570529937744,0.021518288180232048,-0.0007735971594229341,-0.9178382754325867,0.3963702917098999,[0. 0. 0. 0. 0. 0. 0. 0. 0.],-0.1220703125,-0.1220703125,0.0,[0. 0. 0. 0. 0. 0. 0. 0. 0.],-0.0390625,0.01806640625,1.0029296875,[0. 0. 0. 0. 0. 0. 0. 0. 0.]
3.239973306655884,0.02191050350666046,-0.0003853081725537777,-0.917839527130127,0.3963463306427002,[0. 0. 0. 0. 0. 0. 0. 0. 0.],-0.18310546875,-0.6103515625,0.0,[0. 0. 0. 0. 0. 0. 0. 0. 0.],-0.0400390625,0.01806640625,1.00439453125,[0. 0. 0. 0. 0. 0. 0. 0. 0.]
3.258366107940674,0.021508658304810524,-9.749118180479854e-05,-0.9178619980812073,0.3963167071342468,[0. 0. 0. 0. 0. 0. 0. 0. 0.],0.06103515625,-1.03759765625,-0.18310546875,[0. 0. 0. 0. 0. 0. 0. 0. 0.],-0.03955078125,0.017578125,1.00537109375,[0. 0. 0. 0. 0. 0. 0. 0. 0.]
3.2785298824310303,0.021955443546175957,-0.0006158259348012507,-0.917862057685852,0.39629146456718445,[0. 0. 0. 0. 0. 0. 0. 0. 0.],0.18310546875,-0.91552734375,-0.30517578125,[0. 0. 0. 0. 0. 0. 0. 0. 0.],-0.0400390625,0.0185546875,1.00244140625,[0. 0. 0. 0. 0. 0. 0. 0. 0.]
3.2981748580932617,0.021013319492340088,-7.929415733087808e-05,-0.9178903102874756,0.3962774872779846,[0. 0. 0. 0. 0. 0. 0. 0. 0.],-0.30517578125,-0.42724609375,-0.18310546875,[0. 0. 0. 0. 0. 0. 0. 0. 0.],-0.0390625,0.01708984375,1.0029296875,[0. 0. 0. 0. 0. 0. 0. 0. 0.]
3.318157196044922,0.020963424816727638,-0.0007310632499866188,-0.917895495891571,0.3962675631046295,[0. 0. 0. 0. 0. 0. 0. 0. 0.],-0.48828125,-0.42724609375,-0.18310546875,[0. 0. 0. 0. 0. 0. 0. 0. 0.],-0.0380859375,0.01806640625,1.0029296875,[0. 0. 0. 0. 0. 0. 0. 0. 0.]
3.3382699489593506,0.021356819197535515,0.0007097277557477355,-0.917916476726532,0.39619776606559753,[0. 0. 0. 0. 0. 0. 0. 0. 0.],0.06103515625,-0.54931640625,-0.06103515625,[0. 0. 0. 0. 0. 0. 0. 0. 0.],-0.0400390625,0.015625,1.0029296875,[0. 0. 0. 0. 0. 0. 0. 0. 0.]
3.353743314743042,0.020722389221191406,-0.0002794467145577073,-0.9179297685623169,0.3962012827396393,[0. 0. 0. 0. 0. 0. 0. 0. 0.],0.244140625,-0.91552734375,-0.18310546875,[0. 0. 0. 0. 0. 0. 0. 0. 0.],-0.0380859375,0.01708984375,1.00341796875,[0. 0. 0. 0. 0. 0. 0. 0. 0.]
3.378275156021118,0.022089684382081032,0.00036514343810267746,-0.9179224967956543,0.39614439010620117,[0. 0. 0. 0. 0. 0. 0. 0. 0.],-0.244140625,-1.03759765625,-0.1220703125,[0. 0. 0. 0. 0. 0. 0. 0. 0.],-0.041015625,0.01708984375,1.0048828125,[0. 0. 0. 0. 0. 0. 0. 0. 0.]
3.3984482288360596,0.021460890769958496,-0.0008277842425741255,-0.9179378151893616,0.3961426615715027,[0. 0. 0. 0. 0. 0. 0. 0. 0.],-0.1220703125,-0.8544921875,-0.48828125,[0. 0. 0. 0. 0. 0. 0. 0. 0.],-0.03857421875,0.0185546875,1.0029296875,[0. 0. 0. 0. 0. 0. 0. 0. 0.]
3.417957067489624,0.021486008539795876,-0.000579706160351634,-0.9179498553276062,0.39611366391181946,[0. 0. 0. 0. 0. 0. 0. 0. 0.],-0.06103515625,-0.30517578125,-0.1220703125,[0. 0. 0. 0. 0. 0. 0. 0. 0.],-0.0390625,0.01806640625,1.00341796875,[0. 0. 0. 0. 0. 0. 0. 0. 0.]
3.433278799057007,0.02150004915893078,-0.0003528593806549907,-0.9179631471633911,0.39608263969421387,[0. 0. 0. 0. 0. 0. 0. 0. 0.],-0.244140625,-0.3662109375,0.0,[0. 0. 0. 0. 0. 0. 0. 0. 0.],-0.03955078125,0.017578125,1.00390625,[0. 0. 0. 0. 0. 0. 0. 0. 0.]
3.4599852561950684,0.02215789631009102,0.0004645179433282465,-0.917966365814209,0.39603880047798157,[0. 0. 0. 0. 0. 0. 0. 0. 0.],-0.18310546875,-0.8544921875,0.0,[0. 0. 0. 0. 0. 0. 0. 0. 0.],-0.041015625,0.0166015625,1.005859375,[0. 0. 0. 0. 0. 0. 0. 0. 0.]
3.4775922298431396,0.020768525078892708,-7.13179906597361e-05,-0.9180030226707458,0.3960292935371399,[0. 0. 0. 0. 0. 0. 0. 0. 0.],0.1220703125,-0.91552734375,-0.1220703125,[0. 0. 0. 0. 0. 0. 0. 0. 0.],-0.0380859375,0.01611328125,1.0048828125,[0. 0. 0. 0. 0. 0. 0. 0. 0.]
3.4981260299682617,0.021890223026275635,-0.0004359824233688414,-0.9179880619049072,0.396003395318985,[0. 0. 0. 0. 0. 0. 0. 0. 0.],0.1220703125,-0.6103515625,-0.1220703125,[0. 0. 0. 0. 0. 0. 0. 0. 0.],-0.0400390625,0.01806640625,1.00390625,[0. 0. 0. 0. 0. 0. 0. 0. 0.]
3.5244271755218506,0.021478984504938126,-0.0009430618956685066,-0.9179980158805847,0.39600178599357605,[0. 0. 0. 0. 0. 0. 0. 0. 0.],-0.54931640625,-0.3662109375,0.0,[0. 0. 0. 0. 0. 0. 0. 0. 0.],-0.0390625,0.0185546875,1.00390625,[0. 0. 0. 0. 0. 0. 0. 0. 0.]
3.533543586730957,0.02223905362188816,-0.00047010660637170076,-0.9179962277412415,0.395965039730072,[0. 0. 0. 0. 0. 0. 0. 0. 0.],-0.244140625,-0.54931640625,0.0,[0. 0. 0. 0. 0. 0. 0. 0. 0.],-0.0419921875,0.01953125,1.00439453125,[0. 0. 0. 0. 0. 0. 0. 0. 0.]
3.5533318519592285,0.0214433204382658,8.458863158011809e-05,-0.9180286526679993,0.39593401551246643,[0. 0. 0. 0. 0. 0. 0. 0. 0.],0.3662109375,-0.8544921875,-0.1220703125,[0. 0. 0. 0. 0. 0. 0. 0. 0.],-0.03955078125,0.0166015625,1.00341796875,[0. 0. 0. 0. 0. 0. 0. 0. 0.]
3.5781993865966797,0.020856371149420738,-0.0010972577147185802,-0.9180361032485962,0.3959463834762573,[0. 0. 0. 0. 0. 0. 0. 0. 0.],0.0,-0.8544921875,-0.1220703125,[0. 0. 0. 0. 0. 0. 0. 0. 0.],-0.03759765625,0.0185546875,1.0048828125,[0. 0. 0. 0. 0. 0. 0. 0. 0.]
3.5984926223754883,0.021038582548499107,-0.0002581014996394515,-0.91805100440979,0.3959037661552429,[0. 0. 0. 0. 0. 0. 0. 0. 0.],-0.54931640625,-0.732421875,-0.18310546875,[0. 0. 0. 0. 0. 0. 0. 0. 0.],-0.03857421875,0.017578125,1.00537109375,[0. 0. 0. 0. 0. 0. 0. 0. 0.]
3.6182525157928467,0.02127770707011223,-0.0005787273403257132,-0.9180566668510437,0.3958773612976074,[0. 0. 0. 0. 0. 0. 0. 0. 0.],-0.244140625,-0.30517578125,0.0,[0. 0. 0. 0. 0. 0. 0. 0. 0.],-0.0390625,0.0185546875,1.00244140625,[0. 0. 0. 0. 0. 0. 0. 0. 0.]
3.6384549140930176,0.021923722699284554,-0.00032448937417939305,-0.9180614352226257,0.39583152532577515,[0. 0. 0. 0. 0. 0. 0. 0. 0.],0.1220703125,-0.42724609375,-0.06103515625,[0. 0. 0. 0. 0. 0. 0. 0. 0.],-0.0400390625,0.017578125,1.00341796875,[0. 0. 0. 0. 0. 0. 0. 0. 0.]
3.6586570739746094,0.020762773230671883,-0.0003766545560210943,-0.9180968999862671,0.3958117663860321,[0. 0. 0. 0. 0. 0. 0. 0. 0.],0.06103515625,-0.9765625,-0.244140625,[0. 0. 0. 0. 0. 0. 0. 0. 0.],-0.0380859375,0.01708984375,1.005859375,[0. 0. 0. 0. 0. 0. 0. 0. 0.]
3.6781466007232666,0.021409282460808754,-0.00047451237333007157,-0.9180917739868164,0.39578908681869507,[0. 0. 0. 0. 0. 0. 0. 0. 0.],-0.30517578125,-0.91552734375,-0.244140625,[0. 0. 0. 0. 0. 0. 0. 0. 0.],-0.03857421875,0.01806640625,1.001953125,[0. 0. 0. 0. 0. 0. 0. 0. 0.]
3.6982028484344482,0.022130709141492844,-0.0005260022589936852,-0.9180883169174194,0.3957572281360626,[0. 0. 0. 0. 0. 0. 0. 0. 0.],0.06103515625,-0.30517578125,-0.3662109375,[0. 0. 0. 0. 0. 0. 0. 0. 0.],-0.04052734375,0.0185546875,1.0029296875,[0. 0. 0. 0. 0. 0. 0. 0. 0.]
3.718411684036255,0.02250889502465725,0.000582511886022985,-0.9181010127067566,0.3957063853740692,[0. 0. 0. 0. 0. 0. 0. 0. 0.],-0.06103515625,-0.06103515625,0.0,[0. 0. 0. 0. 0. 0. 0. 0. 0.],-0.04248046875,0.017578125,1.00390625,[0. 0. 0. 0. 0. 0. 0. 0. 0.]
3.7382709980010986,0.02254045195877552,0.00022179819643497467,-0.9181041121482849,0.39569786190986633,[0. 0. 0. 0. 0. 0. 0. 0. 0.],-0.18310546875,-0.8544921875,0.0,[0. 0. 0. 0. 0. 0. 0. 0. 0.],-0.0419921875,0.017578125,1.0048828125,[0. 0. 0. 0. 0. 0. 0. 0. 0.]
3.7596373558044434,0.022067461162805557,0.00016613311890978366,-0.9181226491928101,0.3956815302371979,[0. 0. 0. 0. 0. 0. 0. 0. 0.],-0.06103515625,-0.9765625,-0.18310546875,[0. 0. 0. 0. 0. 0. 0. 0. 0.],-0.0400390625,0.01611328125,1.0029296875,[0. 0. 0. 0. 0. 0. 0. 0. 0.]
3.778207778930664,0.02108863927423954,0.0002976569812744856,-0.9181545376777649,0.39566096663475037,[0. 0. 0. 0. 0. 0. 0. 0. 0.],0.244140625,-0.54931640625,-0.18310546875,[0. 0. 0. 0. 0. 0. 0. 0. 0.],-0.03955078125,0.01611328125,1.00439453125,[0. 0. 0. 0. 0. 0. 0. 0. 0.]
3.8015522956848145,0.022285467013716698,-4.227116733090952e-05,-0.9181363582611084,0.3956374526023865,[0. 0. 0. 0. 0. 0. 0. 0. 0.],-0.244140625,-0.3662109375,-0.1220703125,[0. 0. 0. 0. 0. 0. 0. 0. 0.],-0.041015625,0.0185546875,1.00244140625,[0. 0. 0. 0. 0. 0. 0. 0. 0.]
3.818145990371704,0.022168638184666634,-0.0014580638380721211,-0.9181386828422546,0.3956359326839447,[0. 0. 0. 0. 0. 0. 0. 0. 0.],-0.48828125,-0.732421875,-0.18310546875,[0. 0. 0. 0. 0. 0. 0. 0. 0.],-0.03955078125,0.01953125,1.0029296875,[0. 0. 0. 0. 0. 0. 0. 0. 0.]
3.83866810798645,0.021481206640601158,0.00012161194899817929,-0.9181773662567139,0.395586758852005,[0. 0. 0. 0. 0. 0. 0. 0. 0.],0.0,-0.1220703125,-0.06103515625,[0. 0. 0. 0. 0. 0. 0. 0. 0.],-0.0400390625,0.017578125,1.00439453125,[0. 0. 0. 0. 0. 0. 0. 0. 0.]
3.858161687850952,0.022149721160531044,-0.0004467573016881943,-0.9181675314903259,0.3955724835395813,[0. 0. 0. 0. 0. 0. 0. 0. 0.],0.244140625,-0.54931640625,0.06103515625,[0. 0. 0. 0. 0. 0. 0. 0. 0.],-0.0400390625,0.01806640625,1.0029296875,[0. 0. 0. 0. 0. 0. 0. 0. 0.]
3.879189968109131,0.021002348512411118,0.0002953640650957823,-0.9182028770446777,0.3955530524253845,[0. 0. 0. 0. 0. 0. 0. 0. 0.],-0.06103515625,-1.15966796875,-0.1220703125,[0. 0. 0. 0. 0. 0. 0. 0. 0.],-0.0390625,0.01611328125,1.00244140625,[0. 0. 0. 0. 0. 0. 0. 0. 0.]
3.8988568782806396,0.021556366235017776,-0.0005300389020703733,-0.9181908369064331,0.39555126428604126,[0. 0. 0. 0. 0. 0. 0. 0. 0.],-0.30517578125,-0.8544921875,-0.18310546875,[0. 0. 0. 0. 0. 0. 0. 0. 0.],-0.03955078125,0.01806640625,1.0029296875,[0. 0. 0. 0. 0. 0. 0. 0. 0.]
3.918595314025879,0.021586835384368896,0.00020709856471512467,-0.9182047843933105,0.3955174386501312,[0. 0. 0. 0. 0. 0. 0. 0. 0.],-0.1220703125,-0.1220703125,-0.06103515625,[0. 0. 0. 0. 0. 0. 0. 0. 0.],-0.0400390625,0.01708984375,1.0029296875,[0. 0. 0. 0. 0. 0. 0. 0. 0.]
3.9341039657592773,0.021916905418038368,0.0009038833086378872,-0.9182102084159851,0.3954857885837555,[0. 0. 0. 0. 0. 0. 0. 0. 0.],0.0,-0.42724609375,0.0,[0. 0. 0. 0. 0. 0. 0. 0. 0.],-0.04150390625,0.01611328125,1.00244140625,[0. 0. 0. 0. 0. 0. 0. 0. 0.]
3.958979368209839,0.022198639810085297,0.0001507401029812172,-0.9182097911834717,0.39547184109687805,[0. 0. 0. 0. 0. 0. 0. 0. 0.],-0.30517578125,-0.91552734375,-0.1220703125,[0. 0. 0. 0. 0. 0. 0. 0. 0.],-0.041015625,0.017578125,1.00439453125,[0. 0. 0. 0. 0. 0. 0. 0. 0.]
3.9783499240875244,0.02220492996275425,-0.0005379661452025175,-0.9182154536247253,0.3954581618309021,[0. 0. 0. 0. 0. 0. 0. 0. 0.],0.1220703125,-1.03759765625,-0.244140625,[0. 0. 0. 0. 0. 0. 0. 0. 0.],-0.041015625,0.01806640625,1.00341796875,[0. 0. 0. 0. 0. 0. 0. 0. 0.]
4.000815391540527,0.022075556218624115,-0.000264528498519212,-0.9182350635528564,0.3954199254512787,[0. 0. 0. 0. 0. 0. 0. 0. 0.],0.0,-0.3662109375,-0.1220703125,[0. 0. 0. 0. 0. 0. 0. 0. 0.],-0.041015625,0.0185546875,1.00537109375,[0. 0. 0. 0. 0. 0. 0. 0. 0.]
4.018378734588623,0.022081928327679634,-0.0001643412688281387,-0.9182437658309937,0.39539968967437744,[0. 0. 0. 0. 0. 0. 0. 0. 0.],-0.42724609375,-0.3662109375,0.0,[0. 0. 0. 0. 0. 0. 0. 0. 0.],-0.04052734375,0.017578125,1.00390625,[0. 0. 0. 0. 0. 0. 0. 0. 0.]
4.038991928100586,0.021579109132289886,-0.0004209202015772462,-0.918260395526886,0.39538857340812683,[0. 0. 0. 0. 0. 0. 0. 0. 0.],-0.1220703125,-0.732421875,-0.06103515625,[0. 0. 0. 0. 0. 0. 0. 0. 0.],-0.03955078125,0.01806640625,1.0048828125,[0. 0. 0. 0. 0. 0. 0. 0. 0.]
4.0585243701934814,0.021825440227985382,-0.0004019940388388932,-0.918269157409668,0.39535462856292725,[0. 0. 0. 0. 0. 0. 0. 0. 0.],0.244140625,-0.8544921875,-0.30517578125,[0. 0. 0. 0. 0. 0. 0. 0. 0.],-0.04052734375,0.017578125,1.005859375,[0. 0. 0. 0. 0. 0. 0. 0. 0.]
4.078336238861084,0.021656669676303864,-0.000546331808436662,-0.9182805418968201,0.39533740282058716,[0. 0. 0. 0. 0. 0. 0. 0. 0.],0.18310546875,-0.8544921875,-0.1220703125,[0. 0. 0. 0. 0. 0. 0. 0. 0.],-0.03955078125,0.01806640625,1.0048828125,[0. 0. 0. 0. 0. 0. 0. 0. 0.]
4.098647117614746,0.021540049463510513,8.123314182739705e-05,-0.9182999134063721,0.3952990472316742,[0. 0. 0. 0. 0. 0. 0. 0. 0.],-0.48828125,-0.6103515625,-0.18310546875,[0. 0. 0. 0. 0. 0. 0. 0. 0.],-0.0400390625,0.01708984375,1.0029296875,[0. 0. 0. 0. 0. 0. 0. 0. 0.]
4.118527412414551,0.02210955135524273,-0.0005553507944568992,-0.9182916879653931,0.3952864706516266,[0. 0. 0. 0. 0. 0. 0. 0. 0.],-0.244140625,-0.42724609375,0.06103515625,[0. 0. 0. 0. 0. 0. 0. 0. 0.],-0.04052734375,0.01904296875,1.00537109375,[0. 0. 0. 0. 0. 0. 0. 0. 0.]
4.133662223815918,0.02147003263235092,-0.0010060070781037211,-0.9183158278465271,0.3952646553516388,[0. 0. 0. 0. 0. 0. 0. 0. 0.],0.3662109375,-0.54931640625,-0.1220703125,[0. 0. 0. 0. 0. 0. 0. 0. 0.],-0.0390625,0.01904296875,1.00439453125,[0. 0. 0. 0. 0. 0. 0. 0. 0.]
4.160322666168213,0.021740885451436043,-0.0002049048343906179,-0.918323814868927,0.39523255825042725,[0. 0. 0. 0. 0. 0. 0. 0. 0.],0.06103515625,-1.0986328125,-0.1220703125,[0. 0. 0. 0. 0. 0. 0. 0. 0.],-0.0400390625,0.017578125,1.00244140625,[0. 0. 0. 0. 0. 0. 0. 0. 0.]
4.178943395614624,0.02124307118356228,-0.0008399452199228108,-0.9183346629142761,0.39523351192474365,[0. 0. 0. 0. 0. 0. 0. 0. 0.],-0.42724609375,-1.03759765625,-0.18310546875,[0. 0. 0. 0. 0. 0. 0. 0. 0.],-0.0390625,0.0185546875,1.00634765625,[0. 0. 0. 0. 0. 0. 0. 0. 0.]
4.198172569274902,0.021269306540489197,-0.00048731081187725067,-0.9183485507965088,0.3952004909515381,[0. 0. 0. 0. 0. 0. 0. 0. 0.],-0.1220703125,-0.244140625,-0.06103515625,[0. 0. 0. 0. 0. 0. 0. 0. 0.],-0.0390625,0.01806640625,1.00634765625,[0. 0. 0. 0. 0. 0. 0. 0. 0.]
4.218484401702881,0.02160440757870674,0.00031962565844878554,-0.9183571934700012,0.39516234397888184,[0. 0. 0. 0. 0. 0. 0. 0. 0.],-0.06103515625,0.0,0.0,[0. 0. 0. 0. 0. 0. 0. 0. 0.],-0.03955078125,0.01806640625,1.001953125,[0. 0. 0. 0. 0. 0. 0. 0. 0.]
4.238192796707153,0.021335149183869362,-6.877621490275487e-05,-0.9183690547943115,0.3951494097709656,[0. 0. 0. 0. 0. 0. 0. 0. 0.],-0.18310546875,-0.91552734375,0.0,[0. 0. 0. 0. 0. 0. 0. 0. 0.],-0.03955078125,0.01708984375,1.00390625,[0. 0. 0. 0. 0. 0. 0. 0. 0.]
4.2611083984375,0.021951738744974136,-1.8825984398063156e-06,-0.9183670282363892,0.3951205313205719,[0. 0. 0. 0. 0. 0. 0. 0. 0.],-0.06103515625,-1.03759765625,-0.30517578125,[0. 0. 0. 0. 0. 0. 0. 0. 0.],-0.0400390625,0.01708984375,1.00341796875,[0. 0. 0. 0. 0. 0. 0. 0. 0.]
4.278487205505371,0.021494479849934578,-0.00028846273198723793,-0.9183839559555054,0.39510613679885864,[0. 0. 0. 0. 0. 0. 0. 0. 0.],-0.732421875,-0.6103515625,-0.244140625,[0. 0. 0. 0. 0. 0. 0. 0. 0.],-0.03857421875,0.01318359375,1.00390625,[0. 0. 0. 0. 0. 0. 0. 0. 0.]
4.2988808155059814,0.020501213148236275,0.0025850380770862103,-0.9183672070503235,0.3951896131038666,[0. 0. 0. 0. 0. 0. 0. 0. 0.],-4.638671875,-1.03759765625,0.48828125,[0. 0. 0. 0. 0. 0. 0. 0. 0.],-0.03271484375,-0.24853515625,0.97900390625,[0. 0. 0. 0. 0. 0. 0. 0. 0.]
4.319578170776367,0.020294276997447014,0.003727526171132922,-0.9185120463371277,0.3948543965816498,[0. 0. 0. 0. 0. 0. 0. 0. 0.],8.30078125,10.55908203125,1.77001953125,[0. 0. 0. 0. 0. 0. 0. 0. 0.],-0.0458984375,-0.11181640625,1.07763671875,[0. 0. 0. 0. 0. 0. 0. 0. 0.]
4.338879823684692,0.020363805815577507,0.004247543402016163,-0.9187973141670227,0.39418110251426697,[0. 0. 0. 0. 0. 0. 0. 0. 0.],-1.220703125,6.04248046875,-2.0751953125,[0. 0. 0. 0. 0. 0. 0. 0. 0.],-0.0498046875,0.0087890625,0.95361328125,[0. 0. 0. 0. 0. 0. 0. 0. 0.]
4.3583784103393555,0.021412566304206848,0.00591637147590518,-0.9191061854362488,0.39338305592536926,[0. 0. 0. 0. 0. 0. 0. 0. 0.],-2.50244140625,1.64794921875,-3.90625,[0. 0. 0. 0. 0. 0. 0. 0. 0.],-0.0712890625,-0.03857421875,0.97509765625,[0. 0. 0. 0. 0. 0. 0. 0. 0.]
4.373591423034668,0.021069422364234924,0.008325576782226562,-0.9195106625556946,0.39241182804107666,[0. 0. 0. 0. 0. 0. 0. 0. 0.],-4.08935546875,4.21142578125,-5.43212890625,[0. 0. 0. 0. 0. 0. 0. 0. 0.],-0.04541015625,-0.1171875,1.03564453125,[0. 0. 0. 0. 0. 0. 0. 0. 0.]
4.39756441116333,0.019820528104901314,0.01077069528400898,-0.9201591610908508,0.3908943831920624,[0. 0. 0. 0. 0. 0. 0. 0. 0.],-2.99072265625,-0.06103515625,-10.1318359375,[0. 0. 0. 0. 0. 0. 0. 0. 0.],-0.017578125,-0.25634765625,1.0068359375,[0. 0. 0. 0. 0. 0. 0. 0. 0.]
4.413949489593506,0.019710034132003784,0.012801192700862885,-0.9208795428276062,0.3891383111476898,[0. 0. 0. 0. 0. 0. 0. 0. 0.],-0.244140625,4.5166015625,-11.1083984375,[0. 0. 0. 0. 0. 0. 0. 0. 0.],-0.0751953125,-0.2734375,1.02685546875,[0. 0. 0. 0. 0. 0. 0. 0. 0.]
4.433612585067749,0.01950080506503582,0.01461004838347435,-0.921737551689148,0.3870479464530945,[0. 0. 0. 0. 0. 0. 0. 0. 0.],-0.54931640625,1.708984375,-14.0380859375,[0. 0. 0. 0. 0. 0. 0. 0. 0.],-0.11083984375,-0.24267578125,0.9375,[0. 0. 0. 0. 0. 0. 0. 0. 0.]
4.458591938018799,0.018807943910360336,0.016796069219708443,-0.922935426235199,0.3841281831264496,[0. 0. 0. 0. 0. 0. 0. 0. 0.],-4.45556640625,1.3427734375,-18.6767578125,[0. 0. 0. 0. 0. 0. 0. 0. 0.],-0.07275390625,-0.251953125,0.9677734375,[0. 0. 0. 0. 0. 0. 0. 0. 0.]
4.478772878646851,0.01798303797841072,0.018888352438807487,-0.9244564771652222,0.38039475679397583,[0. 0. 0. 0. 0. 0. 0. 0. 0.],0.244140625,-1.52587890625,-24.71923828125,[0. 0. 0. 0. 0. 0. 0. 0. 0.],-0.05810546875,-0.3017578125,1.021484375,[0. 0. 0. 0. 0. 0. 0. 0. 0.]
4.4989705085754395,0.01703502982854843,0.020541297271847725,-0.9262720346450806,0.3759097456932068,[0. 0. 0. 0. 0. 0. 0. 0. 0.],-0.67138671875,-3.96728515625,-29.9072265625,[0. 0. 0. 0. 0. 0. 0. 0. 0.],-0.0830078125,-0.296875,1.0029296875,[0. 0. 0. 0. 0. 0. 0. 0. 0.]
4.519373178482056,0.016537072136998177,0.022052709013223648,-0.9282134175300598,0.3710257112979889,[0. 0. 0. 0. 0. 0. 0. 0. 0.],0.0,-0.06103515625,-30.82275390625,[0. 0. 0. 0. 0. 0. 0. 0. 0.],-0.09814453125,-0.2978515625,1.0234375,[0. 0. 0. 0. 0. 0. 0. 0. 0.]
4.539773225784302,0.016307855024933815,0.023032275959849358,-0.9303770661354065,0.36551621556282043,[0. 0. 0. 0. 0. 0. 0. 0. 0.],3.84521484375,0.18310546875,-35.64453125,[0. 0. 0. 0. 0. 0. 0. 0. 0.],-0.04638671875,-0.2919921875,0.99755859375,[0. 0. 0. 0. 0. 0. 0. 0. 0.]
4.558448314666748,0.016166960820555687,0.02432406134903431,-0.9327600598335266,0.3593127131462097,[0. 0. 0. 0. 0. 0. 0. 0. 0.],0.3662109375,0.1220703125,-41.259765625,[0. 0. 0. 0. 0. 0. 0. 0. 0.],-0.0634765625,-0.27685546875,0.95751953125,[0. 0. 0. 0. 0. 0. 0. 0. 0.]
4.578200101852417,0.016362378373742104,0.025960566475987434,-0.9352890849113464,0.3525519073009491,[0. 0. 0. 0. 0. 0. 0. 0. 0.],-2.0751953125,-1.52587890625,-44.37255859375,[0. 0. 0. 0. 0. 0. 0. 0. 0.],-0.06884765625,-0.2578125,0.9609375,[0. 0. 0. 0. 0. 0. 0. 0. 0.]
4.5981926918029785,0.01630571112036705,0.029004337266087532,-0.9379682540893555,0.34512102603912354,[0. 0. 0. 0. 0. 0. 0. 0. 0.],-7.75146484375,10.498046875,-44.86083984375,[0. 0. 0. 0. 0. 0. 0. 0. 0.],-0.09033203125,-0.2392578125,0.91259765625,[0. 0. 0. 0. 0. 0. 0. 0. 0.]
4.6183226108551025,0.01674339547753334,0.03253105655312538,-0.9406642913818359,0.33736032247543335,[0. 0. 0. 0. 0. 0. 0. 0. 0.],-5.4931640625,9.82666015625,-46.08154296875,[0. 0. 0. 0. 0. 0. 0. 0. 0.],-0.08935546875,-0.3115234375,1.04638671875,[0. 0. 0. 0. 0. 0. 0. 0. 0.]
4.63871693611145,0.016398727893829346,0.03450730815529823,-0.943152129650116,0.33015817403793335,[0. 0. 0. 0. 0. 0. 0. 0. 0.],1.8310546875,-1.28173828125,-40.0390625,[0. 0. 0. 0. 0. 0. 0. 0. 0.],-0.20654296875,-0.34130859375,1.09912109375,[0. 0. 0. 0. 0. 0. 0. 0. 0.]
4.6583497524261475,0.016491906717419624,0.035202763974666595,-0.9450386166572571,0.3246394395828247,[0. 0. 0. 0. 0. 0. 0. 0. 0.],7.50732421875,-1.3427734375,-30.029296875,[0. 0. 0. 0. 0. 0. 0. 0. 0.],-0.16650390625,-0.3173828125,1.03955078125,[0. 0. 0. 0. 0. 0. 0. 0. 0.]
4.678457021713257,0.016348255798220634,0.0352574847638607,-0.9463891386985779,0.32068249583244324,[0. 0. 0. 0. 0. 0. 0. 0. 0.],7.2021484375,-2.5634765625,-20.751953125,[0. 0. 0. 0. 0. 0. 0. 0. 0.],-0.080078125,-0.27880859375,0.99560546875,[0. 0. 0. 0. 0. 0. 0. 0. 0.]
4.6987221240997314,0.01514812558889389,0.03586510196328163,-0.9472983479499817,0.3179781436920166,[0. 0. 0. 0. 0. 0. 0. 0. 0.],0.48828125,-4.69970703125,-13.12255859375,[0. 0. 0. 0. 0. 0. 0. 0. 0.],-0.05078125,-0.2197265625,0.90185546875,[0. 0. 0. 0. 0. 0. 0. 0. 0.]
4.718326568603516,0.013419099152088165,0.03765629976987839,-0.9477325677871704,0.31655165553092957,[0. 0. 0. 0. 0. 0. 0. 0. 0.],-2.13623046875,-6.04248046875,-6.28662109375,[0. 0. 0. 0. 0. 0. 0. 0. 0.],-0.0185546875,-0.2353515625,0.91796875,[0. 0. 0. 0. 0. 0. 0. 0. 0.]
4.738711595535278,0.011251327581703663,0.03909566253423691,-0.9478276371955872,0.31617656350135803,[0. 0. 0. 0. 0. 0. 0. 0. 0.],0.42724609375,-7.9345703125,-0.79345703125,[0. 0. 0. 0. 0. 0. 0. 0. 0.],-0.01123046875,-0.23583984375,0.91015625,[0. 0. 0. 0. 0. 0. 0. 0. 0.]
4.760603427886963,0.010501218028366566,0.03973344713449478,-0.9479455947875977,0.3157690763473511,[0. 0. 0. 0. 0. 0. 0. 0. 0.],3.96728515625,0.67138671875,-1.28173828125,[0. 0. 0. 0. 0. 0. 0. 0. 0.],0.0517578125,-0.1943359375,1.1220703125,[0. 0. 0. 0. 0. 0. 0. 0. 0.]
4.779207229614258,0.00953295361250639,0.04002693295478821,-0.9479909539222717,0.31562671065330505,[0. 0. 0. 0. 0. 0. 0. 0. 0.],5.2490234375,-11.962890625,-2.74658203125,[0. 0. 0. 0. 0. 0. 0. 0. 0.],-0.0947265625,-0.1669921875,1.11376953125,[0. 0. 0. 0. 0. 0. 0. 0. 0.]
4.798166990280151,0.008341292850673199,0.04011711850762367,-0.9481691718101501,0.3151130676269531,[0. 0. 0. 0. 0. 0. 0. 0. 0.],6.40869140625,-4.69970703125,-3.41796875,[0. 0. 0. 0. 0. 0. 0. 0. 0.],-0.03564453125,-0.14208984375,0.96044921875,[0. 0. 0. 0. 0. 0. 0. 0. 0.]
4.813868045806885,0.007380441762506962,0.04015208035707474,-0.9484882354736328,0.31417128443717957,[0. 0. 0. 0. 0. 0. 0. 0. 0.],0.9765625,1.0986328125,-5.43212890625,[0. 0. 0. 0. 0. 0. 0. 0. 0.],0.0234375,-0.1025390625,0.97705078125,[0. 0. 0. 0. 0. 0. 0. 0. 0.]
4.8383262157440186,0.006456052418798208,0.04097812622785568,-0.948745846748352,0.3133057653903961,[0. 0. 0. 0. 0. 0. 0. 0. 0.],3.60107421875,-5.79833984375,-6.04248046875,[0. 0. 0. 0. 0. 0. 0. 0. 0.],-0.052734375,-0.10791015625,0.9921875,[0. 0. 0. 0. 0. 0. 0. 0. 0.]
4.85827112197876,0.005646257195621729,0.04153761267662048,-0.9491927027702332,0.31189119815826416,[0. 0. 0. 0. 0. 0. 0. 0. 0.],-1.0986328125,9.521484375,-8.30078125,[0. 0. 0. 0. 0. 0. 0. 0. 0.],0.078125,-0.0869140625,0.9765625,[0. 0. 0. 0. 0. 0. 0. 0. 0.]
4.878109455108643,0.005711657926440239,0.04237791895866394,-0.9496249556541443,0.3104577958583832,[0. 0. 0. 0. 0. 0. 0. 0. 0.],3.7841796875,10.498046875,-7.50732421875,[0. 0. 0. 0. 0. 0. 0. 0. 0.],-0.01416015625,-0.10986328125,0.93798828125,[0. 0. 0. 0. 0. 0. 0. 0. 0.]
4.8984150886535645,0.0062808264046907425,0.042642150074243546,-0.9499459266662598,0.30942708253860474,[0. 0. 0. 0. 0. 0. 0. 0. 0.],-0.1220703125,-12.39013671875,-5.55419921875,[0. 0. 0. 0. 0. 0. 0. 0. 0.],-0.1611328125,-0.068359375,0.94189453125,[0. 0. 0. 0. 0. 0. 0. 0. 0.]
4.913132667541504,0.006843913812190294,0.04159540310502052,-0.9502753019332886,0.3085446357727051,[0. 0. 0. 0. 0. 0. 0. 0. 0.],2.9296875,6.53076171875,-6.9580078125,[0. 0. 0. 0. 0. 0. 0. 0. 0.],-0.033203125,-0.01806640625,1.1123046875,[0. 0. 0. 0. 0. 0. 0. 0. 0.]
4.938532829284668,0.008564187213778496,0.03887751325964928,-0.9507975578308105,0.30724483728408813,[0. 0. 0. 0. 0. 0. 0. 0. 0.],13.24462890625,2.3193359375,-7.99560546875,[0. 0. 0. 0. 0. 0. 0. 0. 0.],-0.0224609375,0.0771484375,1.13916015625,[0. 0. 0. 0. 0. 0. 0. 0. 0.]
4.958662748336792,0.008738626725971699,0.03639193996787071,-0.9512849450111389,0.306033194065094,[0. 0. 0. 0. 0. 0. 0. 0. 0.],-1.77001953125,-6.77490234375,-7.26318359375,[0. 0. 0. 0. 0. 0. 0. 0. 0.],-0.123046875,0.13916015625,0.8330078125,[0. 0. 0. 0. 0. 0. 0. 0. 0.]
4.979549169540405,0.00840771570801735,0.036019183695316315,-0.951633095741272,0.30500224232673645,[0. 0. 0. 0. 0. 0. 0. 0. 0.],-12.87841796875,-4.45556640625,-6.7138671875,[0. 0. 0. 0. 0. 0. 0. 0. 0.],-0.07080078125,0.12890625,0.83935546875,[0. 0. 0. 0. 0. 0. 0. 0. 0.]
4.999666213989258,0.00858837366104126,0.036042116582393646,-0.9519040584564209,0.304147869348526,[0. 0. 0. 0. 0. 0. 0. 0. 0.],-3.0517578125,7.01904296875,-5.67626953125,[0. 0. 0. 0. 0. 0. 0. 0. 0.],-0.0380859375,0.044921875,1.0185546875,[0. 0. 0. 0. 0. 0. 0. 0. 0.]
5.01830267906189,0.009216401726007462,0.033875998109579086,-0.952153742313385,0.303596556186676,[0. 0. 0. 0. 0. 0. 0. 0. 0.],5.55419921875,-6.16455078125,-2.8076171875,[0. 0. 0. 0. 0. 0. 0. 0. 0.],-0.1142578125,0.052734375,1.15869140625,[0. 0. 0. 0. 0. 0. 0. 0. 0.]
5.0385565757751465,0.009645204059779644,0.031944047659635544,-0.9523261189460754,0.3032517731189728,[0. 0. 0. 0. 0. 0. 0. 0. 0.],4.2724609375,-6.34765625,-2.62451171875,[0. 0. 0. 0. 0. 0. 0. 0. 0.],-0.09521484375,0.10693359375,1.06005859375,[0. 0. 0. 0. 0. 0. 0. 0. 0.]
5.058132648468018,0.0095343803986907,0.029377013444900513,-0.9525132775306702,0.30292677879333496,[0. 0. 0. 0. 0. 0. 0. 0. 0.],6.04248046875,2.13623046875,-3.84521484375,[0. 0. 0. 0. 0. 0. 0. 0. 0.],-0.03564453125,0.095703125,1.03466796875,[0. 0. 0. 0. 0. 0. 0. 0. 0.]
5.078329563140869,0.01145925372838974,0.02799244597554207,-0.9529744982719421,0.3015373647212982,[0. 0. 0. 0. 0. 0. 0. 0. 0.],0.3662109375,8.23974609375,-11.29150390625,[0. 0. 0. 0. 0. 0. 0. 0. 0.],-0.0146484375,0.13037109375,1.015625,[0. 0. 0. 0. 0. 0. 0. 0. 0.]
5.098225831985474,0.013103555887937546,0.026933446526527405,-0.9539999961853027,0.29830679297447205,[0. 0. 0. 0. 0. 0. 0. 0. 0.],0.0,5.67626953125,-24.7802734375,[0. 0. 0. 0. 0. 0. 0. 0. 0.],-0.12158203125,0.130859375,0.94091796875,[0. 0. 0. 0. 0. 0. 0. 0. 0.]
5.118420600891113,0.016077855601906776,0.026541179046034813,-0.9557403922080994,0.2925705015659332,[0. 0. 0. 0. 0. 0. 0. 0. 0.],-5.615234375,18.06640625,-40.22216796875,[0. 0. 0. 0. 0. 0. 0. 0. 0.],-0.046875,0.09326171875,0.9326171875,[0. 0. 0. 0. 0. 0. 0. 0. 0.]
5.140540838241577,0.02023792639374733,0.027632202953100204,-0.9580355286598206,0.2845957577228546,[0. 0. 0. 0. 0. 0. 0. 0. 0.],2.86865234375,6.40869140625,-54.26025390625,[0. 0. 0. 0. 0. 0. 0. 0. 0.],-0.12890625,-0.04052734375,1.03466796875,[0. 0. 0. 0. 0. 0. 0. 0. 0.]
5.160001039505005,0.02199886180460453,0.025724943727254868,-0.9618657827377319,0.2714194655418396,[0. 0. 0. 0. 0. 0. 0. 0. 0.],5.31005859375,-1.89208984375,-71.044921875,[0. 0. 0. 0. 0. 0. 0. 0. 0.],-0.17138671875,0.06640625,1.0810546875,[0. 0. 0. 0. 0. 0. 0. 0. 0.]
5.1795196533203125,0.02358379401266575,0.02485821209847927,-0.9644576907157898,0.26200640201568604,[0. 0. 0. 0. 0. 0. 0. 0. 0.],4.21142578125,9.033203125,-75.5615234375,[0. 0. 0. 0. 0. 0. 0. 0. 0.],-0.1689453125,0.05908203125,1.02197265625,[0. 0. 0. 0. 0. 0. 0. 0. 0.]
5.198463678359985,0.026808202266693115,0.024317460134625435,-0.9679057598114014,0.24869373440742493,[0. 0. 0. 0. 0. 0. 0. 0. 0.],6.53076171875,7.568359375,-80.6884765625,[0. 0. 0. 0. 0. 0. 0. 0. 0.],-0.205078125,0.0078125,1.0615234375,[0. 0. 0. 0. 0. 0. 0. 0. 0.]
5.218516111373901,0.02835085801780224,0.023930339142680168,-0.971362829208374,0.23468679189682007,[0. 0. 0. 0. 0. 0. 0. 0. 0.],2.197265625,-0.91552734375,-84.04541015625,[0. 0. 0. 0. 0. 0. 0. 0. 0.],-0.2529296875,0.01611328125,0.96630859375,[0. 0. 0. 0. 0. 0. 0. 0. 0.]
5.238400936126709,0.030223943293094635,0.024373846128582954,-0.9746054410934448,0.2205376923084259,[0. 0. 0. 0. 0. 0. 0. 0. 0.],1.953125,3.2958984375,-82.82470703125,[0. 0. 0. 0. 0. 0. 0. 0. 0.],-0.18603515625,-0.01904296875,0.90576171875,[0. 0. 0. 0. 0. 0. 0. 0. 0.]
5.259690523147583,0.03149650990962982,0.025352763012051582,-0.9774882793426514,0.20707964897155762,[0. 0. 0. 0. 0. 0. 0. 0. 0.],-0.67138671875,-8.056640625,-75.5615234375,[0. 0. 0. 0. 0. 0. 0. 0. 0.],-0.2783203125,-0.0390625,0.9130859375,[0. 0. 0. 0. 0. 0. 0. 0. 0.]
5.2782142162323,0.032274238765239716,0.02612767554819584,-0.979933500289917,0.19495153427124023,[0. 0. 0. 0. 0. 0. 0. 0. 0.],2.13623046875,4.150390625,-67.5048828125,[0. 0. 0. 0. 0. 0. 0. 0. 0.],-0.22509765625,-0.0517578125,1.0703125,[0. 0. 0. 0. 0. 0. 0. 0. 0.]
5.29827356338501,0.03296279534697533,0.026108823716640472,-0.9819880127906799,0.184204563498497,[0. 0. 0. 0. 0. 0. 0. 0. 0.],5.31005859375,-8.23974609375,-57.9833984375,[0. 0. 0. 0. 0. 0. 0. 0. 0.],-0.2216796875,-0.0556640625,1.08544921875,[0. 0. 0. 0. 0. 0. 0. 0. 0.]
5.318048000335693,0.032555680721998215,0.026280706748366356,-0.9835733771324158,0.17559272050857544,[0. 0. 0. 0. 0. 0. 0. 0. 0.],-1.5869140625,-11.53564453125,-44.43359375,[0. 0. 0. 0. 0. 0. 0. 0. 0.],-0.185546875,-0.03369140625,0.982421875,[0. 0. 0. 0. 0. 0. 0. 0. 0.]
5.3394856452941895,0.03133859857916832,0.026909681037068367,-0.9846664071083069,0.1694873869419098,[0. 0. 0. 0. 0. 0. 0. 0. 0.],1.0986328125,-11.16943359375,-30.3955078125,[0. 0. 0. 0. 0. 0. 0. 0. 0.],-0.07421875,-0.0537109375,0.951171875,[0. 0. 0. 0. 0. 0. 0. 0. 0.]
5.35938024520874,0.03059976175427437,0.02684079110622406,-0.9853688478469849,0.16550379991531372,[0. 0. 0. 0. 0. 0. 0. 0. 0.],-0.06103515625,13.61083984375,-18.37158203125,[0. 0. 0. 0. 0. 0. 0. 0. 0.],0.1015625,-0.02734375,0.9921875,[0. 0. 0. 0. 0. 0. 0. 0. 0.]
5.37846302986145,0.030928781256079674,0.025897983461618423,-0.9857089519500732,0.16355614364147186,[0. 0. 0. 0. 0. 0. 0. 0. 0.],0.91552734375,-5.9814453125,-8.23974609375,[0. 0. 0. 0. 0. 0. 0. 0. 0.],-0.10888671875,0.0048828125,0.953125,[0. 0. 0. 0. 0. 0. 0. 0. 0.]
5.39815092086792,0.031137995421886444,0.024700304493308067,-0.985916018486023,0.16245022416114807,[0. 0. 0. 0. 0. 0. 0. 0. 0.],-1.89208984375,-0.67138671875,-6.65283203125,[0. 0. 0. 0. 0. 0. 0. 0. 0.],-0.0556640625,0.0283203125,1.11572265625,[0. 0. 0. 0. 0. 0. 0. 0. 0.]
5.4181365966796875,0.030956728383898735,0.02348383702337742,-0.9861278533935547,0.16137561202049255,[0. 0. 0. 0. 0. 0. 0. 0. 0.],2.685546875,5.18798828125,-6.8359375,[0. 0. 0. 0. 0. 0. 0. 0. 0.],-0.0263671875,0.00341796875,1.11474609375,[0. 0. 0. 0. 0. 0. 0. 0. 0.]
5.433517932891846,0.03143993392586708,0.02155453711748123,-0.9863346815109253,0.16028404235839844,[0. 0. 0. 0. 0. 0. 0. 0. 0.],5.2490234375,-8.544921875,-6.2255859375,[0. 0. 0. 0. 0. 0. 0. 0. 0.],-0.12451171875,0.009765625,0.904296875,[0. 0. 0. 0. 0. 0. 0. 0. 0.]
5.453161954879761,0.03148295730352402,0.0208226777613163,-0.9865174889564514,0.15924419462680817,[0. 0. 0. 0. 0. 0. 0. 0. 0.],-5.2490234375,1.28173828125,-6.77490234375,[0. 0. 0. 0. 0. 0. 0. 0. 0.],-0.06494140625,0.052734375,0.85888671875,[0. 0. 0. 0. 0. 0. 0. 0. 0.]
5.478149175643921,0.03156924247741699,0.020368222147226334,-0.986763596534729,0.157754048705101,[0. 0. 0. 0. 0. 0. 0. 0. 0.],0.91552734375,5.55419921875,-9.46044921875,[0. 0. 0. 0. 0. 0. 0. 0. 0.],0.01171875,-0.0048828125,1.1337890625,[0. 0. 0. 0. 0. 0. 0. 0. 0.]
5.497943162918091,0.031993843615055084,0.019062301144003868,-0.9870027303695679,0.15632866322994232,[0. 0. 0. 0. 0. 0. 0. 0. 0.],2.44140625,-3.7841796875,-6.7138671875,[0. 0. 0. 0. 0. 0. 0. 0. 0.],-0.1201171875,0.00439453125,1.0029296875,[0. 0. 0. 0. 0. 0. 0. 0. 0.]
5.518364191055298,0.032277464866638184,0.018373627215623856,-0.9871666431427002,0.15531501173973083,[0. 0. 0. 0. 0. 0. 0. 0. 0.],-9.46044921875,-2.9296875,-6.40869140625,[0. 0. 0. 0. 0. 0. 0. 0. 0.],-0.0986328125,0.05517578125,0.8720703125,[0. 0. 0. 0. 0. 0. 0. 0. 0.]
5.539837121963501,0.032843638211488724,0.01862669549882412,-0.9872418642044067,0.15468649566173553,[0. 0. 0. 0. 0. 0. 0. 0. 0.],-3.5400390625,-2.50244140625,-4.150390625,[0. 0. 0. 0. 0. 0. 0. 0. 0.],-0.1103515625,0.01171875,1.03076171875,[0. 0. 0. 0. 0. 0. 0. 0. 0.]
5.558187484741211,0.033658623695373535,0.017884984612464905,-0.9873306751251221,0.1540304571390152,[0. 0. 0. 0. 0. 0. 0. 0. 0.],4.0283203125,-7.2021484375,-2.74658203125,[0. 0. 0. 0. 0. 0. 0. 0. 0.],-0.1201171875,-0.01513671875,1.123046875,[0. 0. 0. 0. 0. 0. 0. 0. 0.]
5.578807353973389,0.03342277556657791,0.01652815192937851,-0.9874492287635803,0.15347255766391754,[0. 0. 0. 0. 0. 0. 0. 0. 0.],-3.90625,-4.08935546875,-3.11279296875,[0. 0. 0. 0. 0. 0. 0. 0. 0.],-0.06640625,0.05517578125,0.9580078125,[0. 0. 0. 0. 0. 0. 0. 0. 0.]
5.598345994949341,0.03172609210014343,0.015361573547124863,-0.9876415729522705,0.15271426737308502,[0. 0. 0. 0. 0. 0. 0. 0. 0.],-2.62451171875,0.3662109375,-6.16455078125,[0. 0. 0. 0. 0. 0. 0. 0. 0.],0.0087890625,0.01953125,0.96728515625,[0. 0. 0. 0. 0. 0. 0. 0. 0.]
5.6180901527404785,0.03190666809678078,0.014837007969617844,-0.9878396987915039,0.15144230425357819,[0. 0. 0. 0. 0. 0. 0. 0. 0.],2.0751953125,17.08984375,-6.77490234375,[0. 0. 0. 0. 0. 0. 0. 0. 0.],0.099609375,0.00732421875,1.01904296875,[0. 0. 0. 0. 0. 0. 0. 0. 0.]
5.638293981552124,0.03135169297456741,0.013218947686254978,-0.9880176186561584,0.15054386854171753,[0. 0. 0. 0. 0. 0. 0. 0. 0.],1.0986328125,-11.04736328125,-5.4931640625,[0. 0. 0. 0. 0. 0. 0. 0. 0.],-0.11279296875,0.0419921875,1.03271484375,[0. 0. 0. 0. 0. 0. 0. 0. 0.]
5.659202337265015,0.030640801414847374,0.01207401230931282,-0.9882134199142456,0.14949797093868256,[0. 0. 0. 0. 0. 0. 0. 0. 0.],-3.662109375,2.44140625,-7.080078125,[0. 0. 0. 0. 0. 0. 0. 0. 0.],0.00732421875,0.06298828125,1.11181640625,[0. 0. 0. 0. 0. 0. 0. 0. 0.]
5.678266525268555,0.03027833066880703,0.010792925022542477,-0.9884527325630188,0.14808154106140137,[0. 0. 0. 0. 0. 0. 0. 0. 0.],4.21142578125,0.18310546875,-7.99560546875,[0. 0. 0. 0. 0. 0. 0. 0. 0.],-0.06005859375,0.00244140625,1.00732421875,[0. 0. 0. 0. 0. 0. 0. 0. 0.]
5.698340654373169,0.030216723680496216,0.009576791897416115,-0.9886915683746338,0.1465754210948944,[0. 0. 0. 0. 0. 0. 0. 0. 0.],-2.25830078125,-6.77490234375,-8.7890625,[0. 0. 0. 0. 0. 0. 0. 0. 0.],-0.10888671875,0.044921875,0.826171875,[0. 0. 0. 0. 0. 0. 0. 0. 0.]
5.719509840011597,0.03024822100996971,0.00932461116462946,-0.9889463186264038,0.14485661685466766,[0. 0. 0. 0. 0. 0. 0. 0. 0.],-4.150390625,7.38525390625,-11.3525390625,[0. 0. 0. 0. 0. 0. 0. 0. 0.],0.03369140625,0.0,1.02978515625,[0. 0. 0. 0. 0. 0. 0. 0. 0.]
5.733398199081421,0.0301225408911705,0.011101431213319302,-0.9891936182975769,0.1430576890707016,[0. 0. 0. 0. 0. 0. 0. 0. 0.],0.9765625,1.8310546875,-8.97216796875,[0. 0. 0. 0. 0. 0. 0. 0. 0.],-0.07470703125,-0.1162109375,1.076171875,[0. 0. 0. 0. 0. 0. 0. 0. 0.]
5.75817608833313,0.03043348528444767,0.011530130170285702,-0.9893792867660522,0.1416674554347992,[0. 0. 0. 0. 0. 0. 0. 0. 0.],-0.732421875,-5.9814453125,-6.89697265625,[0. 0. 0. 0. 0. 0. 0. 0. 0.],-0.14306640625,-0.01953125,0.96142578125,[0. 0. 0. 0. 0. 0. 0. 0. 0.]
5.778221845626831,0.031080782413482666,0.012089911848306656,-0.989497721195221,0.14064928889274597,[0. 0. 0. 0. 0. 0. 0. 0. 0.],-6.2255859375,-3.41796875,-5.2490234375,[0. 0. 0. 0. 0. 0. 0. 0. 0.],-0.11181640625,0.0087890625,0.91259765625,[0. 0. 0. 0. 0. 0. 0. 0. 0.]
5.798368453979492,0.03151734918355942,0.013065849430859089,-0.9896091818809509,0.13967697322368622,[0. 0. 0. 0. 0. 0. 0. 0. 0.],4.638671875,-6.9580078125,-4.39453125,[0. 0. 0. 0. 0. 0. 0. 0. 0.],-0.107421875,-0.0498046875,1.07568359375,[0. 0. 0. 0. 0. 0. 0. 0. 0.]
5.818285703659058,0.03178081288933754,0.012743547558784485,-0.9897245168685913,0.13882701098918915,[0. 0. 0. 0. 0. 0. 0. 0. 0.],-3.35693359375,-2.3193359375,-5.126953125,[0. 0. 0. 0. 0. 0. 0. 0. 0.],-0.06640625,-0.0009765625,1.0087890625,[0. 0. 0. 0. 0. 0. 0. 0. 0.]
5.839885473251343,0.03024432808160782,0.012043610215187073,-0.9898846745491028,0.13808941841125488,[0. 0. 0. 0. 0. 0. 0. 0. 0.],-3.7841796875,-4.39453125,-6.103515625,[0. 0. 0. 0. 0. 0. 0. 0. 0.],-0.02685546875,0.00439453125,0.93798828125,[0. 0. 0. 0. 0. 0. 0. 0. 0.]
5.860090017318726,0.02952844835817814,0.012852796353399754,-0.9900670647621155,0.13685815036296844,[0. 0. 0. 0. 0. 0. 0. 0. 0.],0.18310546875,13.61083984375,-5.92041015625,[0. 0. 0. 0. 0. 0. 0. 0. 0.],0.0634765625,-0.10400390625,1.0400390625,[0. 0. 0. 0. 0. 0. 0. 0. 0.]
5.878395080566406,0.029140867292881012,0.013728160411119461,-0.990180492401123,0.13603313267230988,[0. 0. 0. 0. 0. 0. 0. 0. 0.],2.50244140625,-6.89697265625,-2.86865234375,[0. 0. 0. 0. 0. 0. 0. 0. 0.],-0.119140625,-0.1103515625,1.05908203125,[0. 0. 0. 0. 0. 0. 0. 0. 0.]
5.898731708526611,0.028084823861718178,0.015049804002046585,-0.9902792572975159,0.13539502024650574,[0. 0. 0. 0. 0. 0. 0. 0. 0.],0.42724609375,-4.7607421875,-4.69970703125,[0. 0. 0. 0. 0. 0. 0. 0. 0.],-0.05517578125,-0.064453125,1.1142578125,[0. 0. 0. 0. 0. 0. 0. 0. 0.]
5.918292760848999,0.027196167036890984,0.015348955057561398,-0.990415096282959,0.1345469206571579,[0. 0. 0. 0. 0. 0. 0. 0. 0.],3.7841796875,0.79345703125,-4.8828125,[0. 0. 0. 0. 0. 0. 0. 0. 0.],-0.02880859375,-0.07080078125,1.037109375,[0. 0. 0. 0. 0. 0. 0. 0. 0.]
5.936523199081421,0.026868432760238647,0.015534733422100544,-0.9905093312263489,0.13389572501182556,[0. 0. 0. 0. 0. 0. 0. 0. 0.],4.57763671875,-11.04736328125,-4.150390625,[0. 0. 0. 0. 0. 0. 0. 0. 0.],-0.1328125,-0.05517578125,0.8291015625,[0. 0. 0. 0. 0. 0. 0. 0. 0.]
5.958149433135986,0.026428064331412315,0.01580801233649254,-0.9906570911407471,0.13285383582115173,[0. 0. 0. 0. 0. 0. 0. 0. 0.],1.220703125,8.4228515625,-5.9814453125,[0. 0. 0. 0. 0. 0. 0. 0. 0.],0.04638671875,-0.0390625,0.99169921875,[0. 0. 0. 0. 0. 0. 0. 0. 0.]
5.978806257247925,0.026270193979144096,0.016173139214515686,-0.9907526969909668,0.13212616741657257,[0. 0. 0. 0. 0. 0. 0. 0. 0.],2.62451171875,-6.53076171875,-2.5634765625,[0. 0. 0. 0. 0. 0. 0. 0. 0.],-0.11181640625,-0.0458984375,1.0322265625,[0. 0. 0. 0. 0. 0. 0. 0. 0.]
5.993689775466919,0.026336833834648132,0.016315825283527374,-0.9907658696174622,0.13199681043624878,[0. 0. 0. 0. 0. 0. 0. 0. 0.],-3.41796875,-10.3759765625,0.1220703125,[0. 0. 0. 0. 0. 0. 0. 0. 0.],-0.15380859375,-0.01953125,0.9013671875,[0. 0. 0. 0. 0. 0. 0. 0. 0.]
6.020375728607178,0.027089979499578476,0.016707545146346092,-0.9907352328300476,0.13202548027038574,[0. 0. 0. 0. 0. 0. 0. 0. 0.],-2.25830078125,-4.638671875,-1.0986328125,[0. 0. 0. 0. 0. 0. 0. 0. 0.],-0.064453125,-0.02880859375,1.048828125,[0. 0. 0. 0. 0. 0. 0. 0. 0.]
6.0356690883636475,0.027704110369086266,0.017081720754504204,-0.9906802177429199,0.1322624832391739,[0. 0. 0. 0. 0. 0. 0. 0. 0.],2.13623046875,-4.94384765625,0.42724609375,[0. 0. 0. 0. 0. 0. 0. 0. 0.],-0.0849609375,-0.04052734375,1.06298828125,[0. 0. 0. 0. 0. 0. 0. 0. 0.]
6.058368921279907,0.02786140702664852,0.016222979873418808,-0.990620493888855,0.13278448581695557,[0. 0. 0. 0. 0. 0. 0. 0. 0.],-7.8125,1.5869140625,2.74658203125,[0. 0. 0. 0. 0. 0. 0. 0. 0.],-0.03466796875,0.02392578125,0.91796875,[0. 0. 0. 0. 0. 0. 0. 0. 0.]
6.073503494262695,0.026084620505571365,0.016104407608509064,-0.9906586408615112,0.132874995470047,[0. 0. 0. 0. 0. 0. 0. 0. 0.],-0.3662109375,-0.79345703125,-0.3662109375,[0. 0. 0. 0. 0. 0. 0. 0. 0.],0.04443359375,-0.03271484375,1.01904296875,[0. 0. 0. 0. 0. 0. 0. 0. 0.]
6.098947048187256,0.024907318875193596,0.014648363925516605,-0.9907076358795166,0.1329043209552765,[0. 0. 0. 0. 0. 0. 0. 0. 0.],9.27734375,3.7841796875,0.0,[0. 0. 0. 0. 0. 0. 0. 0. 0.],0.04736328125,-0.02587890625,1.115234375,[0. 0. 0. 0. 0. 0. 0. 0. 0.]
6.118430852890015,0.023700132966041565,0.012513445690274239,-0.9907314777374268,0.13316528499126434,[0. 0. 0. 0. 0. 0. 0. 0. 0.],0.48828125,-1.77001953125,0.6103515625,[0. 0. 0. 0. 0. 0. 0. 0. 0.],-0.04052734375,0.05078125,1.03125,[0. 0. 0. 0. 0. 0. 0. 0. 0.]
6.138429641723633,0.02274070680141449,0.011536860838532448,-0.9907720685005188,0.13311882317066193,[0. 0. 0. 0. 0. 0. 0. 0. 0.],-1.220703125,-3.173828125,-0.3662109375,[0. 0. 0. 0. 0. 0. 0. 0. 0.],-0.033203125,0.00927734375,0.94482421875,[0. 0. 0. 0. 0. 0. 0. 0. 0.]
6.160298585891724,0.02129761315882206,0.011147309094667435,-0.9908638596534729,0.13270694017410278,[0. 0. 0. 0. 0. 0. 0. 0. 0.],4.2724609375,0.18310546875,-3.41796875,[0. 0. 0. 0. 0. 0. 0. 0. 0.],0.00244140625,-0.02392578125,0.99365234375,[0. 0. 0. 0. 0. 0. 0. 0. 0.]
6.17882513999939,0.020234908908605576,0.009541240520775318,-0.9910204410552979,0.13182561099529266,[0. 0. 0. 0. 0. 0. 0. 0. 0.],2.86865234375,2.197265625,-5.2490234375,[0. 0. 0. 0. 0. 0. 0. 0. 0.],0.0078125,0.03759765625,0.99560546875,[0. 0. 0. 0. 0. 0. 0. 0. 0.]
6.197361707687378,0.01998749002814293,0.007358204107731581,-0.9911230206489563,0.13123071193695068,[0. 0. 0. 0. 0. 0. 0. 0. 0.],0.18310546875,-6.4697265625,-2.99072265625,[0. 0. 0. 0. 0. 0. 0. 0. 0.],-0.08544921875,0.11181640625,0.93115234375,[0. 0. 0. 0. 0. 0. 0. 0. 0.]
6.218359708786011,0.019396372139453888,0.006259622983634472,-0.9911662340164185,0.1310500204563141,[0. 0. 0. 0. 0. 0. 0. 0. 0.],-1.64794921875,-6.40869140625,-0.67138671875,[0. 0. 0. 0. 0. 0. 0. 0. 0.],-0.07470703125,0.12353515625,0.9619140625,[0. 0. 0. 0. 0. 0. 0. 0. 0.]
6.238690137863159,0.017966603860259056,0.004138992168009281,-0.9911026954650879,0.13181635737419128,[0. 0. 0. 0. 0. 0. 0. 0. 0.],4.94384765625,-16.11328125,9.58251953125,[0. 0. 0. 0. 0. 0. 0. 0. 0.],-0.06787109375,0.12255859375,1.1171875,[0. 0. 0. 0. 0. 0. 0. 0. 0.]
6.259159326553345,0.015596587210893631,0.0013840212486684322,-0.9906818866729736,0.13529378175735474,[0. 0. 0. 0. 0. 0. 0. 0. 0.],4.638671875,-13.61083984375,25.93994140625,[0. 0. 0. 0. 0. 0. 0. 0. 0.],0.04638671875,0.10498046875,1.00341796875,[0. 0. 0. 0. 0. 0. 0. 0. 0.]
6.273393392562866,0.013081680983304977,-0.00044586442527361214,-0.989865243434906,0.1414058953523636,[0. 0. 0. 0. 0. 0. 0. 0. 0.],0.18310546875,-10.009765625,40.95458984375,[0. 0. 0. 0. 0. 0. 0. 0. 0.],0.1328125,0.16455078125,1.00634765625,[0. 0. 0. 0. 0. 0. 0. 0. 0.]
6.2982447147369385,0.009807214140892029,-0.0029231610242277384,-0.9886353611946106,0.14998486638069153,[0. 0. 0. 0. 0. 0. 0. 0. 0.],3.96728515625,-8.72802734375,55.2978515625,[0. 0. 0. 0. 0. 0. 0. 0. 0.],0.15087890625,0.15283203125,1.015625,[0. 0. 0. 0. 0. 0. 0. 0. 0.]
6.318299293518066,0.008626282215118408,-0.0052215964533388615,-0.9869423508644104,0.16075772047042847,[0. 0. 0. 0. 0. 0. 0. 0. 0.],8.60595703125,0.6103515625,66.5283203125,[0. 0. 0. 0. 0. 0. 0. 0. 0.],0.212890625,0.1513671875,1.0771484375,[0. 0. 0. 0. 0. 0. 0. 0. 0.]
6.334140300750732,0.006523517891764641,-0.007882589474320412,-0.9847506880760193,0.17367029190063477,[0. 0. 0. 0. 0. 0. 0. 0. 0.],1.89208984375,-9.70458984375,79.4677734375,[0. 0. 0. 0. 0. 0. 0. 0. 0.],0.11767578125,0.19091796875,1.0107421875,[0. 0. 0. 0. 0. 0. 0. 0. 0.]
6.358368635177612,0.003389124060049653,-0.009582461789250374,-0.9820889830589294,0.18814314901828766,[0. 0. 0. 0. 0. 0. 0. 0. 0.],-2.5634765625,-12.63427734375,85.02197265625,[0. 0. 0. 0. 0. 0. 0. 0. 0.],0.169921875,0.16796875,0.94580078125,[0. 0. 0. 0. 0. 0. 0. 0. 0.]
6.3784050941467285,0.0017398751806467772,-0.011009255424141884,-0.979221522808075,0.20248739421367645,[0. 0. 0. 0. 0. 0. 0. 0. 0.],6.16455078125,4.638671875,83.49609375,[0. 0. 0. 0. 0. 0. 0. 0. 0.],0.318359375,0.09521484375,1.0693359375,[0. 0. 0. 0. 0. 0. 0. 0. 0.]
6.3933775424957275,0.0005312581197358668,-0.012550446204841137,-0.9761821031570435,0.21658876538276672,[0. 0. 0. 0. 0. 0. 0. 0. 0.],-2.74658203125,-5.67626953125,81.6650390625,[0. 0. 0. 0. 0. 0. 0. 0. 0.],0.1787109375,0.05029296875,0.90185546875,[0. 0. 0. 0. 0. 0. 0. 0. 0.]
6.418313264846802,-0.003559216158464551,-0.011306584812700748,-0.9729735851287842,0.2306121438741684,[0. 0. 0. 0. 0. 0. 0. 0. 0.],-9.3994140625,-18.06640625,80.13916015625,[0. 0. 0. 0. 0. 0. 0. 0. 0.],0.1328125,-0.0654296875,0.8681640625,[0. 0. 0. 0. 0. 0. 0. 0. 0.]
6.438183069229126,-0.006612333469092846,-0.008794319815933704,-0.9694360494613647,0.2450975775718689,[0. 0. 0. 0. 0. 0. 0. 0. 0.],-11.90185546875,-5.06591796875,84.04541015625,[0. 0. 0. 0. 0. 0. 0. 0. 0.],0.26171875,-0.14306640625,1.0029296875,[0. 0. 0. 0. 0. 0. 0. 0. 0.]
6.458530902862549,-0.009250730276107788,-0.007433109916746616,-0.9657142162322998,0.25933608412742615,[0. 0. 0. 0. 0. 0. 0. 0. 0.],0.244140625,-6.16455078125,83.740234375,[0. 0. 0. 0. 0. 0. 0. 0. 0.],0.26123046875,-0.220703125,1.083984375,[0. 0. 0. 0. 0. 0. 0. 0. 0.]
6.473304510116577,-0.012116160243749619,-0.007099355570971966,-0.9617554545402527,0.27354931831359863,[0. 0. 0. 0. 0. 0. 0. 0. 0.],-1.5869140625,-3.11279296875,86.669921875,[0. 0. 0. 0. 0. 0. 0. 0. 0.],0.24560546875,-0.20751953125,1.0888671875,[0. 0. 0. 0. 0. 0. 0. 0. 0.]
6.498302936553955,-0.01448217686265707,-0.006765908095985651,-0.9574497938156128,0.288157194852829,[0. 0. 0. 0. 0. 0. 0. 0. 0.],4.57763671875,-10.07080078125,90.33203125,[0. 0. 0. 0. 0. 0. 0. 0. 0.],0.21044921875,-0.2119140625,1.02099609375,[0. 0. 0. 0. 0. 0. 0. 0. 0.]
6.513396739959717,-0.014642992056906223,-0.005347067955881357,-0.9525117874145508,0.30410251021385193,[0. 0. 0. 0. 0. 0. 0. 0. 0.],-1.28173828125,15.625,99.18212890625,[0. 0. 0. 0. 0. 0. 0. 0. 0.],0.216796875,-0.1787109375,0.87060546875,[0. 0. 0. 0. 0. 0. 0. 0. 0.]
6.538307189941406,-0.016457943245768547,-0.003071325831115246,-0.9469907879829407,0.32082417607307434,[0. 0. 0. 0. 0. 0. 0. 0. 0.],-4.0283203125,-14.70947265625,102.23388671875,[0. 0. 0. 0. 0. 0. 0. 0. 0.],0.109375,-0.22900390625,0.96533203125,[0. 0. 0. 0. 0. 0. 0. 0. 0.]
6.553856372833252,-0.0201983992010355,-0.0015573822893202305,-0.9407951235771179,0.33837002515792847,[0. 0. 0. 0. 0. 0. 0. 0. 0.],-2.25830078125,-11.16943359375,107.60498046875,[0. 0. 0. 0. 0. 0. 0. 0. 0.],0.20654296875,-0.310546875,1.09912109375,[0. 0. 0. 0. 0. 0. 0. 0. 0.]
6.579038619995117,-0.021399343386292458,-0.001556783216074109,-0.9340125322341919,0.35659533739089966,[0. 0. 0. 0. 0. 0. 0. 0. 0.],10.55908203125,-0.6103515625,114.8681640625,[0. 0. 0. 0. 0. 0. 0. 0. 0.],0.2353515625,-0.28173828125,1.0283203125,[0. 0. 0. 0. 0. 0. 0. 0. 0.]
6.598150253295898,-0.02514749765396118,-0.0007025140221230686,-0.9261782169342041,0.3762459456920624,[0. 0. 0. 0. 0. 0. 0. 0. 0.],-5.79833984375,-18.310546875,126.40380859375,[0. 0. 0. 0. 0. 0. 0. 0. 0.],0.0771484375,-0.201171875,0.78076171875,[0. 0. 0. 0. 0. 0. 0. 0. 0.]
6.618218660354614,-0.02850375883281231,0.00033683792571537197,-0.9172706604003906,0.3972432017326355,[0. 0. 0. 0. 0. 0. 0. 0. 0.],1.40380859375,-0.48828125,134.33837890625,[0. 0. 0. 0. 0. 0. 0. 0. 0.],0.3037109375,-0.31982421875,1.1279296875,[0. 0. 0. 0. 0. 0. 0. 0. 0.]
6.638327598571777,-0.029019523411989212,0.0013188740704208612,-0.9074488282203674,0.41915714740753174,[0. 0. 0. 0. 0. 0. 0. 0. 0.],5.06591796875,3.47900390625,140.19775390625,[0. 0. 0. 0. 0. 0. 0. 0. 0.],0.30322265625,-0.26806640625,1.04345703125,[0. 0. 0. 0. 0. 0. 0. 0. 0.]
6.658498287200928,-0.030743498355150223,0.0019234205828979611,-0.8964542746543884,0.4420643150806427,[0. 0. 0. 0. 0. 0. 0. 0. 0.],5.92041015625,-14.22119140625,146.97265625,[0. 0. 0. 0. 0. 0. 0. 0. 0.],0.23583984375,-0.298828125,1.0302734375,[0. 0. 0. 0. 0. 0. 0. 0. 0.]
6.678103685379028,-0.03371282294392586,0.0007736327825114131,-0.8844277858734131,0.4654572308063507,[0. 0. 0. 0. 0. 0. 0. 0. 0.],10.92529296875,-0.244140625,154.78515625,[0. 0. 0. 0. 0. 0. 0. 0. 0.],0.3525390625,-0.3115234375,1.0361328125,[0. 0. 0. 0. 0. 0. 0. 0. 0.]
6.6986305713653564,-0.034422434866428375,0.001417734194546938,-0.8710930943489075,0.4899081587791443,[0. 0. 0. 0. 0. 0. 0. 0. 0.],-2.99072265625,-7.01904296875,161.2548828125,[0. 0. 0. 0. 0. 0. 0. 0. 0.],0.2734375,-0.1884765625,0.845703125,[0. 0. 0. 0. 0. 0. 0. 0. 0.]
6.718272924423218,-0.040005944669246674,0.0016087148105725646,-0.856378972530365,0.5147930979728699,[0. 0. 0. 0. 0. 0. 0. 0. 0.],1.8310546875,-27.587890625,166.19873046875,[0. 0. 0. 0. 0. 0. 0. 0. 0.],0.17822265625,-0.2822265625,0.86962890625,[0. 0. 0. 0. 0. 0. 0. 0. 0.]
6.739325046539307,-0.041932784020900726,0.0024344525299966335,-0.840175986289978,0.540684700012207,[0. 0. 0. 0. 0. 0. 0. 0. 0.],0.06103515625,11.5966796875,180.0537109375,[0. 0. 0. 0. 0. 0. 0. 0. 0.],0.39697265625,-0.30615234375,1.0009765625,[0. 0. 0. 0. 0. 0. 0. 0. 0.]
6.758848428726196,-0.04452076554298401,0.002647631336003542,-0.8224369287490845,0.5671052932739258,[0. 0. 0. 0. 0. 0. 0. 0. 0.],6.4697265625,-25.0244140625,182.4951171875,[0. 0. 0. 0. 0. 0. 0. 0. 0.],0.318359375,-0.3779296875,1.087890625,[0. 0. 0. 0. 0. 0. 0. 0. 0.]
6.775414943695068,-0.04617168381810188,0.0023514365311712027,-0.8034703731536865,0.593546986579895,[0. 0. 0. 0. 0. 0. 0. 0. 0.],9.765625,2.01416015625,189.208984375,[0. 0. 0. 0. 0. 0. 0. 0. 0.],0.474609375,-0.33154296875,1.068359375,[0. 0. 0. 0. 0. 0. 0. 0. 0.]
6.793571472167969,-0.04870771989226341,0.0018653267761692405,-0.7830321788787842,0.620068371295929,[0. 0. 0. 0. 0. 0. 0. 0. 0.],-2.99072265625,-23.4375,194.091796875,[0. 0. 0. 0. 0. 0. 0. 0. 0.],0.28564453125,-0.26171875,0.86962890625,[0. 0. 0. 0. 0. 0. 0. 0. 0.]
6.818628549575806,-0.0529649443924427,0.0010779048316180706,-0.7610195875167847,0.6465622186660767,[0. 0. 0. 0. 0. 0. 0. 0. 0.],1.220703125,-1.03759765625,200.8056640625,[0. 0. 0. 0. 0. 0. 0. 0. 0.],0.36474609375,-0.27099609375,0.8544921875,[0. 0. 0. 0. 0. 0. 0. 0. 0.]
6.839986085891724,-0.052445583045482635,0.0042298343032598495,-0.7374131083488464,0.6733896136283875,[0. 0. 0. 0. 0. 0. 0. 0. 0.],11.16943359375,-11.04736328125,201.904296875,[0. 0. 0. 0. 0. 0. 0. 0. 0.],0.400390625,-0.3857421875,1.03759765625,[0. 0. 0. 0. 0. 0. 0. 0. 0.]
6.859142541885376,-0.05472178757190704,0.0031088644172996283,-0.7127037048339844,0.6993207335472107,[0. 0. 0. 0. 0. 0. 0. 0. 0.],11.77978515625,-24.7802734375,205.87158203125,[0. 0. 0. 0. 0. 0. 0. 0. 0.],0.35546875,-0.427734375,1.06640625,[0. 0. 0. 0. 0. 0. 0. 0. 0.]
6.875893831253052,-0.055253900587558746,0.0024660888593643904,-0.6863695979118347,0.7251467704772949,[0. 0. 0. 0. 0. 0. 0. 0. 0.],12.3291015625,-9.8876953125,210.5712890625,[0. 0. 0. 0. 0. 0. 0. 0. 0.],0.4658203125,-0.36279296875,1.0126953125,[0. 0. 0. 0. 0. 0. 0. 0. 0.]
6.899871110916138,-0.05687330663204193,0.002188199432566762,-0.6585248112678528,0.750403642654419,[0. 0. 0. 0. 0. 0. 0. 0. 0.],1.64794921875,0.30517578125,221.0693359375,[0. 0. 0. 0. 0. 0. 0. 0. 0.],0.302734375,-0.2587890625,0.68994140625,[0. 0. 0. 0. 0. 0. 0. 0. 0.]
6.919029474258423,-0.05753703415393829,0.004764079116284847,-0.6290932893753052,0.7751829028129578,[0. 0. 0. 0. 0. 0. 0. 0. 0.],6.65283203125,-0.48828125,220.3369140625,[0. 0. 0. 0. 0. 0. 0. 0. 0.],0.4287109375,-0.4873046875,1.0751953125,[0. 0. 0. 0. 0. 0. 0. 0. 0.]
6.940138578414917,-0.058422770351171494,0.0024368823505938053,-0.5989184379577637,0.7986724376678467,[0. 0. 0. 0. 0. 0. 0. 0. 0.],13.36669921875,-26.0009765625,215.75927734375,[0. 0. 0. 0. 0. 0. 0. 0. 0.],0.5400390625,-0.4619140625,1.150390625,[0. 0. 0. 0. 0. 0. 0. 0. 0.]
6.958184480667114,-0.058349478989839554,-0.00031254865461960435,-0.5684981942176819,0.8206126093864441,[0. 0. 0. 0. 0. 0. 0. 0. 0.],16.90673828125,-10.68115234375,210.75439453125,[0. 0. 0. 0. 0. 0. 0. 0. 0.],0.66015625,-0.32421875,1.0537109375,[0. 0. 0. 0. 0. 0. 0. 0. 0.]
6.978198289871216,-0.0570351667702198,0.0024783422704786062,-0.5376947522163391,0.8412046432495117,[0. 0. 0. 0. 0. 0. 0. 0. 0.],1.953125,15.13671875,213.07373046875,[0. 0. 0. 0. 0. 0. 0. 0. 0.],0.4677734375,-0.193359375,0.66455078125,[0. 0. 0. 0. 0. 0. 0. 0. 0.]
6.998162031173706,-0.05970928072929382,0.0019205156713724136,-0.507332980632782,0.8596768975257874,[0. 0. 0. 0. 0. 0. 0. 0. 0.],4.0283203125,-19.83642578125,197.021484375,[0. 0. 0. 0. 0. 0. 0. 0. 0.],0.44873046875,-0.34912109375,0.95068359375,[0. 0. 0. 0. 0. 0. 0. 0. 0.]
7.013331890106201,-0.05897798761725426,0.001987291034311056,-0.479385644197464,0.8756181597709656,[0. 0. 0. 0. 0. 0. 0. 0. 0.],12.0849609375,11.962890625,179.74853515625,[0. 0. 0. 0. 0. 0. 0. 0. 0.],0.76708984375,-0.38037109375,1.1923828125,[0. 0. 0. 0. 0. 0. 0. 0. 0.]
7.038320541381836,-0.058461546897888184,0.0003754197678063065,-0.45313775539398193,0.8895214200019836,[0. 0. 0. 0. 0. 0. 0. 0. 0.],10.31494140625,-19.6533203125,163.63525390625,[0. 0. 0. 0. 0. 0. 0. 0. 0.],0.5185546875,-0.23193359375,0.93359375,[0. 0. 0. 0. 0. 0. 0. 0. 0.]
7.054670333862305,-0.058362457901239395,0.0008770340355113149,-0.4303170442581177,0.9007887840270996,[0. 0. 0. 0. 0. 0. 0. 0. 0.],-1.40380859375,10.009765625,135.986328125,[0. 0. 0. 0. 0. 0. 0. 0. 0.],0.578125,-0.14501953125,0.89453125,[0. 0. 0. 0. 0. 0. 0. 0. 0.]
7.0788421630859375,-0.06000135838985443,0.0021328325383365154,-0.41130298376083374,0.9095192551612854,[0. 0. 0. 0. 0. 0. 0. 0. 0.],-12.3291015625,-13.916015625,110.90087890625,[0. 0. 0. 0. 0. 0. 0. 0. 0.],0.3935546875,-0.109375,0.7041015625,[0. 0. 0. 0. 0. 0. 0. 0. 0.]
7.09337306022644,-0.06185153126716614,-0.0005913667846471071,-0.3965545892715454,0.9159249663352966,[0. 0. 0. 0. 0. 0. 0. 0. 0.],2.38037109375,-0.48828125,81.9091796875,[0. 0. 0. 0. 0. 0. 0. 0. 0.],0.69189453125,-0.22265625,1.1298828125,[0. 0. 0. 0. 0. 0. 0. 0. 0.]
7.118423700332642,-0.061865776777267456,-0.0011103925062343478,-0.3860059678554535,0.9204187989234924,[0. 0. 0. 0. 0. 0. 0. 0. 0.],0.8544921875,-0.67138671875,56.7626953125,[0. 0. 0. 0. 0. 0. 0. 0. 0.],0.7451171875,-0.18408203125,1.1552734375,[0. 0. 0. 0. 0. 0. 0. 0. 0.]
7.1382575035095215,-0.06345194578170776,-0.0028075703885406256,-0.37838080525398254,0.9234684705734253,[0. 0. 0. 0. 0. 0. 0. 0. 0.],-2.50244140625,-10.986328125,39.36767578125,[0. 0. 0. 0. 0. 0. 0. 0. 0.],0.57470703125,-0.15380859375,0.99072265625,[0. 0. 0. 0. 0. 0. 0. 0. 0.]
7.158306121826172,-0.06300926953554153,-0.0026817405596375465,-0.373622864484787,0.9254343509674072,[0. 0. 0. 0. 0. 0. 0. 0. 0.],4.39453125,4.5166015625,23.74267578125,[0. 0. 0. 0. 0. 0. 0. 0. 0.],0.60986328125,-0.173828125,1.01513671875,[0. 0. 0. 0. 0. 0. 0. 0. 0.]
7.180516958236694,-0.06414518505334854,-0.00334796286188066,-0.370575487613678,0.9265786409378052,[0. 0. 0. 0. 0. 0. 0. 0. 0.],-9.3994140625,5.06591796875,15.93017578125,[0. 0. 0. 0. 0. 0. 0. 0. 0.],0.408203125,-0.0400390625,0.6904296875,[0. 0. 0. 0. 0. 0. 0. 0. 0.]
7.199072599411011,-0.06656025350093842,-0.003832395887002349,-0.36988797783851624,0.9266812205314636,[0. 0. 0. 0. 0. 0. 0. 0. 0.],-8.30078125,-15.31982421875,-3.173828125,[0. 0. 0. 0. 0. 0. 0. 0. 0.],0.4951171875,-0.08837890625,0.90673828125,[0. 0. 0. 0. 0. 0. 0. 0. 0.]
7.2182533740997314,-0.06860601902008057,-0.006610895041376352,-0.3730510473251343,0.925247311592102,[0. 0. 0. 0. 0. 0. 0. 0. 0.],-5.4931640625,7.14111328125,-27.83203125,[0. 0. 0. 0. 0. 0. 0. 0. 0.],0.7529296875,-0.11279296875,1.22802734375,[0. 0. 0. 0. 0. 0. 0. 0. 0.]
7.23991322517395,-0.06758684664964676,-0.007389600854367018,-0.3807346522808075,0.9221814274787903,[0. 0. 0. 0. 0. 0. 0. 0. 0.],9.21630859375,7.26318359375,-57.0068359375,[0. 0. 0. 0. 0. 0. 0. 0. 0.],0.69970703125,-0.07373046875,1.169921875,[0. 0. 0. 0. 0. 0. 0. 0. 0.]
7.25943660736084,-0.06665119528770447,-0.007538297679275274,-0.3922998905181885,0.9173884987831116,[0. 0. 0. 0. 0. 0. 0. 0. 0.],4.150390625,5.67626953125,-81.1767578125,[0. 0. 0. 0. 0. 0. 0. 0. 0.],0.56005859375,-0.01318359375,0.98193359375,[0. 0. 0. 0. 0. 0. 0. 0. 0.]
7.278514385223389,-0.06687866896390915,-0.010110585018992424,-0.4078722596168518,0.9105302691459656,[0. 0. 0. 0. 0. 0. 0. 0. 0.],2.13623046875,-6.4697265625,-106.3232421875,[0. 0. 0. 0. 0. 0. 0. 0. 0.],0.43701171875,0.02880859375,0.93994140625,[0. 0. 0. 0. 0. 0. 0. 0. 0.]
7.298414945602417,-0.06407558917999268,-0.010001718997955322,-0.4275406002998352,0.901667058467865,[0. 0. 0. 0. 0. 0. 0. 0. 0.],12.26806640625,32.65380859375,-128.41796875,[0. 0. 0. 0. 0. 0. 0. 0. 0.],0.4736328125,-0.00634765625,1.10791015625,[0. 0. 0. 0. 0. 0. 0. 0. 0.]
7.3205742835998535,-0.05976452678442001,-0.007435040548443794,-0.44965317845344543,0.8911706209182739,[0. 0. 0. 0. 0. 0. 0. 0. 0.],1.52587890625,42.05322265625,-142.15087890625,[0. 0. 0. 0. 0. 0. 0. 0. 0.],0.0712890625,0.1103515625,0.82421875,[0. 0. 0. 0. 0. 0. 0. 0. 0.]
7.3393261432647705,-0.05497997626662254,-0.0035681123845279217,-0.4724698066711426,0.8796231746673584,[0. 0. 0. 0. 0. 0. 0. 0. 0.],7.6904296875,24.10888671875,-148.3154296875,[0. 0. 0. 0. 0. 0. 0. 0. 0.],-0.3017578125,0.0869140625,1.00634765625,[0. 0. 0. 0. 0. 0. 0. 0. 0.]
7.358625888824463,-0.050518687814474106,-0.0017607809277251363,-0.495443195104599,0.8671683073043823,[0. 0. 0. 0. 0. 0. 0. 0. 0.],13.24462890625,22.27783203125,-148.74267578125,[0. 0. 0. 0. 0. 0. 0. 0. 0.],-0.3779296875,0.08837890625,1.13232421875,[0. 0. 0. 0. 0. 0. 0. 0. 0.]
7.378688097000122,-0.04509124904870987,-0.000479115144116804,-0.5186890959739685,0.8537729382514954,[0. 0. 0. 0. 0. 0. 0. 0. 0.],13.73291015625,26.67236328125,-154.23583984375,[0. 0. 0. 0. 0. 0. 0. 0. 0.],-0.345703125,0.13525390625,1.07080078125,[0. 0. 0. 0. 0. 0. 0. 0. 0.]
7.398117542266846,-0.03956785053014755,0.00042311547440476716,-0.5419168472290039,0.8395001292228699,[0. 0. 0. 0. 0. 0. 0. 0. 0.],23.3154296875,10.009765625,-159.1796875,[0. 0. 0. 0. 0. 0. 0. 0. 0.],-0.4638671875,0.234375,1.04638671875,[0. 0. 0. 0. 0. 0. 0. 0. 0.]
7.418867111206055,-0.03454430773854256,0.00086474564159289,-0.5649842023849487,0.8243778944015503,[0. 0. 0. 0. 0. 0. 0. 0. 0.],13.427734375,16.66259765625,-156.8603515625,[0. 0. 0. 0. 0. 0. 0. 0. 0.],-0.45654296875,0.28173828125,0.958984375,[0. 0. 0. 0. 0. 0. 0. 0. 0.]
7.43951153755188,-0.0292036235332489,0.0014358124462887645,-0.5878692269325256,0.8084274530410767,[0. 0. 0. 0. 0. 0. 0. 0. 0.],14.16015625,15.2587890625,-160.7666015625,[0. 0. 0. 0. 0. 0. 0. 0. 0.],-0.3935546875,0.291015625,0.962890625,[0. 0. 0. 0. 0. 0. 0. 0. 0.]
7.458212375640869,-0.025585388764739037,0.0017884901026263833,-0.6112131476402283,0.791050374507904,[0. 0. 0. 0. 0. 0. 0. 0. 0.],9.6435546875,13.18359375,-167.54150390625,[0. 0. 0. 0. 0. 0. 0. 0. 0.],-0.37060546875,0.283203125,0.8671875,[0. 0. 0. 0. 0. 0. 0. 0. 0.]
7.478862285614014,-0.02223786897957325,0.0016503105871379375,-0.6348708271980286,0.7722964882850647,[0. 0. 0. 0. 0. 0. 0. 0. 0.],7.01904296875,3.0517578125,-175.47607421875,[0. 0. 0. 0. 0. 0. 0. 0. 0.],-0.36181640625,0.259765625,0.83447265625,[0. 0. 0. 0. 0. 0. 0. 0. 0.]
7.498774528503418,-0.019162867218255997,0.0012618721229955554,-0.6583555936813354,0.7524620294570923,[0. 0. 0. 0. 0. 0. 0. 0. 0.],11.1083984375,10.68115234375,-177.001953125,[0. 0. 0. 0. 0. 0. 0. 0. 0.],-0.3876953125,0.26953125,1.0537109375,[0. 0. 0. 0. 0. 0. 0. 0. 0.]
7.516321659088135,-0.01445995643734932,0.00041350044193677604,-0.6811962127685547,0.7319579124450684,[0. 0. 0. 0. 0. 0. 0. 0. 0.],17.76123046875,1.5869140625,-177.3681640625,[0. 0. 0. 0. 0. 0. 0. 0. 0.],-0.4970703125,0.2861328125,1.13623046875,[0. 0. 0. 0. 0. 0. 0. 0. 0.]
7.5381059646606445,-0.011204286478459835,-0.000845072849188,-0.7037520408630371,0.7103567719459534,[0. 0. 0. 0. 0. 0. 0. 0. 0.],10.3759765625,1.52587890625,-178.89404296875,[0. 0. 0. 0. 0. 0. 0. 0. 0.],-0.43701171875,0.306640625,0.9453125,[0. 0. 0. 0. 0. 0. 0. 0. 0.]
7.554258584976196,-0.009283097460865974,-0.0017728330567479134,-0.7256489396095276,0.6880003213882446,[0. 0. 0. 0. 0. 0. 0. 0. 0.],4.69970703125,-0.732421875,-180.60302734375,[0. 0. 0. 0. 0. 0. 0. 0. 0.],-0.41015625,0.2734375,0.9453125,[0. 0. 0. 0. 0. 0. 0. 0. 0.]
7.579046010971069,-0.006484797690063715,-0.0027873190119862556,-0.7469135522842407,0.6648837924003601,[0. 0. 0. 0. 0. 0. 0. 0. 0.],13.85498046875,6.103515625,-179.50439453125,[0. 0. 0. 0. 0. 0. 0. 0. 0.],-0.35693359375,0.21142578125,0.96533203125,[0. 0. 0. 0. 0. 0. 0. 0. 0.]
7.593512535095215,-0.0037552043795585632,-0.004243230912834406,-0.7673570513725281,0.6411949992179871,[0. 0. 0. 0. 0. 0. 0. 0. 0.],4.57763671875,-4.39453125,-178.03955078125,[0. 0. 0. 0. 0. 0. 0. 0. 0.],-0.44091796875,0.27783203125,0.94873046875,[0. 0. 0. 0. 0. 0. 0. 0. 0.]
7.618354320526123,-0.002484465716406703,-0.005086681805551052,-0.7862131595611572,0.6179295182228088,[0. 0. 0. 0. 0. 0. 0. 0. 0.],5.67626953125,-7.38525390625,-170.2880859375,[0. 0. 0. 0. 0. 0. 0. 0. 0.],-0.44580078125,0.22998046875,1.044921875,[0. 0. 0. 0. 0. 0. 0. 0. 0.]
7.635730266571045,1.1273182281001937e-05,-0.007062962744385004,-0.8033491373062134,0.5954663753509521,[0. 0. 0. 0. 0. 0. 0. 0. 0.],13.0615234375,-4.638671875,-157.28759765625,[0. 0. 0. 0. 0. 0. 0. 0. 0.],-0.4169921875,0.201171875,1.0341796875,[0. 0. 0. 0. 0. 0. 0. 0. 0.]
7.658314228057861,0.0018414459191262722,-0.007545948959887028,-0.8185631632804871,0.574364185333252,[0. 0. 0. 0. 0. 0. 0. 0. 0.],-2.5634765625,0.79345703125,-143.49365234375,[0. 0. 0. 0. 0. 0. 0. 0. 0.],-0.396484375,0.26611328125,0.9140625,[0. 0. 0. 0. 0. 0. 0. 0. 0.]
7.678560972213745,0.0033209980465471745,-0.0077632637694478035,-0.8315814137458801,0.5553388595581055,[0. 0. 0. 0. 0. 0. 0. 0. 0.],5.615234375,-3.2958984375,-125.42724609375,[0. 0. 0. 0. 0. 0. 0. 0. 0.],-0.40625,0.19580078125,1.01904296875,[0. 0. 0. 0. 0. 0. 0. 0. 0.]
7.698425531387329,0.00508099514991045,-0.008772109635174274,-0.8422930836677551,0.5389245748519897,[0. 0. 0. 0. 0. 0. 0. 0. 0.],7.080078125,-2.99072265625,-105.5908203125,[0. 0. 0. 0. 0. 0. 0. 0. 0.],-0.40771484375,0.2216796875,1.02587890625,[0. 0. 0. 0. 0. 0. 0. 0. 0.]
7.7216832637786865,0.0070860362611711025,-0.009490040130913258,-0.8510860800743103,0.5248926281929016,[0. 0. 0. 0. 0. 0. 0. 0. 0.],4.69970703125,1.52587890625,-88.37890625,[0. 0. 0. 0. 0. 0. 0. 0. 0.],-0.384765625,0.26220703125,0.99169921875,[0. 0. 0. 0. 0. 0. 0. 0. 0.]
7.733630657196045,0.0084924241527915,-0.01022319495677948,-0.8583186268806458,0.5129450559616089,[0. 0. 0. 0. 0. 0. 0. 0. 0.],4.0283203125,-2.44140625,-75.25634765625,[0. 0. 0. 0. 0. 0. 0. 0. 0.],-0.38525390625,0.2607421875,0.97021484375,[0. 0. 0. 0. 0. 0. 0. 0. 0.]
7.759022235870361,0.009899999015033245,-0.011093570850789547,-0.8643417954444885,0.5026849508285522,[0. 0. 0. 0. 0. 0. 0. 0. 0.],5.79833984375,-4.57763671875,-64.63623046875,[0. 0. 0. 0. 0. 0. 0. 0. 0.],-0.376953125,0.25390625,0.9638671875,[0. 0. 0. 0. 0. 0. 0. 0. 0.]
7.778524160385132,0.011286944150924683,-0.011645114049315453,-0.8694204688072205,0.4938066601753235,[0. 0. 0. 0. 0. 0. 0. 0. 0.],1.953125,-4.57763671875,-54.99267578125,[0. 0. 0. 0. 0. 0. 0. 0. 0.],-0.357421875,0.279296875,0.96875,[0. 0. 0. 0. 0. 0. 0. 0. 0.]
7.798351526260376,0.011979392729699612,-0.011946831829845905,-0.8735105991363525,0.48651108145713806,[0. 0. 0. 0. 0. 0. 0. 0. 0.],-2.5634765625,-3.23486328125,-43.51806640625,[0. 0. 0. 0. 0. 0. 0. 0. 0.],-0.3544921875,0.29833984375,1.013671875,[0. 0. 0. 0. 0. 0. 0. 0. 0.]
7.818409204483032,0.012788183987140656,-0.012476928532123566,-0.8765228986740112,0.48102855682373047,[0. 0. 0. 0. 0. 0. 0. 0. 0.],1.03759765625,-4.21142578125,-31.494140625,[0. 0. 0. 0. 0. 0. 0. 0. 0.],-0.3232421875,0.27001953125,1.048828125,[0. 0. 0. 0. 0. 0. 0. 0. 0.]
7.833401203155518,0.013927649706602097,-0.013298040255904198,-0.878267765045166,0.4777813255786896,[0. 0. 0. 0. 0. 0. 0. 0. 0.],3.5400390625,-4.94384765625,-14.404296875,[0. 0. 0. 0. 0. 0. 0. 0. 0.],-0.28857421875,0.26708984375,0.98681640625,[0. 0. 0. 0. 0. 0. 0. 0. 0.]
7.8582603931427,0.014630580320954323,-0.014735911972820759,-0.8787310719490051,0.476865291595459,[0. 0. 0. 0. 0. 0. 0. 0. 0.],0.9765625,-5.67626953125,-0.6103515625,[0. 0. 0. 0. 0. 0. 0. 0. 0.],-0.25,0.3173828125,0.97119140625,[0. 0. 0. 0. 0. 0. 0. 0. 0.]
7.87908935546875,0.014868445694446564,-0.015564396046102047,-0.8781490325927734,0.4779027998447418,[0. 0. 0. 0. 0. 0. 0. 0. 0.],-2.5634765625,-5.615234375,11.5966796875,[0. 0. 0. 0. 0. 0. 0. 0. 0.],-0.2255859375,0.33984375,1.00341796875,[0. 0. 0. 0. 0. 0. 0. 0. 0.]
7.898847341537476,0.015044464729726315,-0.016108397394418716,-0.8765859603881836,0.480740487575531,[0. 0. 0. 0. 0. 0. 0. 0. 0.],-4.150390625,-5.55419921875,22.4609375,[0. 0. 0. 0. 0. 0. 0. 0. 0.],-0.19091796875,0.326171875,1.0205078125,[0. 0. 0. 0. 0. 0. 0. 0. 0.]
7.921347379684448,0.01536871213465929,-0.01670985110104084,-0.8743310570716858,0.4847988784313202,[0. 0. 0. 0. 0. 0. 0. 0. 0.],-2.99072265625,-2.5634765625,28.25927734375,[0. 0. 0. 0. 0. 0. 0. 0. 0.],-0.1474609375,0.31591796875,1.01708984375,[0. 0. 0. 0. 0. 0. 0. 0. 0.]
7.938345193862915,0.01586521975696087,-0.01718355529010296,-0.8717220425605774,0.48944219946861267,[0. 0. 0. 0. 0. 0. 0. 0. 0.],-2.50244140625,-0.48828125,30.70068359375,[0. 0. 0. 0. 0. 0. 0. 0. 0.],-0.1259765625,0.30126953125,0.9951171875,[0. 0. 0. 0. 0. 0. 0. 0. 0.]
7.954462051391602,0.01667139306664467,-0.01831784099340439,-0.869218647480011,0.493807315826416,[0. 0. 0. 0. 0. 0. 0. 0. 0.],0.6103515625,-0.6103515625,28.80859375,[0. 0. 0. 0. 0. 0. 0. 0. 0.],-0.083984375,0.28515625,1.0087890625,[0. 0. 0. 0. 0. 0. 0. 0. 0.]
7.978168249130249,0.017326509580016136,-0.019137699156999588,-0.8674676418304443,0.496823251247406,[0. 0. 0. 0. 0. 0. 0. 0. 0.],-0.67138671875,-0.18310546875,25.45166015625,[0. 0. 0. 0. 0. 0. 0. 0. 0.],-0.072265625,0.29345703125,0.99755859375,[0. 0. 0. 0. 0. 0. 0. 0. 0.]
7.995631456375122,0.018161682412028313,-0.02051619254052639,-0.8650315403938293,0.5009686946868896,[0. 0. 0. 0. 0. 0. 0. 0. 0.],-0.9765625,1.220703125,19.1650390625,[0. 0. 0. 0. 0. 0. 0. 0. 0.],-0.01611328125,0.28466796875,1.017578125,[0. 0. 0. 0. 0. 0. 0. 0. 0.]
8.015479803085327,0.018697597086429596,-0.022030053660273552,-0.8635774254798889,0.5033878087997437,[0. 0. 0. 0. 0. 0. 0. 0. 0.],0.30517578125,-2.74658203125,13.7939453125,[0. 0. 0. 0. 0. 0. 0. 0. 0.],-0.0078125,0.27490234375,1.0107421875,[0. 0. 0. 0. 0. 0. 0. 0. 0.]
8.04056692123413,0.019145049154758453,-0.023187506943941116,-0.8624365329742432,0.5052712559700012,[0. 0. 0. 0. 0. 0. 0. 0. 0.],-0.3662109375,-1.708984375,11.5966796875,[0. 0. 0. 0. 0. 0. 0. 0. 0.],-0.02783203125,0.26123046875,1.00830078125,[0. 0. 0. 0. 0. 0. 0. 0. 0.]
8.058286905288696,0.020003605633974075,-0.024247270077466965,-0.86135333776474,0.5070328712463379,[0. 0. 0. 0. 0. 0. 0. 0. 0.],-2.62451171875,0.67138671875,11.8408203125,[0. 0. 0. 0. 0. 0. 0. 0. 0.],-0.06103515625,0.24365234375,0.99365234375,[0. 0. 0. 0. 0. 0. 0. 0. 0.]
8.080657243728638,0.020980847999453545,-0.024785062298178673,-0.8603072762489319,0.5087406039237976,[0. 0. 0. 0. 0. 0. 0. 0. 0.],-2.44140625,-1.64794921875,10.80322265625,[0. 0. 0. 0. 0. 0. 0. 0. 0.],-0.08544921875,0.2177734375,1.00048828125,[0. 0. 0. 0. 0. 0. 0. 0. 0.]
8.098790168762207,0.0219246968626976,-0.025720590725541115,-0.8594242930412292,0.5101447701454163,[0. 0. 0. 0. 0. 0. 0. 0. 0.],-0.3662109375,-0.79345703125,9.033203125,[0. 0. 0. 0. 0. 0. 0. 0. 0.],-0.07421875,0.19970703125,1.021484375,[0. 0. 0. 0. 0. 0. 0. 0. 0.]
8.119947671890259,0.023113006725907326,-0.026632994413375854,-0.858752429485321,0.5111758708953857,[0. 0. 0. 0. 0. 0. 0. 0. 0.],-0.6103515625,-0.06103515625,6.103515625,[0. 0. 0. 0. 0. 0. 0. 0. 0.],-0.05712890625,0.18408203125,1.00341796875,[0. 0. 0. 0. 0. 0. 0. 0. 0.]
8.139026165008545,0.024168208241462708,-0.027781279757618904,-0.8583475947380066,0.5117455124855042,[0. 0. 0. 0. 0. 0. 0. 0. 0.],0.9765625,-2.38037109375,3.47900390625,[0. 0. 0. 0. 0. 0. 0. 0. 0.],-0.0498046875,0.185546875,1.02783203125,[0. 0. 0. 0. 0. 0. 0. 0. 0.]
8.159032583236694,0.025272421538829803,-0.028817465528845787,-0.858060896396637,0.5121155381202698,[0. 0. 0. 0. 0. 0. 0. 0. 0.],-0.6103515625,-1.28173828125,2.86865234375,[0. 0. 0. 0. 0. 0. 0. 0. 0.],-0.060546875,0.1787109375,0.9921875,[0. 0. 0. 0. 0. 0. 0. 0. 0.]
8.178260803222656,0.026299402117729187,-0.02990376576781273,-0.8578560948371887,0.5123447179794312,[0. 0. 0. 0. 0. 0. 0. 0. 0.],-1.8310546875,0.0,2.01416015625,[0. 0. 0. 0. 0. 0. 0. 0. 0.],-0.0556640625,0.1796875,0.99267578125,[0. 0. 0. 0. 0. 0. 0. 0. 0.]
8.200527667999268,0.027340678498148918,-0.03022562526166439,-0.857743501663208,0.5124598145484924,[0. 0. 0. 0. 0. 0. 0. 0. 0.],-1.89208984375,-2.685546875,0.732421875,[0. 0. 0. 0. 0. 0. 0. 0. 0.],-0.06494140625,0.12255859375,0.99072265625,[0. 0. 0. 0. 0. 0. 0. 0. 0.]
8.219427585601807,0.028726521879434586,-0.030825858935713768,-0.8577267527580261,0.5123763680458069,[0. 0. 0. 0. 0. 0. 0. 0. 0.],0.67138671875,-1.64794921875,-1.0986328125,[0. 0. 0. 0. 0. 0. 0. 0. 0.],-0.05078125,0.1279296875,1.0322265625,[0. 0. 0. 0. 0. 0. 0. 0. 0.]
8.2385413646698,0.03009701706469059,-0.03152909874916077,-0.8578382134437561,0.5120682120323181,[0. 0. 0. 0. 0. 0. 0. 0. 0.],-0.8544921875,-1.3427734375,-2.3193359375,[0. 0. 0. 0. 0. 0. 0. 0. 0.],-0.05126953125,0.12451171875,0.994140625,[0. 0. 0. 0. 0. 0. 0. 0. 0.]
8.258597373962402,0.03140261769294739,-0.03127535060048103,-0.8580383658409119,0.5116698145866394,[0. 0. 0. 0. 0. 0. 0. 0. 0.],-2.25830078125,-2.13623046875,-2.25830078125,[0. 0. 0. 0. 0. 0. 0. 0. 0.],-0.0634765625,0.09375,0.99169921875,[0. 0. 0. 0. 0. 0. 0. 0. 0.]
8.278378963470459,0.03199330344796181,-0.029847508296370506,-0.8583076596260071,0.5112666487693787,[0. 0. 0. 0. 0. 0. 0. 0. 0.],-2.3193359375,-2.685546875,-2.3193359375,[0. 0. 0. 0. 0. 0. 0. 0. 0.],-0.05712890625,0.06396484375,1.0009765625,[0. 0. 0. 0. 0. 0. 0. 0. 0.]
8.298620223999023,0.03164895623922348,-0.02796509489417076,-0.8586389422416687,0.510837972164154,[0. 0. 0. 0. 0. 0. 0. 0. 0.],-1.953125,-2.44140625,-2.9296875,[0. 0. 0. 0. 0. 0. 0. 0. 0.],-0.0458984375,0.04443359375,1.0048828125,[0. 0. 0. 0. 0. 0. 0. 0. 0.]
8.318728685379028,0.030942771583795547,-0.02608354017138481,-0.8589801788330078,0.5104069709777832,[0. 0. 0. 0. 0. 0. 0. 0. 0.],-1.77001953125,-2.86865234375,-2.8076171875,[0. 0. 0. 0. 0. 0. 0. 0. 0.],-0.048828125,0.03466796875,1.013671875,[0. 0. 0. 0. 0. 0. 0. 0. 0.]
8.33890151977539,0.03025939129292965,-0.024274658411741257,-0.8592849969863892,0.5100240707397461,[0. 0. 0. 0. 0. 0. 0. 0. 0.],-1.52587890625,-3.0517578125,-2.50244140625,[0. 0. 0. 0. 0. 0. 0. 0. 0.],-0.046875,0.0322265625,1.01318359375,[0. 0. 0. 0. 0. 0. 0. 0. 0.]
8.3584303855896,0.029482664540410042,-0.022478075698018074,-0.8595553636550903,0.5096960663795471,[0. 0. 0. 0. 0. 0. 0. 0. 0.],-1.40380859375,-2.25830078125,-2.01416015625,[0. 0. 0. 0. 0. 0. 0. 0. 0.],-0.0419921875,0.02880859375,1.0068359375,[0. 0. 0. 0. 0. 0. 0. 0. 0.]
8.378286123275757,0.028687747195363045,-0.02071518637239933,-0.8598011136054993,0.5094015598297119,[0. 0. 0. 0. 0. 0. 0. 0. 0.],-1.28173828125,-1.5869140625,-1.8310546875,[0. 0. 0. 0. 0. 0. 0. 0. 0.],-0.04296875,0.021484375,1.00732421875,[0. 0. 0. 0. 0. 0. 0. 0. 0.]
8.399861335754395,0.027934793382883072,-0.018932903185486794,-0.8600119948387146,0.5091568231582642,[0. 0. 0. 0. 0. 0. 0. 0. 0.],-1.220703125,-1.8310546875,-1.3427734375,[0. 0. 0. 0. 0. 0. 0. 0. 0.],-0.0458984375,0.01708984375,1.00634765625,[0. 0. 0. 0. 0. 0. 0. 0. 0.]
8.418328762054443,0.027262577787041664,-0.01713515818119049,-0.8602012395858765,0.5089370608329773,[0. 0. 0. 0. 0. 0. 0. 0. 0.],-0.79345703125,-1.77001953125,-1.28173828125,[0. 0. 0. 0. 0. 0. 0. 0. 0.],-0.04541015625,0.0146484375,1.00830078125,[0. 0. 0. 0. 0. 0. 0. 0. 0.]
8.438461303710938,0.026518074795603752,-0.015414881519973278,-0.8603743314743042,0.5087387561798096,[0. 0. 0. 0. 0. 0. 0. 0. 0.],-0.42724609375,-1.46484375,-1.15966796875,[0. 0. 0. 0. 0. 0. 0. 0. 0.],-0.03955078125,0.015625,1.00927734375,[0. 0. 0. 0. 0. 0. 0. 0. 0.]
8.458361387252808,0.025803864002227783,-0.01367790438234806,-0.8605174422264099,0.5085832476615906,[0. 0. 0. 0. 0. 0. 0. 0. 0.],-0.8544921875,-1.708984375,-0.91552734375,[0. 0. 0. 0. 0. 0. 0. 0. 0.],-0.04150390625,0.01611328125,1.00732421875,[0. 0. 0. 0. 0. 0. 0. 0. 0.]
8.478392601013184,0.025229942053556442,-0.011895295232534409,-0.8606187701225281,0.5084853172302246,[0. 0. 0. 0. 0. 0. 0. 0. 0.],-0.67138671875,-1.3427734375,-0.48828125,[0. 0. 0. 0. 0. 0. 0. 0. 0.],-0.04443359375,0.01708984375,1.00830078125,[0. 0. 0. 0. 0. 0. 0. 0. 0.]
8.495383024215698,0.024825040251016617,-0.010139578953385353,-0.860688328742981,0.5084257125854492,[0. 0. 0. 0. 0. 0. 0. 0. 0.],-0.3662109375,-0.9765625,-0.06103515625,[0. 0. 0. 0. 0. 0. 0. 0. 0.],-0.0439453125,0.0185546875,1.005859375,[0. 0. 0. 0. 0. 0. 0. 0. 0.]
8.51833963394165,0.023960774764418602,-0.008338137529790401,-0.8607556223869324,0.5083860158920288,[0. 0. 0. 0. 0. 0. 0. 0. 0.],-2.86865234375,-0.54931640625,-0.3662109375,[0. 0. 0. 0. 0. 0. 0. 0. 0.],-0.03173828125,-0.0029296875,0.990234375,[0. 0. 0. 0. 0. 0. 0. 0. 0.]
8.540433406829834,0.022137852385640144,-0.0059361569583415985,-0.8607414364814758,0.5085261464118958,[0. 0. 0. 0. 0. 0. 0. 0. 0.],-5.4931640625,-5.67626953125,0.79345703125,[0. 0. 0. 0. 0. 0. 0. 0. 0.],-0.03564453125,-0.11865234375,0.98583984375,[0. 0. 0. 0. 0. 0. 0. 0. 0.]
8.558968305587769,0.020463841035962105,-0.003762424224987626,-0.8605359792709351,0.5089645385742188,[0. 0. 0. 0. 0. 0. 0. 0. 0.],-9.46044921875,0.18310546875,6.28662109375,[0. 0. 0. 0. 0. 0. 0. 0. 0.],-0.0673828125,-0.125,0.97802734375,[0. 0. 0. 0. 0. 0. 0. 0. 0.]
8.578287601470947,0.0176505409181118,-0.0010464524384588003,-0.8601590394973755,0.5097194910049438,[0. 0. 0. 0. 0. 0. 0. 0. 0.],-9.765625,-5.4931640625,6.591796875,[0. 0. 0. 0. 0. 0. 0. 0. 0.],-0.00341796875,-0.24560546875,0.9697265625,[0. 0. 0. 0. 0. 0. 0. 0. 0.]
8.598634719848633,0.01488699484616518,0.00015583654749207199,-0.8596375584602356,0.5106873512268066,[0. 0. 0. 0. 0. 0. 0. 0. 0.],-1.0986328125,-6.34765625,8.1787109375,[0. 0. 0. 0. 0. 0. 0. 0. 0.],0.0029296875,-0.16552734375,1.107421875,[0. 0. 0. 0. 0. 0. 0. 0. 0.]
8.618275165557861,0.012833076529204845,0.002432658802717924,-0.858616054058075,0.5124528408050537,[0. 0. 0. 0. 0. 0. 0. 0. 0.],-8.056640625,-7.6904296875,12.14599609375,[0. 0. 0. 0. 0. 0. 0. 0. 0.],-0.0439453125,-0.23193359375,0.95458984375,[0. 0. 0. 0. 0. 0. 0. 0. 0.]
8.638776063919067,0.01020690705627203,0.004732993897050619,-0.8573130965232849,0.5146725177764893,[0. 0. 0. 0. 0. 0. 0. 0. 0.],-9.09423828125,-4.57763671875,16.90673828125,[0. 0. 0. 0. 0. 0. 0. 0. 0.],-0.0380859375,-0.28564453125,0.96875,[0. 0. 0. 0. 0. 0. 0. 0. 0.]
8.658523082733154,0.007906515151262283,0.006286279764026403,-0.8556545376777649,0.5174488425254822,[0. 0. 0. 0. 0. 0. 0. 0. 0.],-2.685546875,-6.9580078125,19.53125,[0. 0. 0. 0. 0. 0. 0. 0. 0.],-0.0126953125,-0.3017578125,1.0625,[0. 0. 0. 0. 0. 0. 0. 0. 0.]
8.678508996963501,0.006207483354955912,0.0071548353880643845,-0.8537351489067078,0.5206213593482971,[0. 0. 0. 0. 0. 0. 0. 0. 0.],0.3662109375,-4.39453125,20.20263671875,[0. 0. 0. 0. 0. 0. 0. 0. 0.],0.03125,-0.248046875,1.04736328125,[0. 0. 0. 0. 0. 0. 0. 0. 0.]
8.698406219482422,0.004394644405692816,0.00814705342054367,-0.8516510725021362,0.5240275263786316,[0. 0. 0. 0. 0. 0. 0. 0. 0.],-4.39453125,-1.708984375,26.0009765625,[0. 0. 0. 0. 0. 0. 0. 0. 0.],-0.00830078125,-0.22705078125,0.9560546875,[0. 0. 0. 0. 0. 0. 0. 0. 0.]
8.718356370925903,0.002721753204241395,0.009603110142052174,-0.8490902781486511,0.5281534790992737,[0. 0. 0. 0. 0. 0. 0. 0. 0.],-1.89208984375,-2.0751953125,30.70068359375,[0. 0. 0. 0. 0. 0. 0. 0. 0.],0.009765625,-0.287109375,0.9970703125,[0. 0. 0. 0. 0. 0. 0. 0. 0.]
8.738277435302734,0.0014637232525274158,0.01101073157042265,-0.846081554889679,0.5329378247261047,[0. 0. 0. 0. 0. 0. 0. 0. 0.],0.06103515625,-2.44140625,32.65380859375,[0. 0. 0. 0. 0. 0. 0. 0. 0.],0.02734375,-0.29443359375,1.01318359375,[0. 0. 0. 0. 0. 0. 0. 0. 0.]
8.7584547996521,0.0003035737026948482,0.01164152566343546,-0.8429961204528809,0.5377935767173767,[0. 0. 0. 0. 0. 0. 0. 0. 0.],2.8076171875,-0.54931640625,32.8369140625,[0. 0. 0. 0. 0. 0. 0. 0. 0.],0.06982421875,-0.23583984375,1.0400390625,[0. 0. 0. 0. 0. 0. 0. 0. 0.]
8.778449535369873,-0.0008449126034975052,0.011768901720643044,-0.8399588465690613,0.5425219535827637,[0. 0. 0. 0. 0. 0. 0. 0. 0.],2.8076171875,-3.90625,32.8369140625,[0. 0. 0. 0. 0. 0. 0. 0. 0.],0.0556640625,-0.1708984375,0.97802734375,[0. 0. 0. 0. 0. 0. 0. 0. 0.]
8.798498153686523,-0.0027924010064452887,0.012670542113482952,-0.8367526531219482,0.5474274158477783,[0. 0. 0. 0. 0. 0. 0. 0. 0.],-3.7841796875,-2.0751953125,34.48486328125,[0. 0. 0. 0. 0. 0. 0. 0. 0.],0.06689453125,-0.14404296875,0.91552734375,[0. 0. 0. 0. 0. 0. 0. 0. 0.]
8.81842589378357,-0.0051187388598918915,0.014110028743743896,-0.833245575428009,0.5526993870735168,[0. 0. 0. 0. 0. 0. 0. 0. 0.],-4.638671875,-2.8076171875,37.109375,[0. 0. 0. 0. 0. 0. 0. 0. 0.],0.01513671875,-0.1640625,0.97607421875,[0. 0. 0. 0. 0. 0. 0. 0. 0.]
8.838397026062012,-0.0066896709613502026,0.015285739675164223,-0.8295028209686279,0.5582534074783325,[0. 0. 0. 0. 0. 0. 0. 0. 0.],2.3193359375,1.03759765625,38.57421875,[0. 0. 0. 0. 0. 0. 0. 0. 0.],0.0400390625,-0.16796875,1.05712890625,[0. 0. 0. 0. 0. 0. 0. 0. 0.]
8.858128309249878,-0.007377436850219965,0.015295258723199368,-0.8256931304931641,0.5638638734817505,[0. 0. 0. 0. 0. 0. 0. 0. 0.],8.056640625,-2.13623046875,39.9169921875,[0. 0. 0. 0. 0. 0. 0. 0. 0.],0.029296875,-0.138671875,1.09423828125,[0. 0. 0. 0. 0. 0. 0. 0. 0.]
8.8812735080719,-0.008645300753414631,0.015157102607190609,-0.8216807842254639,0.56968092918396,[0. 0. 0. 0. 0. 0. 0. 0. 0.],1.46484375,-1.8310546875,40.71044921875,[0. 0. 0. 0. 0. 0. 0. 0. 0.],0.041015625,-0.08154296875,0.95263671875,[0. 0. 0. 0. 0. 0. 0. 0. 0.]
8.898321628570557,-0.010682747699320316,0.015458580106496811,-0.8174580931663513,0.5756816267967224,[0. 0. 0. 0. 0. 0. 0. 0. 0.],-2.8076171875,-1.52587890625,43.5791015625,[0. 0. 0. 0. 0. 0. 0. 0. 0.],0.044921875,-0.07763671875,0.93994140625,[0. 0. 0. 0. 0. 0. 0. 0. 0.]
8.918534517288208,-0.011830946430563927,0.016920147463679314,-0.8125859498977661,0.5824755430221558,[0. 0. 0. 0. 0. 0. 0. 0. 0.],0.244140625,-8.1787109375,49.072265625,[0. 0. 0. 0. 0. 0. 0. 0. 0.],-0.04833984375,-0.09814453125,1.01513671875,[0. 0. 0. 0. 0. 0. 0. 0. 0.]
8.938282012939453,-0.013622409664094448,0.017551764845848083,-0.8075542449951172,0.5893747806549072,[0. 0. 0. 0. 0. 0. 0. 0. 0.],-0.3662109375,-3.11279296875,48.7060546875,[0. 0. 0. 0. 0. 0. 0. 0. 0.],0.03759765625,-0.06787109375,0.97607421875,[0. 0. 0. 0. 0. 0. 0. 0. 0.]
8.958157539367676,-0.01550652738660574,0.016808869317173958,-0.8022869825363159,0.5965003371238708,[0. 0. 0. 0. 0. 0. 0. 0. 0.],1.03759765625,-5.92041015625,51.6357421875,[0. 0. 0. 0. 0. 0. 0. 0. 0.],0.02587890625,-0.052734375,1.05322265625,[0. 0. 0. 0. 0. 0. 0. 0. 0.]
8.978789329528809,-0.016235271468758583,0.015786081552505493,-0.7965872287750244,0.604099452495575,[0. 0. 0. 0. 0. 0. 0. 0. 0.],-1.64794921875,2.0751953125,55.96923828125,[0. 0. 0. 0. 0. 0. 0. 0. 0.],0.03076171875,-0.0361328125,0.9931640625,[0. 0. 0. 0. 0. 0. 0. 0. 0.]
8.99862551689148,-0.016874341294169426,0.014653566293418407,-0.790615975856781,0.6119043231010437,[0. 0. 0. 0. 0. 0. 0. 0. 0.],2.3193359375,4.39453125,58.41064453125,[0. 0. 0. 0. 0. 0. 0. 0. 0.],0.05810546875,-0.04443359375,0.97265625,[0. 0. 0. 0. 0. 0. 0. 0. 0.]
9.01830267906189,-0.017210407182574272,0.013399559073150158,-0.7844858765602112,0.6197630167007446,[0. 0. 0. 0. 0. 0. 0. 0. 0.],-6.103515625,-1.708984375,59.02099609375,[0. 0. 0. 0. 0. 0. 0. 0. 0.],0.00341796875,-0.009765625,0.9248046875,[0. 0. 0. 0. 0. 0. 0. 0. 0.]
9.038486957550049,-0.01815154030919075,0.012810304760932922,-0.7783716917037964,0.6274106502532959,[0. 0. 0. 0. 0. 0. 0. 0. 0.],-1.220703125,1.3427734375,56.5185546875,[0. 0. 0. 0. 0. 0. 0. 0. 0.],0.1533203125,-0.00927734375,1.08251953125,[0. 0. 0. 0. 0. 0. 0. 0. 0.]
9.058343648910522,-0.0198852326720953,0.01090819388628006,-0.7722061276435852,0.6349671483039856,[0. 0. 0. 0. 0. 0. 0. 0. 0.],2.197265625,-7.568359375,55.84716796875,[0. 0. 0. 0. 0. 0. 0. 0. 0.],0.06787109375,-0.03515625,1.05615234375,[0. 0. 0. 0. 0. 0. 0. 0. 0.]
9.073608636856079,-0.02026606723666191,0.008530991151928902,-0.7660807967185974,0.6423680782318115,[0. 0. 0. 0. 0. 0. 0. 0. 0.],7.9345703125,0.3662109375,54.3212890625,[0. 0. 0. 0. 0. 0. 0. 0. 0.],0.13134765625,-0.0078125,1.04931640625,[0. 0. 0. 0. 0. 0. 0. 0. 0.]
9.098214864730835,-0.0199749618768692,0.006838137283921242,-0.7598434090614319,0.6497633457183838,[0. 0. 0. 0. 0. 0. 0. 0. 0.],2.25830078125,-4.08935546875,55.48095703125,[0. 0. 0. 0. 0. 0. 0. 0. 0.],0.06494140625,0.03173828125,0.958984375,[0. 0. 0. 0. 0. 0. 0. 0. 0.]
9.118151664733887,-0.01924789696931839,0.005542074330151081,-0.7533009648323059,0.6573708653450012,[0. 0. 0. 0. 0. 0. 0. 0. 0.],-2.01416015625,-4.39453125,57.373046875,[0. 0. 0. 0. 0. 0. 0. 0. 0.],0.0263671875,0.03125,1.015625,[0. 0. 0. 0. 0. 0. 0. 0. 0.]
9.13519287109375,-0.019452225416898727,0.004160575568675995,-0.7466304898262024,0.6649416089057922,[0. 0. 0. 0. 0. 0. 0. 0. 0.],-4.150390625,-8.544921875,57.9833984375,[0. 0. 0. 0. 0. 0. 0. 0. 0.],0.0419921875,0.0244140625,0.978515625,[0. 0. 0. 0. 0. 0. 0. 0. 0.]
9.15834665298462,-0.02063649147748947,0.0022944794036448,-0.739770233631134,0.6725391149520874,[0. 0. 0. 0. 0. 0. 0. 0. 0.],2.50244140625,-2.13623046875,58.9599609375,[0. 0. 0. 0. 0. 0. 0. 0. 0.],0.0634765625,-0.0302734375,0.99169921875,[0. 0. 0. 0. 0. 0. 0. 0. 0.]
9.175976514816284,-0.020646901801228523,0.0003941491013392806,-0.7330535054206848,0.6798574328422546,[0. 0. 0. 0. 0. 0. 0. 0. 0.],11.65771484375,3.11279296875,56.7626953125,[0. 0. 0. 0. 0. 0. 0. 0. 0.],0.123046875,-0.025390625,1.08056640625,[0. 0. 0. 0. 0. 0. 0. 0. 0.]
9.198341608047485,-0.019859423860907555,-0.0019509471021592617,-0.726289689540863,0.6870990991592407,[0. 0. 0. 0. 0. 0. 0. 0. 0.],2.25830078125,-2.74658203125,57.80029296875,[0. 0. 0. 0. 0. 0. 0. 0. 0.],0.02880859375,0.04638671875,0.9384765625,[0. 0. 0. 0. 0. 0. 0. 0. 0.]
9.218186616897583,-0.019122056663036346,-0.003241601400077343,-0.7190872430801392,0.6946492195129395,[0. 0. 0. 0. 0. 0. 0. 0. 0.],-2.44140625,-5.7373046875,60.97412109375,[0. 0. 0. 0. 0. 0. 0. 0. 0.],0.00146484375,0.130859375,0.94677734375,[0. 0. 0. 0. 0. 0. 0. 0. 0.]
9.238552331924438,-0.01941063441336155,-0.004855302162468433,-0.7115984559059143,0.7023015022277832,[0. 0. 0. 0. 0. 0. 0. 0. 0.],-3.90625,-7.9345703125,61.34033203125,[0. 0. 0. 0. 0. 0. 0. 0. 0.],0.046875,0.10400390625,0.95849609375,[0. 0. 0. 0. 0. 0. 0. 0. 0.]
9.258403778076172,-0.018886175006628036,-0.006599268410354853,-0.7040989398956299,0.7098199725151062,[0. 0. 0. 0. 0. 0. 0. 0. 0.],1.77001953125,-0.8544921875,59.75341796875,[0. 0. 0. 0. 0. 0. 0. 0. 0.],0.10107421875,0.125,1.08349609375,[0. 0. 0. 0. 0. 0. 0. 0. 0.]
9.278424739837646,-0.01850998029112816,-0.008431789465248585,-0.6966334581375122,0.717138946056366,[0. 0. 0. 0. 0. 0. 0. 0. 0.],-3.11279296875,-5.18798828125,60.546875,[0. 0. 0. 0. 0. 0. 0. 0. 0.],0.033203125,0.15234375,0.96826171875,[0. 0. 0. 0. 0. 0. 0. 0. 0.]
9.29828929901123,-0.018118496984243393,-0.010103664360940456,-0.6892768740653992,0.7242009043693542,[0. 0. 0. 0. 0. 0. 0. 0. 0.],2.8076171875,-3.11279296875,58.77685546875,[0. 0. 0. 0. 0. 0. 0. 0. 0.],0.07177734375,0.15185546875,1.0634765625,[0. 0. 0. 0. 0. 0. 0. 0. 0.]
9.315061807632446,-0.017604807391762733,-0.012122011743485928,-0.6819553375244141,0.731081485748291,[0. 0. 0. 0. 0. 0. 0. 0. 0.],0.9765625,-8.30078125,57.55615234375,[0. 0. 0. 0. 0. 0. 0. 0. 0.],0.052734375,0.14013671875,1.0439453125,[0. 0. 0. 0. 0. 0. 0. 0. 0.]
9.333597183227539,-0.017180558294057846,-0.013248245231807232,-0.6747485399246216,0.7377286553382874,[0. 0. 0. 0. 0. 0. 0. 0. 0.],-1.953125,4.94384765625,55.0537109375,[0. 0. 0. 0. 0. 0. 0. 0. 0.],0.1162109375,0.17236328125,0.99609375,[0. 0. 0. 0. 0. 0. 0. 0. 0.]
9.358250141143799,-0.016614971682429314,-0.0152985118329525,-0.6677592992782593,0.7440346479415894,[0. 0. 0. 0. 0. 0. 0. 0. 0.],4.8828125,-6.28662109375,53.89404296875,[0. 0. 0. 0. 0. 0. 0. 0. 0.],0.06591796875,0.109375,1.03857421875,[0. 0. 0. 0. 0. 0. 0. 0. 0.]
9.37835431098938,-0.014497795142233372,-0.017591744661331177,-0.6610540151596069,0.7499920725822449,[0. 0. 0. 0. 0. 0. 0. 0. 0.],10.6201171875,2.8076171875,49.74365234375,[0. 0. 0. 0. 0. 0. 0. 0. 0.],0.1005859375,0.234375,1.00439453125,[0. 0. 0. 0. 0. 0. 0. 0. 0.]
9.398250102996826,-0.012969901785254478,-0.018376262858510017,-0.6547324657440186,0.7555260062217712,[0. 0. 0. 0. 0. 0. 0. 0. 0.],-3.41796875,-1.708984375,46.0205078125,[0. 0. 0. 0. 0. 0. 0. 0. 0.],0.060546875,0.2216796875,0.90771484375,[0. 0. 0. 0. 0. 0. 0. 0. 0.]
9.418474197387695,-0.012397823855280876,-0.01915736310184002,-0.6487199664115906,0.76068514585495,[0. 0. 0. 0. 0. 0. 0. 0. 0.],-5.18798828125,2.99072265625,46.630859375,[0. 0. 0. 0. 0. 0. 0. 0. 0.],0.0341796875,0.1884765625,1.0205078125,[0. 0. 0. 0. 0. 0. 0. 0. 0.]
9.438323736190796,-0.011358034797012806,-0.019605062901973724,-0.6429014801979065,0.7656136751174927,[0. 0. 0. 0. 0. 0. 0. 0. 0.],-0.3662109375,3.60107421875,42.66357421875,[0. 0. 0. 0. 0. 0. 0. 0. 0.],0.0673828125,0.15283203125,1.0859375,[0. 0. 0. 0. 0. 0. 0. 0. 0.]
9.460047483444214,-0.010426543653011322,-0.020269086584448814,-0.637343168258667,0.7702429294586182,[0. 0. 0. 0. 0. 0. 0. 0. 0.],-2.01416015625,-1.953125,39.6728515625,[0. 0. 0. 0. 0. 0. 0. 0. 0.],0.0390625,0.14501953125,0.97900390625,[0. 0. 0. 0. 0. 0. 0. 0. 0.]
9.478719711303711,-0.009324300102889538,-0.02072531171143055,-0.6321039199829102,0.7745502591133118,[0. 0. 0. 0. 0. 0. 0. 0. 0.],-1.40380859375,0.8544921875,38.39111328125,[0. 0. 0. 0. 0. 0. 0. 0. 0.],0.0263671875,0.126953125,0.91259765625,[0. 0. 0. 0. 0. 0. 0. 0. 0.]
9.498254537582397,-0.007929048500955105,-0.02111925557255745,-0.6269054412841797,0.7787687182426453,[0. 0. 0. 0. 0. 0. 0. 0. 0.],-0.1220703125,-1.89208984375,38.87939453125,[0. 0. 0. 0. 0. 0. 0. 0. 0.],-0.02734375,0.0986328125,1.00146484375,[0. 0. 0. 0. 0. 0. 0. 0. 0.]
9.52214241027832,-0.0055022165179252625,-0.021845979616045952,-0.6216493248939514,0.7829716801643372,[0. 0. 0. 0. 0. 0. 0. 0. 0.],7.26318359375,-0.67138671875,37.353515625,[0. 0. 0. 0. 0. 0. 0. 0. 0.],-0.00146484375,0.10546875,1.13671875,[0. 0. 0. 0. 0. 0. 0. 0. 0.]
9.539188623428345,-0.003564066020771861,-0.022898171097040176,-0.6165956258773804,0.7869389653205872,[0. 0. 0. 0. 0. 0. 0. 0. 0.],3.90625,-0.54931640625,35.888671875,[0. 0. 0. 0. 0. 0. 0. 0. 0.],0.02001953125,0.1357421875,1.0732421875,[0. 0. 0. 0. 0. 0. 0. 0. 0.]
9.558202505111694,-0.002482542535290122,-0.02361263893544674,-0.6115614771842957,0.7908406257629395,[0. 0. 0. 0. 0. 0. 0. 0. 0.],-1.953125,-2.0751953125,37.29248046875,[0. 0. 0. 0. 0. 0. 0. 0. 0.],-0.005859375,0.13818359375,0.94482421875,[0. 0. 0. 0. 0. 0. 0. 0. 0.]
9.578134536743164,-0.0013677052920684218,-0.023844456300139427,-0.6064178347587585,0.7947873473167419,[0. 0. 0. 0. 0. 0. 0. 0. 0.],-1.64794921875,-1.89208984375,37.53662109375,[0. 0. 0. 0. 0. 0. 0. 0. 0.],-0.01123046875,0.10546875,0.951171875,[0. 0. 0. 0. 0. 0. 0. 0. 0.]
9.598293781280518,-4.459272895473987e-05,-0.02415144443511963,-0.6012229919433594,0.7987163066864014,[0. 0. 0. 0. 0. 0. 0. 0. 0.],-1.03759765625,-1.77001953125,37.65869140625,[0. 0. 0. 0. 0. 0. 0. 0. 0.],-0.015625,0.0908203125,0.966796875,[0. 0. 0. 0. 0. 0. 0. 0. 0.]
9.618432521820068,0.001234286231920123,-0.024776047095656395,-0.5961777567863464,0.8024691939353943,[0. 0. 0. 0. 0. 0. 0. 0. 0.],0.3662109375,-3.173828125,35.94970703125,[0. 0. 0. 0. 0. 0. 0. 0. 0.],0.00244140625,0.09033203125,0.9931640625,[0. 0. 0. 0. 0. 0. 0. 0. 0.]
9.638319492340088,0.0022618912626057863,-0.025042470544576645,-0.5912404656410217,0.8061034083366394,[0. 0. 0. 0. 0. 0. 0. 0. 0.],-3.35693359375,-2.01416015625,35.64453125,[0. 0. 0. 0. 0. 0. 0. 0. 0.],-0.00537109375,0.09912109375,1.001953125,[0. 0. 0. 0. 0. 0. 0. 0. 0.]
9.658148527145386,0.0035950792953372,-0.02512851357460022,-0.586219072341919,0.8097549080848694,[0. 0. 0. 0. 0. 0. 0. 0. 0.],-1.15966796875,0.79345703125,36.31591796875,[0. 0. 0. 0. 0. 0. 0. 0. 0.],0.00244140625,0.09619140625,1.0615234375,[0. 0. 0. 0. 0. 0. 0. 0. 0.]
9.678229808807373,0.005142662208527327,-0.02572786808013916,-0.5812250971794128,0.8133199214935303,[0. 0. 0. 0. 0. 0. 0. 0. 0.],1.77001953125,-1.46484375,35.33935546875,[0. 0. 0. 0. 0. 0. 0. 0. 0.],0.0078125,0.09326171875,1.052734375,[0. 0. 0. 0. 0. 0. 0. 0. 0.]
9.698232173919678,0.006207951344549656,-0.026026705279946327,-0.5763234496116638,0.816783607006073,[0. 0. 0. 0. 0. 0. 0. 0. 0.],-1.5869140625,-3.7841796875,34.72900390625,[0. 0. 0. 0. 0. 0. 0. 0. 0.],-0.0234375,0.09912109375,0.95654296875,[0. 0. 0. 0. 0. 0. 0. 0. 0.]
9.718316555023193,0.007257665041834116,-0.025877466425299644,-0.5714627504348755,0.8201878666877747,[0. 0. 0. 0. 0. 0. 0. 0. 0.],-2.99072265625,-1.46484375,34.66796875,[0. 0. 0. 0. 0. 0. 0. 0. 0.],-0.00634765625,0.078125,0.982421875,[0. 0. 0. 0. 0. 0. 0. 0. 0.]
9.734477758407593,0.008359391242265701,-0.0250558964908123,-0.5666678547859192,0.8235229849815369,[0. 0. 0. 0. 0. 0. 0. 0. 0.],0.67138671875,-3.23486328125,33.935546875,[0. 0. 0. 0. 0. 0. 0. 0. 0.],-0.00244140625,0.041015625,1.04541015625,[0. 0. 0. 0. 0. 0. 0. 0. 0.]
9.758317232131958,0.008754564449191093,-0.024021673947572708,-0.5618253350257874,0.8268607258796692,[0. 0. 0. 0. 0. 0. 0. 0. 0.],-0.54931640625,-4.150390625,34.423828125,[0. 0. 0. 0. 0. 0. 0. 0. 0.],0.00146484375,0.04638671875,1.0166015625,[0. 0. 0. 0. 0. 0. 0. 0. 0.]
9.779479265213013,0.009004887193441391,-0.022579532116651535,-0.5567835569381714,0.8303018808364868,[0. 0. 0. 0. 0. 0. 0. 0. 0.],-3.72314453125,-1.03759765625,36.4990234375,[0. 0. 0. 0. 0. 0. 0. 0. 0.],0.0029296875,0.0341796875,0.97509765625,[0. 0. 0. 0. 0. 0. 0. 0. 0.]
9.79884147644043,0.0077414847910404205,-0.021298279985785484,-0.5517137050628662,0.83372563123703,[0. 0. 0. 0. 0. 0. 0. 0. 0.],-0.42724609375,-0.79345703125,34.85107421875,[0. 0. 0. 0. 0. 0. 0. 0. 0.],0.029296875,0.00146484375,1.0419921875,[0. 0. 0. 0. 0. 0. 0. 0. 0.]
9.81933307647705,0.0064502740278840065,-0.02162994258105755,-0.5468530058860779,0.8369243741035461,[0. 0. 0. 0. 0. 0. 0. 0. 0.],5.615234375,-1.220703125,32.3486328125,[0. 0. 0. 0. 0. 0. 0. 0. 0.],0.04833984375,0.00390625,1.0478515625,[0. 0. 0. 0. 0. 0. 0. 0. 0.]
9.838213443756104,0.005543042439967394,-0.02122063934803009,-0.5422719120979309,0.8399168848991394,[0. 0. 0. 0. 0. 0. 0. 0. 0.],0.91552734375,-1.46484375,31.8603515625,[0. 0. 0. 0. 0. 0. 0. 0. 0.],0.025390625,0.029296875,0.94970703125,[0. 0. 0. 0. 0. 0. 0. 0. 0.]
9.858366012573242,0.00484593166038394,-0.02286369353532791,-0.5377011895179749,0.8428114056587219,[0. 0. 0. 0. 0. 0. 0. 0. 0.],-1.220703125,-0.9765625,30.8837890625,[0. 0. 0. 0. 0. 0. 0. 0. 0.],0.04736328125,0.03173828125,0.98193359375,[0. 0. 0. 0. 0. 0. 0. 0. 0.]
