time,orientation.x,orientation.y,orientation.z,orientation.w,orientation_covariance,angular_velocity.x,angular_velocity.y,angular_velocity.z,angular_velocity_covariance,linear_acceleration.x,linear_acceleration.y,linear_acceleration.z,linear_acceleration_covariance
0.32375407218933105,-0.01567932963371277,-0.01756548322737217,0.22038009762763977,-0.9751299023628235,[0. 0. 0. 0. 0. 0. 0. 0. 0.],0.30517578125,-0.732421875,-0.1220703125,[0. 0. 0. 0. 0. 0. 0. 0. 0.],-0.04150390625,0.02294921875,1.00537109375,[0. 0. 0. 0. 0. 0. 0. 0. 0.]
0.34729933738708496,-0.015732605010271072,-0.016995038837194443,0.2204025387763977,-0.975134015083313,[0. 0. 0. 0. 0. 0. 0. 0. 0.],0.18310546875,-0.8544921875,-0.18310546875,[0. 0. 0. 0. 0. 0. 0. 0. 0.],-0.04052734375,0.0234375,1.005859375,[0. 0. 0. 0. 0. 0. 0. 0. 0.]
0.3687913417816162,-0.01572178676724434,-0.016879800707101822,0.22041285037994385,-0.9751339554786682,[0. 0. 0. 0. 0. 0. 0. 0. 0.],-0.42724609375,-0.79345703125,-0.1220703125,[0. 0. 0. 0. 0. 0. 0. 0. 0.],-0.0400390625,0.0234375,1.0029296875,[0. 0. 0. 0. 0. 0. 0. 0. 0.]
0.38256239891052246,-0.01621030643582344,-0.017214922234416008,0.22043129801750183,-0.9751158952713013,[0. 0. 0. 0. 0. 0. 0. 0. 0.],-0.42724609375,-0.30517578125,-0.06103515625,[0. 0. 0. 0. 0. 0. 0. 0. 0.],-0.041015625,0.0244140625,1.00146484375,[0. 0. 0. 0. 0. 0. 0. 0. 0.]
0.4081227779388428,-0.016181452199816704,-0.017300384119153023,0.22047491371631622,-0.9751049280166626,[0. 0. 0. 0. 0. 0. 0. 0. 0.],0.1220703125,-0.244140625,-0.18310546875,[0. 0. 0. 0. 0. 0. 0. 0. 0.],-0.041015625,0.0234375,1.0029296875,[0. 0. 0. 0. 0. 0. 0. 0. 0.]
0.42630457878112793,-0.015255054458975792,-0.017442675307393074,0.2205236703157425,-0.9751063585281372,[0. 0. 0. 0. 0. 0. 0. 0. 0.],0.06103515625,-0.91552734375,-0.244140625,[0. 0. 0. 0. 0. 0. 0. 0. 0.],-0.041015625,0.021484375,1.0029296875,[0. 0. 0. 0. 0. 0. 0. 0. 0.]
0.44510793685913086,-0.015376039780676365,-0.017015516757965088,0.2205551117658615,-0.9751048684120178,[0. 0. 0. 0. 0. 0. 0. 0. 0.],-0.244140625,-1.15966796875,-0.244140625,[0. 0. 0. 0. 0. 0. 0. 0. 0.],-0.0400390625,0.0224609375,1.0029296875,[0. 0. 0. 0. 0. 0. 0. 0. 0.]
0.4643993377685547,-0.015965944156050682,-0.016160674393177032,0.2205558717250824,-0.9751098155975342,[0. 0. 0. 0. 0. 0. 0. 0. 0.],-0.30517578125,-0.3662109375,-0.30517578125,[0. 0. 0. 0. 0. 0. 0. 0. 0.],-0.0390625,0.02392578125,1.001953125,[0. 0. 0. 0. 0. 0. 0. 0. 0.]
0.48541736602783203,-0.015593266114592552,-0.01680743508040905,0.22060690820217133,-0.9750933647155762,[0. 0. 0. 0. 0. 0. 0. 0. 0.],-0.1220703125,-0.18310546875,-0.1220703125,[0. 0. 0. 0. 0. 0. 0. 0. 0.],-0.0400390625,0.0234375,1.0029296875,[0. 0. 0. 0. 0. 0. 0. 0. 0.]
0.509026050567627,-0.015001198276877403,-0.017827164381742477,0.22065874934196472,-0.9750728011131287,[0. 0. 0. 0. 0. 0. 0. 0. 0.],-0.1220703125,-0.6103515625,-0.18310546875,[0. 0. 0. 0. 0. 0. 0. 0. 0.],-0.041015625,0.02197265625,1.00537109375,[0. 0. 0. 0. 0. 0. 0. 0. 0.]
0.5280225276947021,-0.016132064163684845,-0.01748359575867653,0.22067630290985107,-0.9750568866729736,[0. 0. 0. 0. 0. 0. 0. 0. 0.],-0.244140625,-0.244140625,-0.1220703125,[0. 0. 0. 0. 0. 0. 0. 0. 0.],-0.04150390625,0.02490234375,1.00244140625,[0. 0. 0. 0. 0. 0. 0. 0. 0.]
0.5397334098815918,-0.016169896349310875,-0.017185743898153305,0.22068706154823303,-0.9750591516494751,[0. 0. 0. 0. 0. 0. 0. 0. 0.],0.30517578125,-0.9765625,-0.1220703125,[0. 0. 0. 0. 0. 0. 0. 0. 0.],-0.04052734375,0.0234375,1.005859375,[0. 0. 0. 0. 0. 0. 0. 0. 0.]
0.565065860748291,-0.015830954536795616,-0.01663733832538128,0.2207072526216507,-0.9750696420669556,[0. 0. 0. 0. 0. 0. 0. 0. 0.],0.06103515625,-0.732421875,-0.30517578125,[0. 0. 0. 0. 0. 0. 0. 0. 0.],-0.0400390625,0.0234375,1.0048828125,[0. 0. 0. 0. 0. 0. 0. 0. 0.]
0.5843470096588135,-0.016673285514116287,-0.017413653433322906,0.22072088718414307,-0.975039005279541,[0. 0. 0. 0. 0. 0. 0. 0. 0.],-0.6103515625,-0.54931640625,-0.1220703125,[0. 0. 0. 0. 0. 0. 0. 0. 0.],-0.041015625,0.0244140625,1.00390625,[0. 0. 0. 0. 0. 0. 0. 0. 0.]
0.6051621437072754,-0.014803423546254635,-0.017052335664629936,0.220791295170784,-0.9750596284866333,[0. 0. 0. 0. 0. 0. 0. 0. 0.],-0.1220703125,-0.3662109375,-0.1220703125,[0. 0. 0. 0. 0. 0. 0. 0. 0.],-0.0400390625,0.021484375,1.00390625,[0. 0. 0. 0. 0. 0. 0. 0. 0.]
0.6225378513336182,-0.01559156458824873,-0.01695120893418789,0.22081172466278076,-0.9750445485115051,[0. 0. 0. 0. 0. 0. 0. 0. 0.],0.3662109375,-0.732421875,-0.18310546875,[0. 0. 0. 0. 0. 0. 0. 0. 0.],-0.041015625,0.02392578125,1.00390625,[0. 0. 0. 0. 0. 0. 0. 0. 0.]
0.6463544368743896,-0.015804322436451912,-0.017556674778461456,0.22084908187389374,-0.9750218987464905,[0. 0. 0. 0. 0. 0. 0. 0. 0.],-0.1220703125,-0.9765625,-0.1220703125,[0. 0. 0. 0. 0. 0. 0. 0. 0.],-0.04150390625,0.02294921875,1.00390625,[0. 0. 0. 0. 0. 0. 0. 0. 0.]
0.6599655151367188,-0.01604236476123333,-0.017837898805737495,0.22085963189601898,-0.9750104546546936,[0. 0. 0. 0. 0. 0. 0. 0. 0.],-0.48828125,-0.9765625,-0.18310546875,[0. 0. 0. 0. 0. 0. 0. 0. 0.],-0.0419921875,0.0234375,1.0048828125,[0. 0. 0. 0. 0. 0. 0. 0. 0.]
0.6846070289611816,-0.01554790511727333,-0.017969070002436638,0.22091452777385712,-0.9750037789344788,[0. 0. 0. 0. 0. 0. 0. 0. 0.],-0.18310546875,-0.30517578125,-0.18310546875,[0. 0. 0. 0. 0. 0. 0. 0. 0.],-0.0419921875,0.0224609375,1.00537109375,[0. 0. 0. 0. 0. 0. 0. 0. 0.]
0.7043852806091309,-0.015775064006447792,-0.017609698697924614,0.22091956436634064,-0.9750054478645325,[0. 0. 0. 0. 0. 0. 0. 0. 0.],-0.06103515625,-0.1220703125,0.0,[0. 0. 0. 0. 0. 0. 0. 0. 0.],-0.04150390625,0.02294921875,1.005859375,[0. 0. 0. 0. 0. 0. 0. 0. 0.]
0.7242343425750732,-0.014619736932218075,-0.016804449260234833,0.2209530472755432,-0.9750300645828247,[0. 0. 0. 0. 0. 0. 0. 0. 0.],-0.1220703125,-1.03759765625,-0.06103515625,[0. 0. 0. 0. 0. 0. 0. 0. 0.],-0.03955078125,0.0205078125,1.0048828125,[0. 0. 0. 0. 0. 0. 0. 0. 0.]
0.7460513114929199,-0.015724962577223778,-0.0174351017922163,0.22096723318099976,-0.9749985933303833,[0. 0. 0. 0. 0. 0. 0. 0. 0.],-0.18310546875,-0.9765625,-0.244140625,[0. 0. 0. 0. 0. 0. 0. 0. 0.],-0.0419921875,0.0234375,1.0048828125,[0. 0. 0. 0. 0. 0. 0. 0. 0.]
0.7606027126312256,-0.01593470387160778,-0.017540842294692993,0.220982626080513,-0.9749898314476013,[0. 0. 0. 0. 0. 0. 0. 0. 0.],-0.06103515625,-0.30517578125,-0.06103515625,[0. 0. 0. 0. 0. 0. 0. 0. 0.],-0.04150390625,0.0234375,1.0048828125,[0. 0. 0. 0. 0. 0. 0. 0. 0.]
0.7846765518188477,-0.016393404453992844,-0.017240555956959724,0.22100402414798737,-0.9749826788902283,[0. 0. 0. 0. 0. 0. 0. 0. 0.],-0.18310546875,-0.06103515625,-0.18310546875,[0. 0. 0. 0. 0. 0. 0. 0. 0.],-0.041015625,0.0244140625,1.00244140625,[0. 0. 0. 0. 0. 0. 0. 0. 0.]
0.8017432689666748,-0.01590183936059475,-0.016958612948656082,0.2210467904806137,-0.9749860763549805,[0. 0. 0. 0. 0. 0. 0. 0. 0.],-0.06103515625,-0.67138671875,-0.1220703125,[0. 0. 0. 0. 0. 0. 0. 0. 0.],-0.04052734375,0.0234375,1.00341796875,[0. 0. 0. 0. 0. 0. 0. 0. 0.]
0.8245558738708496,-0.015383836813271046,-0.017451321706175804,0.22109068930149078,-0.9749758243560791,[0. 0. 0. 0. 0. 0. 0. 0. 0.],0.0,-1.220703125,-0.18310546875,[0. 0. 0. 0. 0. 0. 0. 0. 0.],-0.04150390625,0.02197265625,1.005859375,[0. 0. 0. 0. 0. 0. 0. 0. 0.]
0.8442163467407227,-0.015547388233244419,-0.01728229969739914,0.22110794484615326,-0.9749722480773926,[0. 0. 0. 0. 0. 0. 0. 0. 0.],0.30517578125,-0.79345703125,-0.244140625,[0. 0. 0. 0. 0. 0. 0. 0. 0.],-0.041015625,0.02294921875,1.00390625,[0. 0. 0. 0. 0. 0. 0. 0. 0.]
0.8643107414245605,-0.01589854247868061,-0.016304166987538338,0.22109951078891754,-0.9749854207038879,[0. 0. 0. 0. 0. 0. 0. 0. 0.],-0.1220703125,-0.3662109375,-0.06103515625,[0. 0. 0. 0. 0. 0. 0. 0. 0.],-0.03955078125,0.0234375,1.001953125,[0. 0. 0. 0. 0. 0. 0. 0. 0.]
0.8843600749969482,-0.015268806368112564,-0.01693001203238964,0.22115106880664825,-0.9749730825424194,[0. 0. 0. 0. 0. 0. 0. 0. 0.],-0.54931640625,-0.42724609375,-0.06103515625,[0. 0. 0. 0. 0. 0. 0. 0. 0.],-0.0400390625,0.0224609375,1.0048828125,[0. 0. 0. 0. 0. 0. 0. 0. 0.]
0.9042580127716064,-0.016104407608509064,-0.017142971977591515,0.22116973996162415,-0.9749516248703003,[0. 0. 0. 0. 0. 0. 0. 0. 0.],-0.06103515625,-0.67138671875,-0.1220703125,[0. 0. 0. 0. 0. 0. 0. 0. 0.],-0.041015625,0.02392578125,1.00634765625,[0. 0. 0. 0. 0. 0. 0. 0. 0.]
0.9201662540435791,-0.015742193907499313,-0.01756041683256626,0.22119997441768646,-0.9749433398246765,[0. 0. 0. 0. 0. 0. 0. 0. 0.],0.30517578125,-0.9765625,-0.18310546875,[0. 0. 0. 0. 0. 0. 0. 0. 0.],-0.04150390625,0.02294921875,1.00341796875,[0. 0. 0. 0. 0. 0. 0. 0. 0.]
0.9403536319732666,-0.015424150042235851,-0.01736578904092312,0.22122599184513092,-0.9749460220336914,[0. 0. 0. 0. 0. 0. 0. 0. 0.],-0.18310546875,-0.91552734375,-0.244140625,[0. 0. 0. 0. 0. 0. 0. 0. 0.],-0.041015625,0.02294921875,1.00390625,[0. 0. 0. 0. 0. 0. 0. 0. 0.]
0.9643774032592773,-0.01571853831410408,-0.01661025732755661,0.22123290598392487,-0.9749528169631958,[0. 0. 0. 0. 0. 0. 0. 0. 0.],-0.6103515625,-0.3662109375,-0.18310546875,[0. 0. 0. 0. 0. 0. 0. 0. 0.],-0.03955078125,0.0234375,1.0029296875,[0. 0. 0. 0. 0. 0. 0. 0. 0.]
0.9851059913635254,-0.014697462320327759,-0.017511073499917984,0.22130243480205536,-0.9749372601509094,[0. 0. 0. 0. 0. 0. 0. 0. 0.],0.0,-0.244140625,0.0,[0. 0. 0. 0. 0. 0. 0. 0. 0.],-0.04052734375,0.02099609375,1.00439453125,[0. 0. 0. 0. 0. 0. 0. 0. 0.]
1.0043132305145264,-0.016109146177768707,-0.017247898504137993,0.22129510343074799,-0.9749213457107544,[0. 0. 0. 0. 0. 0. 0. 0. 0.],-0.06103515625,-0.1220703125,0.0,[0. 0. 0. 0. 0. 0. 0. 0. 0.],-0.041015625,0.02392578125,1.0048828125,[0. 0. 0. 0. 0. 0. 0. 0. 0.]
1.020127296447754,-0.015466277487576008,-0.017841307446360588,0.22136442363262177,-0.9749053120613098,[0. 0. 0. 0. 0. 0. 0. 0. 0.],-0.18310546875,-1.0986328125,-0.244140625,[0. 0. 0. 0. 0. 0. 0. 0. 0.],-0.0419921875,0.02197265625,1.0068359375,[0. 0. 0. 0. 0. 0. 0. 0. 0.]
1.044776201248169,-0.015056641772389412,-0.01686755008995533,0.22139102220535278,-0.9749229550361633,[0. 0. 0. 0. 0. 0. 0. 0. 0.],0.06103515625,-1.03759765625,-0.30517578125,[0. 0. 0. 0. 0. 0. 0. 0. 0.],-0.03955078125,0.02197265625,1.00390625,[0. 0. 0. 0. 0. 0. 0. 0. 0.]
1.0699467658996582,-0.015558786690235138,-0.01713148131966591,0.2214077115058899,-0.9749066829681396,[0. 0. 0. 0. 0. 0. 0. 0. 0.],0.244140625,-0.9765625,-0.244140625,[0. 0. 0. 0. 0. 0. 0. 0. 0.],-0.041015625,0.0234375,1.00390625,[0. 0. 0. 0. 0. 0. 0. 0. 0.]
1.0850310325622559,-0.016069844365119934,-0.017047494649887085,0.22140930593013763,-0.9748995900154114,[0. 0. 0. 0. 0. 0. 0. 0. 0.],-0.3662109375,-0.1220703125,-0.1220703125,[0. 0. 0. 0. 0. 0. 0. 0. 0.],-0.041015625,0.02392578125,1.00390625,[0. 0. 0. 0. 0. 0. 0. 0. 0.]
1.105635404586792,-0.015342210419476032,-0.01714918576180935,0.2214592695236206,-0.9748981595039368,[0. 0. 0. 0. 0. 0. 0. 0. 0.],-0.3662109375,-0.48828125,-0.1220703125,[0. 0. 0. 0. 0. 0. 0. 0. 0.],-0.04052734375,0.0224609375,1.00390625,[0. 0. 0. 0. 0. 0. 0. 0. 0.]
1.1201205253601074,-0.014893963932991028,-0.017405115067958832,0.22150184214115143,-0.9748908877372742,[0. 0. 0. 0. 0. 0. 0. 0. 0.],0.18310546875,-0.8544921875,-0.1220703125,[0. 0. 0. 0. 0. 0. 0. 0. 0.],-0.04052734375,0.021484375,1.00439453125,[0. 0. 0. 0. 0. 0. 0. 0. 0.]
1.144430160522461,-0.015151760540902615,-0.01741369254887104,0.2215152382850647,-0.9748837947845459,[0. 0. 0. 0. 0. 0. 0. 0. 0.],0.3662109375,-0.9765625,-0.18310546875,[0. 0. 0. 0. 0. 0. 0. 0. 0.],-0.041015625,0.02197265625,1.0048828125,[0. 0. 0. 0. 0. 0. 0. 0. 0.]
1.1648304462432861,-0.01606754958629608,-0.017424719408154488,0.22151008248329163,-0.9748700261116028,[0. 0. 0. 0. 0. 0. 0. 0. 0.],-0.3662109375,-0.54931640625,-0.18310546875,[0. 0. 0. 0. 0. 0. 0. 0. 0.],-0.04150390625,0.0234375,1.00341796875,[0. 0. 0. 0. 0. 0. 0. 0. 0.]
1.1848132610321045,-0.01676935702562332,-0.017078079283237457,0.2215241938829422,-0.974861204624176,[0. 0. 0. 0. 0. 0. 0. 0. 0.],-0.48828125,-0.244140625,-0.06103515625,[0. 0. 0. 0. 0. 0. 0. 0. 0.],-0.041015625,0.02490234375,1.0029296875,[0. 0. 0. 0. 0. 0. 0. 0. 0.]
1.2045643329620361,-0.015787677839398384,-0.01745077781379223,0.22159095108509064,-0.9748557806015015,[0. 0. 0. 0. 0. 0. 0. 0. 0.],0.30517578125,-0.30517578125,-0.18310546875,[0. 0. 0. 0. 0. 0. 0. 0. 0.],-0.04150390625,0.02294921875,1.00244140625,[0. 0. 0. 0. 0. 0. 0. 0. 0.]
1.2243366241455078,-0.014822804369032383,-0.01802791655063629,0.22165140509605408,-0.9748467206954956,[0. 0. 0. 0. 0. 0. 0. 0. 0.],0.06103515625,-0.9765625,-0.30517578125,[0. 0. 0. 0. 0. 0. 0. 0. 0.],-0.0419921875,0.021484375,1.00341796875,[0. 0. 0. 0. 0. 0. 0. 0. 0.]
1.239323616027832,-0.015947658568620682,-0.01666956953704357,0.22164186835289001,-0.9748552441596985,[0. 0. 0. 0. 0. 0. 0. 0. 0.],-0.30517578125,-1.28173828125,-0.30517578125,[0. 0. 0. 0. 0. 0. 0. 0. 0.],-0.03955078125,0.02392578125,1.0029296875,[0. 0. 0. 0. 0. 0. 0. 0. 0.]
1.2776765823364258,-0.015477621927857399,-0.017585666850209236,0.2217201143503189,-0.974828839302063,[0. 0. 0. 0. 0. 0. 0. 0. 0.],0.1220703125,-0.48828125,-0.06103515625,[0. 0. 0. 0. 0. 0. 0. 0. 0.],-0.04150390625,0.0224609375,1.00439453125,[0. 0. 0. 0. 0. 0. 0. 0. 0.]
1.2834687232971191,-0.015577003359794617,-0.018036702647805214,0.22172811627388,-0.9748173356056213,[0. 0. 0. 0. 0. 0. 0. 0. 0.],0.0,0.1220703125,-0.1220703125,[0. 0. 0. 0. 0. 0. 0. 0. 0.],-0.04248046875,0.0224609375,1.0029296875,[0. 0. 0. 0. 0. 0. 0. 0. 0.]
1.3067567348480225,-0.015728170052170753,-0.01759149506688118,0.22174319624900818,-0.974819540977478,[0. 0. 0. 0. 0. 0. 0. 0. 0.],-0.244140625,-0.244140625,0.06103515625,[0. 0. 0. 0. 0. 0. 0. 0. 0.],-0.04150390625,0.02294921875,1.00341796875,[0. 0. 0. 0. 0. 0. 0. 0. 0.]
1.3270211219787598,-0.015605993568897247,-0.01759190298616886,0.22177879512310028,-0.9748134016990662,[0. 0. 0. 0. 0. 0. 0. 0. 0.],-0.18310546875,-0.8544921875,-0.18310546875,[0. 0. 0. 0. 0. 0. 0. 0. 0.],-0.04150390625,0.02294921875,1.00244140625,[0. 0. 0. 0. 0. 0. 0. 0. 0.]
1.356642723083496,-0.015320836566388607,-0.016933834180235863,0.22180308401584625,-0.974824070930481,[0. 0. 0. 0. 0. 0. 0. 0. 0.],-0.06103515625,-0.9765625,-0.18310546875,[0. 0. 0. 0. 0. 0. 0. 0. 0.],-0.0400390625,0.02294921875,1.00390625,[0. 0. 0. 0. 0. 0. 0. 0. 0.]
1.3622007369995117,-0.016682298853993416,-0.017131993547081947,0.22180160880088806,-0.9747986793518066,[0. 0. 0. 0. 0. 0. 0. 0. 0.],-0.1220703125,-0.18310546875,-0.1220703125,[0. 0. 0. 0. 0. 0. 0. 0. 0.],-0.04052734375,0.0244140625,1.0029296875,[0. 0. 0. 0. 0. 0. 0. 0. 0.]
1.383049726486206,-0.01646229811012745,-0.017279233783483505,0.2218206524848938,-0.9747954607009888,[0. 0. 0. 0. 0. 0. 0. 0. 0.],-0.48828125,-0.54931640625,0.0,[0. 0. 0. 0. 0. 0. 0. 0. 0.],-0.04150390625,0.02392578125,1.00244140625,[0. 0. 0. 0. 0. 0. 0. 0. 0.]
1.4004957675933838,-0.01603667624294758,-0.017500465735793114,0.22186559438705444,-0.9747883677482605,[0. 0. 0. 0. 0. 0. 0. 0. 0.],-0.18310546875,-0.91552734375,-0.18310546875,[0. 0. 0. 0. 0. 0. 0. 0. 0.],-0.04150390625,0.0234375,1.00390625,[0. 0. 0. 0. 0. 0. 0. 0. 0.]
1.4262523651123047,-0.015771014615893364,-0.016851019114255905,0.22190497815608978,-0.9747951626777649,[0. 0. 0. 0. 0. 0. 0. 0. 0.],0.244140625,-0.6103515625,-0.244140625,[0. 0. 0. 0. 0. 0. 0. 0. 0.],-0.0400390625,0.0234375,1.00634765625,[0. 0. 0. 0. 0. 0. 0. 0. 0.]
1.4443583488464355,-0.01606510393321514,-0.01722014509141445,0.2219172865152359,-0.9747811555862427,[0. 0. 0. 0. 0. 0. 0. 0. 0.],0.0,-0.67138671875,-0.18310546875,[0. 0. 0. 0. 0. 0. 0. 0. 0.],-0.041015625,0.02392578125,1.00390625,[0. 0. 0. 0. 0. 0. 0. 0. 0.]
1.4734830856323242,-0.015625687316060066,-0.017314935103058815,0.22196641564369202,-0.9747753739356995,[0. 0. 0. 0. 0. 0. 0. 0. 0.],-0.18310546875,-0.42724609375,-0.06103515625,[0. 0. 0. 0. 0. 0. 0. 0. 0.],-0.041015625,0.0234375,1.00537109375,[0. 0. 0. 0. 0. 0. 0. 0. 0.]
1.484351634979248,-0.015994159504771233,-0.01706363447010517,0.22196084260940552,-0.9747750759124756,[0. 0. 0. 0. 0. 0. 0. 0. 0.],-0.30517578125,-0.244140625,-0.1220703125,[0. 0. 0. 0. 0. 0. 0. 0. 0.],-0.04052734375,0.02392578125,1.00390625,[0. 0. 0. 0. 0. 0. 0. 0. 0.]
1.504544973373413,-0.015845797955989838,-0.01767447032034397,0.22200502455234528,-0.9747565984725952,[0. 0. 0. 0. 0. 0. 0. 0. 0.],0.06103515625,-0.06103515625,0.0,[0. 0. 0. 0. 0. 0. 0. 0. 0.],-0.04150390625,0.02294921875,1.00244140625,[0. 0. 0. 0. 0. 0. 0. 0. 0.]
1.5271267890930176,-0.015003541484475136,-0.017930837348103523,0.22206683456897736,-0.9747511148452759,[0. 0. 0. 0. 0. 0. 0. 0. 0.],0.06103515625,-0.8544921875,-0.18310546875,[0. 0. 0. 0. 0. 0. 0. 0. 0.],-0.0419921875,0.021484375,1.00634765625,[0. 0. 0. 0. 0. 0. 0. 0. 0.]
1.544693946838379,-0.015211474150419235,-0.016467833891510963,0.22206705808639526,-0.974773645401001,[0. 0. 0. 0. 0. 0. 0. 0. 0.],-0.3662109375,-1.220703125,-0.30517578125,[0. 0. 0. 0. 0. 0. 0. 0. 0.],-0.03955078125,0.0224609375,1.00390625,[0. 0. 0. 0. 0. 0. 0. 0. 0.]
1.5652053356170654,-0.015783660113811493,-0.016862256452441216,0.2220931053161621,-0.9747519493103027,[0. 0. 0. 0. 0. 0. 0. 0. 0.],-0.18310546875,-0.6103515625,-0.244140625,[0. 0. 0. 0. 0. 0. 0. 0. 0.],-0.0400390625,0.02392578125,1.0029296875,[0. 0. 0. 0. 0. 0. 0. 0. 0.]
1.5846304893493652,-0.015929769724607468,-0.016742944717407227,0.2221173495054245,-0.9747461080551147,[0. 0. 0. 0. 0. 0. 0. 0. 0.],-0.06103515625,-0.06103515625,-0.18310546875,[0. 0. 0. 0. 0. 0. 0. 0. 0.],-0.04052734375,0.0234375,1.00341796875,[0. 0. 0. 0. 0. 0. 0. 0. 0.]
1.6045429706573486,-0.015591355040669441,-0.017268802970647812,0.2221507728099823,-0.9747347235679626,[0. 0. 0. 0. 0. 0. 0. 0. 0.],-0.244140625,-0.6103515625,-0.06103515625,[0. 0. 0. 0. 0. 0. 0. 0. 0.],-0.04052734375,0.02392578125,1.0048828125,[0. 0. 0. 0. 0. 0. 0. 0. 0.]
1.6255593299865723,-0.01554388552904129,-0.017238689586520195,0.2221863567829132,-0.9747278690338135,[0. 0. 0. 0. 0. 0. 0. 0. 0.],-0.1220703125,-1.15966796875,-0.1220703125,[0. 0. 0. 0. 0. 0. 0. 0. 0.],-0.041015625,0.0224609375,1.00439453125,[0. 0. 0. 0. 0. 0. 0. 0. 0.]
1.6452629566192627,-0.01543877087533474,-0.017785726115107536,0.22223280370235443,-0.974709153175354,[0. 0. 0. 0. 0. 0. 0. 0. 0.],0.30517578125,-0.91552734375,-0.30517578125,[0. 0. 0. 0. 0. 0. 0. 0. 0.],-0.04248046875,0.0224609375,1.0078125,[0. 0. 0. 0. 0. 0. 0. 0. 0.]
1.665518045425415,-0.015612569637596607,-0.01743115670979023,0.22224809229373932,-0.9747093319892883,[0. 0. 0. 0. 0. 0. 0. 0. 0.],-0.1220703125,-0.244140625,0.0,[0. 0. 0. 0. 0. 0. 0. 0. 0.],-0.041015625,0.02294921875,1.0029296875,[0. 0. 0. 0. 0. 0. 0. 0. 0.]
1.6870834827423096,-0.016537537798285484,-0.017401663586497307,0.22225357592105865,-0.9746932983398438,[0. 0. 0. 0. 0. 0. 0. 0. 0.],-0.48828125,-0.42724609375,0.0,[0. 0. 0. 0. 0. 0. 0. 0. 0.],-0.04150390625,0.02490234375,1.00244140625,[0. 0. 0. 0. 0. 0. 0. 0. 0.]
1.70444655418396,-0.015498680993914604,-0.01808908022940159,0.22232207655906677,-0.9746822714805603,[0. 0. 0. 0. 0. 0. 0. 0. 0.],-0.18310546875,-0.79345703125,-0.1220703125,[0. 0. 0. 0. 0. 0. 0. 0. 0.],-0.04248046875,0.02197265625,1.0029296875,[0. 0. 0. 0. 0. 0. 0. 0. 0.]
1.7213175296783447,-0.014667021110653877,-0.01751829870045185,0.22235125303268433,-0.9746989607810974,[0. 0. 0. 0. 0. 0. 0. 0. 0.],0.30517578125,-0.8544921875,-0.244140625,[0. 0. 0. 0. 0. 0. 0. 0. 0.],-0.041015625,0.02099609375,1.00341796875,[0. 0. 0. 0. 0. 0. 0. 0. 0.]
1.7451508045196533,-0.015493194572627544,-0.017392143607139587,0.22236311435699463,-0.9746857285499573,[0. 0. 0. 0. 0. 0. 0. 0. 0.],0.0,-0.91552734375,-0.18310546875,[0. 0. 0. 0. 0. 0. 0. 0. 0.],-0.041015625,0.0224609375,1.00390625,[0. 0. 0. 0. 0. 0. 0. 0. 0.]
1.7671020030975342,-0.015706826001405716,-0.017440088093280792,0.22238686680793762,-0.9746760129928589,[0. 0. 0. 0. 0. 0. 0. 0. 0.],-0.3662109375,-1.15966796875,-0.244140625,[0. 0. 0. 0. 0. 0. 0. 0. 0.],-0.041015625,0.0224609375,1.00390625,[0. 0. 0. 0. 0. 0. 0. 0. 0.]
1.784271001815796,-0.015171429142355919,-0.017318105325102806,0.22240598499774933,-0.9746822714805603,[0. 0. 0. 0. 0. 0. 0. 0. 0.],-0.244140625,-0.30517578125,-0.06103515625,[0. 0. 0. 0. 0. 0. 0. 0. 0.],-0.04052734375,0.0224609375,1.00244140625,[0. 0. 0. 0. 0. 0. 0. 0. 0.]
1.807732105255127,-0.016191909089684486,-0.01725856401026249,0.2224164754152298,-0.974664568901062,[0. 0. 0. 0. 0. 0. 0. 0. 0.],-0.06103515625,-0.1220703125,-0.1220703125,[0. 0. 0. 0. 0. 0. 0. 0. 0.],-0.041015625,0.02392578125,1.0029296875,[0. 0. 0. 0. 0. 0. 0. 0. 0.]
1.8245656490325928,-0.015048299916088581,-0.017484648153185844,0.2224600613117218,-0.9746688604354858,[0. 0. 0. 0. 0. 0. 0. 0. 0.],0.0,-1.15966796875,-0.18310546875,[0. 0. 0. 0. 0. 0. 0. 0. 0.],-0.041015625,0.021484375,1.0029296875,[0. 0. 0. 0. 0. 0. 0. 0. 0.]
1.8468642234802246,-0.015359261073172092,-0.01698220893740654,0.2224811315536499,-0.974668025970459,[0. 0. 0. 0. 0. 0. 0. 0. 0.],0.0,-1.3427734375,-0.18310546875,[0. 0. 0. 0. 0. 0. 0. 0. 0.],-0.03955078125,0.02294921875,1.00439453125,[0. 0. 0. 0. 0. 0. 0. 0. 0.]
1.8643310070037842,-0.016671480610966682,-0.01701454073190689,0.22247694432735443,-0.9746468663215637,[0. 0. 0. 0. 0. 0. 0. 0. 0.],-0.06103515625,-0.1220703125,-0.06103515625,[0. 0. 0. 0. 0. 0. 0. 0. 0.],-0.041015625,0.025390625,1.00341796875,[0. 0. 0. 0. 0. 0. 0. 0. 0.]
1.8813197612762451,-0.015687143430113792,-0.017315110191702843,0.22252795100212097,-0.9746463298797607,[0. 0. 0. 0. 0. 0. 0. 0. 0.],0.0,-0.1220703125,-0.06103515625,[0. 0. 0. 0. 0. 0. 0. 0. 0.],-0.041015625,0.02294921875,1.00244140625,[0. 0. 0. 0. 0. 0. 0. 0. 0.]
1.904554843902588,-0.01508733443915844,-0.0166493970900774,0.22255992889404297,-0.9746600985527039,[0. 0. 0. 0. 0. 0. 0. 0. 0.],-0.06103515625,-1.0986328125,-0.18310546875,[0. 0. 0. 0. 0. 0. 0. 0. 0.],-0.0390625,0.02197265625,1.0048828125,[0. 0. 0. 0. 0. 0. 0. 0. 0.]
1.9207656383514404,-0.016034889966249466,-0.017854783684015274,0.2225833684206009,-0.9746182560920715,[0. 0. 0. 0. 0. 0. 0. 0. 0.],-0.06103515625,-1.03759765625,-0.1220703125,[0. 0. 0. 0. 0. 0. 0. 0. 0.],-0.04150390625,0.0234375,1.0029296875,[0. 0. 0. 0. 0. 0. 0. 0. 0.]
1.9462816715240479,-0.01577869988977909,-0.017507217824459076,0.2226177155971527,-0.9746209979057312,[0. 0. 0. 0. 0. 0. 0. 0. 0.],0.3662109375,-0.732421875,-0.30517578125,[0. 0. 0. 0. 0. 0. 0. 0. 0.],-0.04150390625,0.0224609375,1.00341796875,[0. 0. 0. 0. 0. 0. 0. 0. 0.]
1.9644618034362793,-0.01631295680999756,-0.016627319157123566,0.22261381149291992,-0.9746284484863281,[0. 0. 0. 0. 0. 0. 0. 0. 0.],-0.18310546875,-0.6103515625,-0.1220703125,[0. 0. 0. 0. 0. 0. 0. 0. 0.],-0.0400390625,0.0244140625,1.00390625,[0. 0. 0. 0. 0. 0. 0. 0. 0.]
1.984332799911499,-0.01639753021299839,-0.01591966673731804,0.22263607382774353,-0.9746337532997131,[0. 0. 0. 0. 0. 0. 0. 0. 0.],-0.3662109375,-0.30517578125,-0.18310546875,[0. 0. 0. 0. 0. 0. 0. 0. 0.],-0.0390625,0.02490234375,1.0048828125,[0. 0. 0. 0. 0. 0. 0. 0. 0.]
2.005075216293335,-0.015390599146485329,-0.01711280830204487,0.22270403802394867,-0.9746143817901611,[0. 0. 0. 0. 0. 0. 0. 0. 0.],-0.06103515625,-0.30517578125,-0.18310546875,[0. 0. 0. 0. 0. 0. 0. 0. 0.],-0.04052734375,0.0224609375,1.00439453125,[0. 0. 0. 0. 0. 0. 0. 0. 0.]
2.024460554122925,-0.015174716711044312,-0.01722313091158867,0.222738116979599,-0.9746081233024597,[0. 0. 0. 0. 0. 0. 0. 0. 0.],0.30517578125,-0.79345703125,-0.18310546875,[0. 0. 0. 0. 0. 0. 0. 0. 0.],-0.04052734375,0.02197265625,1.00439453125,[0. 0. 0. 0. 0. 0. 0. 0. 0.]
2.044776678085327,-0.01570388674736023,-0.016587374731898308,0.22273457050323486,-0.9746115207672119,[0. 0. 0. 0. 0. 0. 0. 0. 0.],0.06103515625,-1.0986328125,-0.18310546875,[0. 0. 0. 0. 0. 0. 0. 0. 0.],-0.03955078125,0.0234375,1.00390625,[0. 0. 0. 0. 0. 0. 0. 0. 0.]
2.0708858966827393,-0.016643747687339783,-0.016859427094459534,0.2227345108985901,-0.9745913147926331,[0. 0. 0. 0. 0. 0. 0. 0. 0.],-0.48828125,-0.732421875,-0.1220703125,[0. 0. 0. 0. 0. 0. 0. 0. 0.],-0.04052734375,0.02490234375,1.00146484375,[0. 0. 0. 0. 0. 0. 0. 0. 0.]
2.0848922729492188,-0.01598973572254181,-0.016920559108257294,0.22277173399925232,-0.9745927453041077,[0. 0. 0. 0. 0. 0. 0. 0. 0.],-0.06103515625,0.06103515625,-0.06103515625,[0. 0. 0. 0. 0. 0. 0. 0. 0.],-0.04052734375,0.02392578125,1.00341796875,[0. 0. 0. 0. 0. 0. 0. 0. 0.]
2.10459566116333,-0.015420619398355484,-0.017317762598395348,0.22282493114471436,-0.9745826125144958,[0. 0. 0. 0. 0. 0. 0. 0. 0.],0.1220703125,-0.3662109375,-0.06103515625,[0. 0. 0. 0. 0. 0. 0. 0. 0.],-0.04052734375,0.0224609375,1.00341796875,[0. 0. 0. 0. 0. 0. 0. 0. 0.]
2.12542462348938,-0.015820784494280815,-0.016922498121857643,0.22282913327217102,-0.9745822548866272,[0. 0. 0. 0. 0. 0. 0. 0. 0.],-0.1220703125,-1.3427734375,-0.244140625,[0. 0. 0. 0. 0. 0. 0. 0. 0.],-0.041015625,0.02294921875,1.0048828125,[0. 0. 0. 0. 0. 0. 0. 0. 0.]
2.144707441329956,-0.016146797686815262,-0.016943691298365593,0.22285951673984528,-0.97456955909729,[0. 0. 0. 0. 0. 0. 0. 0. 0.],-0.18310546875,-1.0986328125,-0.42724609375,[0. 0. 0. 0. 0. 0. 0. 0. 0.],-0.04052734375,0.0244140625,1.00537109375,[0. 0. 0. 0. 0. 0. 0. 0. 0.]
2.1595685482025146,-0.01612853817641735,-0.016320381313562393,0.22286978363990784,-0.9745782017707825,[0. 0. 0. 0. 0. 0. 0. 0. 0.],0.06103515625,0.06103515625,0.0,[0. 0. 0. 0. 0. 0. 0. 0. 0.],-0.0390625,0.0244140625,1.0029296875,[0. 0. 0. 0. 0. 0. 0. 0. 0.]
2.1845743656158447,-0.01578509621322155,-0.017075156792998314,0.22290664911270142,-0.9745625257492065,[0. 0. 0. 0. 0. 0. 0. 0. 0.],-0.1220703125,-0.06103515625,-0.1220703125,[0. 0. 0. 0. 0. 0. 0. 0. 0.],-0.041015625,0.02294921875,1.00439453125,[0. 0. 0. 0. 0. 0. 0. 0. 0.]
2.2045273780822754,-0.01521302480250597,-0.017410824075341225,0.22296595573425293,-0.9745520353317261,[0. 0. 0. 0. 0. 0. 0. 0. 0.],-0.244140625,-0.9765625,-0.1220703125,[0. 0. 0. 0. 0. 0. 0. 0. 0.],-0.041015625,0.021484375,1.00634765625,[0. 0. 0. 0. 0. 0. 0. 0. 0.]
2.2194318771362305,-0.01497354730963707,-0.016986407339572906,0.22299312055110931,-0.9745570421218872,[0. 0. 0. 0. 0. 0. 0. 0. 0.],0.1220703125,-1.15966796875,-0.18310546875,[0. 0. 0. 0. 0. 0. 0. 0. 0.],-0.0400390625,0.021484375,1.00439453125,[0. 0. 0. 0. 0. 0. 0. 0. 0.]
2.2446889877319336,-0.015042676590383053,-0.01699799671769142,0.22302201390266418,-0.9745491147041321,[0. 0. 0. 0. 0. 0. 0. 0. 0.],0.06103515625,-0.67138671875,-0.30517578125,[0. 0. 0. 0. 0. 0. 0. 0. 0.],-0.04052734375,0.021484375,1.00244140625,[0. 0. 0. 0. 0. 0. 0. 0. 0.]
2.2671005725860596,-0.015452815219759941,-0.017150171101093292,0.22303487360477448,-0.9745370745658875,[0. 0. 0. 0. 0. 0. 0. 0. 0.],-0.18310546875,-0.18310546875,-0.06103515625,[0. 0. 0. 0. 0. 0. 0. 0. 0.],-0.0400390625,0.02294921875,1.00244140625,[0. 0. 0. 0. 0. 0. 0. 0. 0.]
2.284271717071533,-0.015947269275784492,-0.017439063638448715,0.22305315732955933,-0.9745197892189026,[0. 0. 0. 0. 0. 0. 0. 0. 0.],-0.42724609375,-0.48828125,0.06103515625,[0. 0. 0. 0. 0. 0. 0. 0. 0.],-0.041015625,0.0234375,1.00439453125,[0. 0. 0. 0. 0. 0. 0. 0. 0.]
2.3043477535247803,-0.015058344230055809,-0.017437420785427094,0.22311033308506012,-0.9745209813117981,[0. 0. 0. 0. 0. 0. 0. 0. 0.],0.244140625,-0.732421875,-0.244140625,[0. 0. 0. 0. 0. 0. 0. 0. 0.],-0.041015625,0.021484375,1.0048828125,[0. 0. 0. 0. 0. 0. 0. 0. 0.]
2.3242340087890625,-0.015001805499196053,-0.01736893691122532,0.2231283336877823,-0.9745189547538757,[0. 0. 0. 0. 0. 0. 0. 0. 0.],0.30517578125,-1.03759765625,-0.244140625,[0. 0. 0. 0. 0. 0. 0. 0. 0.],-0.041015625,0.02197265625,1.00439453125,[0. 0. 0. 0. 0. 0. 0. 0. 0.]
2.3461387157440186,-0.015327741391956806,-0.017144519835710526,0.22314944863319397,-0.974513053894043,[0. 0. 0. 0. 0. 0. 0. 0. 0.],-0.18310546875,-1.28173828125,-0.18310546875,[0. 0. 0. 0. 0. 0. 0. 0. 0.],-0.04052734375,0.02294921875,1.00537109375,[0. 0. 0. 0. 0. 0. 0. 0. 0.]
2.3650975227355957,-0.015007030218839645,-0.017246736213564873,0.22317038476467133,-0.9745113253593445,[0. 0. 0. 0. 0. 0. 0. 0. 0.],-0.244140625,-0.30517578125,-0.06103515625,[0. 0. 0. 0. 0. 0. 0. 0. 0.],-0.04052734375,0.02197265625,1.0029296875,[0. 0. 0. 0. 0. 0. 0. 0. 0.]
2.3883824348449707,-0.014974439516663551,-0.017501281574368477,0.2232121378183365,-0.9744977355003357,[0. 0. 0. 0. 0. 0. 0. 0. 0.],0.0,-0.48828125,-0.18310546875,[0. 0. 0. 0. 0. 0. 0. 0. 0.],-0.041015625,0.02197265625,1.00341796875,[0. 0. 0. 0. 0. 0. 0. 0. 0.]
2.405380964279175,-0.01503631379455328,-0.017457805573940277,0.22322863340377808,-0.9744937419891357,[0. 0. 0. 0. 0. 0. 0. 0. 0.],-0.1220703125,-0.244140625,0.06103515625,[0. 0. 0. 0. 0. 0. 0. 0. 0.],-0.041015625,0.021484375,1.00390625,[0. 0. 0. 0. 0. 0. 0. 0. 0.]
2.4242732524871826,-0.014163927175104618,-0.016831614077091217,0.22327885031700134,-0.9745063781738281,[0. 0. 0. 0. 0. 0. 0. 0. 0.],-0.18310546875,-1.15966796875,-0.244140625,[0. 0. 0. 0. 0. 0. 0. 0. 0.],-0.03955078125,0.0205078125,1.00634765625,[0. 0. 0. 0. 0. 0. 0. 0. 0.]
2.4442708492279053,-0.015363659709692001,-0.017359808087348938,0.2232937216758728,-0.9744755029678345,[0. 0. 0. 0. 0. 0. 0. 0. 0.],0.06103515625,-1.0986328125,-0.244140625,[0. 0. 0. 0. 0. 0. 0. 0. 0.],-0.04052734375,0.0224609375,1.00439453125,[0. 0. 0. 0. 0. 0. 0. 0. 0.]
2.464993715286255,-0.01624404639005661,-0.016958661377429962,0.22328156232833862,-0.9744710922241211,[0. 0. 0. 0. 0. 0. 0. 0. 0.],0.06103515625,-0.30517578125,-0.1220703125,[0. 0. 0. 0. 0. 0. 0. 0. 0.],-0.0400390625,0.0244140625,1.00244140625,[0. 0. 0. 0. 0. 0. 0. 0. 0.]
2.484520435333252,-0.015497852116823196,-0.017364559695124626,0.22332488000392914,-0.9744662046432495,[0. 0. 0. 0. 0. 0. 0. 0. 0.],-0.244140625,-0.244140625,-0.06103515625,[0. 0. 0. 0. 0. 0. 0. 0. 0.],-0.041015625,0.0224609375,1.00439453125,[0. 0. 0. 0. 0. 0. 0. 0. 0.]
2.5101237297058105,-0.01602114923298359,-0.018073728308081627,0.2233678698539734,-0.9744349718093872,[0. 0. 0. 0. 0. 0. 0. 0. 0.],-0.3662109375,-0.30517578125,-0.244140625,[0. 0. 0. 0. 0. 0. 0. 0. 0.],-0.04296875,0.02392578125,1.00048828125,[0. 0. 0. 0. 0. 0. 0. 0. 0.]
2.5196971893310547,-0.015832293778657913,-0.017781823873519897,0.22339695692062378,-0.9744367599487305,[0. 0. 0. 0. 0. 0. 0. 0. 0.],0.54931640625,-0.732421875,-0.1220703125,[0. 0. 0. 0. 0. 0. 0. 0. 0.],-0.0419921875,0.02294921875,1.00341796875,[0. 0. 0. 0. 0. 0. 0. 0. 0.]
2.546823024749756,-0.015569370239973068,-0.016352837905287743,0.223397895693779,-0.9744659066200256,[0. 0. 0. 0. 0. 0. 0. 0. 0.],0.06103515625,-0.91552734375,-0.18310546875,[0. 0. 0. 0. 0. 0. 0. 0. 0.],-0.0390625,0.02294921875,1.00537109375,[0. 0. 0. 0. 0. 0. 0. 0. 0.]
2.564600944519043,-0.015769530087709427,-0.01697458326816559,0.2234203815460205,-0.9744468331336975,[0. 0. 0. 0. 0. 0. 0. 0. 0.],-0.42724609375,-0.48828125,-0.1220703125,[0. 0. 0. 0. 0. 0. 0. 0. 0.],-0.04052734375,0.0234375,1.0048828125,[0. 0. 0. 0. 0. 0. 0. 0. 0.]
2.584521532058716,-0.01579926908016205,-0.017632706090807915,0.22346223890781403,-0.9744250178337097,[0. 0. 0. 0. 0. 0. 0. 0. 0.],-0.3662109375,-0.244140625,-0.1220703125,[0. 0. 0. 0. 0. 0. 0. 0. 0.],-0.04150390625,0.02294921875,1.00390625,[0. 0. 0. 0. 0. 0. 0. 0. 0.]
2.5993809700012207,-0.015082395635545254,-0.017197540029883385,0.2235066443681717,-0.9744340181350708,[0. 0. 0. 0. 0. 0. 0. 0. 0.],0.18310546875,-0.48828125,-0.06103515625,[0. 0. 0. 0. 0. 0. 0. 0. 0.],-0.041015625,0.02197265625,1.00439453125,[0. 0. 0. 0. 0. 0. 0. 0. 0.]
2.6245126724243164,-0.015451115556061268,-0.017330871894955635,0.22352083027362823,-0.9744226336479187,[0. 0. 0. 0. 0. 0. 0. 0. 0.],0.1220703125,-1.03759765625,-0.18310546875,[0. 0. 0. 0. 0. 0. 0. 0. 0.],-0.041015625,0.0224609375,1.00390625,[0. 0. 0. 0. 0. 0. 0. 0. 0.]
2.6442837715148926,-0.01562814973294735,-0.017383353784680367,0.2235385924577713,-0.9744147658348083,[0. 0. 0. 0. 0. 0. 0. 0. 0.],-0.3662109375,-1.220703125,-0.18310546875,[0. 0. 0. 0. 0. 0. 0. 0. 0.],-0.041015625,0.0224609375,1.00341796875,[0. 0. 0. 0. 0. 0. 0. 0. 0.]
2.6643924713134766,-0.015770260244607925,-0.017432237043976784,0.22356344759464264,-0.9744059443473816,[0. 0. 0. 0. 0. 0. 0. 0. 0.],-0.1220703125,-0.3662109375,-0.18310546875,[0. 0. 0. 0. 0. 0. 0. 0. 0.],-0.04150390625,0.02294921875,1.0029296875,[0. 0. 0. 0. 0. 0. 0. 0. 0.]
2.6844136714935303,-0.015657465904951096,-0.016522863879799843,0.2235819697380066,-0.9744192957878113,[0. 0. 0. 0. 0. 0. 0. 0. 0.],-0.1220703125,0.0,-0.1220703125,[0. 0. 0. 0. 0. 0. 0. 0. 0.],-0.0400390625,0.02294921875,1.00390625,[0. 0. 0. 0. 0. 0. 0. 0. 0.]
2.7068824768066406,-0.015354655683040619,-0.017554275691509247,0.2236207276582718,-0.9743971228599548,[0. 0. 0. 0. 0. 0. 0. 0. 0.],-0.30517578125,-0.3662109375,0.0,[0. 0. 0. 0. 0. 0. 0. 0. 0.],-0.04150390625,0.02294921875,1.00341796875,[0. 0. 0. 0. 0. 0. 0. 0. 0.]
2.7247042655944824,-0.015706678852438927,-0.017258089035749435,0.22362664341926575,-0.9743955731391907,[0. 0. 0. 0. 0. 0. 0. 0. 0.],0.0,-1.40380859375,-0.244140625,[0. 0. 0. 0. 0. 0. 0. 0. 0.],-0.041015625,0.02294921875,1.00439453125,[0. 0. 0. 0. 0. 0. 0. 0. 0.]
2.7444536685943604,-0.016475366428494453,-0.01671391725540161,0.22364816069602966,-0.9743873476982117,[0. 0. 0. 0. 0. 0. 0. 0. 0.],0.06103515625,-0.732421875,-0.30517578125,[0. 0. 0. 0. 0. 0. 0. 0. 0.],-0.04052734375,0.02392578125,1.00390625,[0. 0. 0. 0. 0. 0. 0. 0. 0.]
2.759556770324707,-0.015833493322134018,-0.01681627333164215,0.2236728072166443,-0.9743906259536743,[0. 0. 0. 0. 0. 0. 0. 0. 0.],0.0,-0.1220703125,0.0,[0. 0. 0. 0. 0. 0. 0. 0. 0.],-0.0400390625,0.0234375,1.00146484375,[0. 0. 0. 0. 0. 0. 0. 0. 0.]
2.7864997386932373,-0.014991478994488716,-0.016638433560729027,0.22372041642665863,-0.9743961095809937,[0. 0. 0. 0. 0. 0. 0. 0. 0.],-0.48828125,-0.42724609375,-0.06103515625,[0. 0. 0. 0. 0. 0. 0. 0. 0.],-0.0400390625,0.0224609375,1.0048828125,[0. 0. 0. 0. 0. 0. 0. 0. 0.]
2.8043394088745117,-0.01611427403986454,-0.017122412100434303,0.223736971616745,-0.9743659496307373,[0. 0. 0. 0. 0. 0. 0. 0. 0.],-0.30517578125,-0.48828125,-0.06103515625,[0. 0. 0. 0. 0. 0. 0. 0. 0.],-0.04052734375,0.02392578125,1.00537109375,[0. 0. 0. 0. 0. 0. 0. 0. 0.]
2.8249478340148926,-0.01579764299094677,-0.017345929518342018,0.22376348078250885,-0.9743610620498657,[0. 0. 0. 0. 0. 0. 0. 0. 0.],0.18310546875,-0.9765625,-0.1220703125,[0. 0. 0. 0. 0. 0. 0. 0. 0.],-0.04150390625,0.0224609375,1.00390625,[0. 0. 0. 0. 0. 0. 0. 0. 0.]
2.844235897064209,-0.015244468115270138,-0.017390023916959763,0.22379183769226074,-0.9743626713752747,[0. 0. 0. 0. 0. 0. 0. 0. 0.],0.06103515625,-0.91552734375,0.06103515625,[0. 0. 0. 0. 0. 0. 0. 0. 0.],-0.041015625,0.02197265625,1.00439453125,[0. 0. 0. 0. 0. 0. 0. 0. 0.]
2.865140438079834,-0.01613338105380535,-0.01707778498530388,0.22378838062286377,-0.97435462474823,[0. 0. 0. 0. 0. 0. 0. 0. 0.],-0.54931640625,-0.67138671875,-0.244140625,[0. 0. 0. 0. 0. 0. 0. 0. 0.],-0.04052734375,0.025390625,1.00244140625,[0. 0. 0. 0. 0. 0. 0. 0. 0.]
2.889586925506592,-0.0161302350461483,-0.016633275896310806,0.2238219529390335,-0.9743546843528748,[0. 0. 0. 0. 0. 0. 0. 0. 0.],-0.06103515625,-0.42724609375,-0.244140625,[0. 0. 0. 0. 0. 0. 0. 0. 0.],-0.0400390625,0.02392578125,1.00390625,[0. 0. 0. 0. 0. 0. 0. 0. 0.]
2.9073121547698975,-0.016085339710116386,-0.01701335795223713,0.2238561064004898,-0.9743409752845764,[0. 0. 0. 0. 0. 0. 0. 0. 0.],-0.1220703125,0.0,-0.1220703125,[0. 0. 0. 0. 0. 0. 0. 0. 0.],-0.04052734375,0.02392578125,1.0029296875,[0. 0. 0. 0. 0. 0. 0. 0. 0.]
2.9244649410247803,-0.015579013153910637,-0.01756766438484192,0.22389863431453705,-0.9743295907974243,[0. 0. 0. 0. 0. 0. 0. 0. 0.],0.06103515625,-1.15966796875,-0.18310546875,[0. 0. 0. 0. 0. 0. 0. 0. 0.],-0.04150390625,0.0224609375,1.00146484375,[0. 0. 0. 0. 0. 0. 0. 0. 0.]
2.9400107860565186,-0.01570819318294525,-0.017130425199866295,0.22391992807388306,-0.9743304252624512,[0. 0. 0. 0. 0. 0. 0. 0. 0.],-0.18310546875,-1.3427734375,-0.244140625,[0. 0. 0. 0. 0. 0. 0. 0. 0.],-0.04052734375,0.02294921875,1.00390625,[0. 0. 0. 0. 0. 0. 0. 0. 0.]
2.966158151626587,-0.016597088426351547,-0.01704367995262146,0.22393696010112762,-0.9743133187294006,[0. 0. 0. 0. 0. 0. 0. 0. 0.],0.18310546875,-0.79345703125,-0.244140625,[0. 0. 0. 0. 0. 0. 0. 0. 0.],-0.04150390625,0.0244140625,1.00341796875,[0. 0. 0. 0. 0. 0. 0. 0. 0.]
2.9864797592163086,-0.016433946788311005,-0.017722442746162415,0.22395530343055725,-0.9742997288703918,[0. 0. 0. 0. 0. 0. 0. 0. 0.],0.06103515625,0.06103515625,-0.06103515625,[0. 0. 0. 0. 0. 0. 0. 0. 0.],-0.0419921875,0.02392578125,1.00390625,[0. 0. 0. 0. 0. 0. 0. 0. 0.]
3.000690460205078,-0.016185307875275612,-0.016427937895059586,0.22398075461387634,-0.9743207693099976,[0. 0. 0. 0. 0. 0. 0. 0. 0.],-0.3662109375,-0.6103515625,-0.18310546875,[0. 0. 0. 0. 0. 0. 0. 0. 0.],-0.0400390625,0.02392578125,1.00439453125,[0. 0. 0. 0. 0. 0. 0. 0. 0.]
3.0204920768737793,-0.016362354159355164,-0.017462141811847687,0.22398245334625244,-0.9742993712425232,[0. 0. 0. 0. 0. 0. 0. 0. 0.],0.06103515625,-0.732421875,0.3662109375,[0. 0. 0. 0. 0. 0. 0. 0. 0.],-0.04296875,0.0244140625,1.00634765625,[0. 0. 0. 0. 0. 0. 0. 0. 0.]
3.0442841053009033,-0.016112137585878372,-0.016715064644813538,0.2240200638771057,-0.9743079543113708,[0. 0. 0. 0. 0. 0. 0. 0. 0.],0.6103515625,0.732421875,-1.3427734375,[0. 0. 0. 0. 0. 0. 0. 0. 0.],-0.0322265625,0.0224609375,1.0029296875,[0. 0. 0. 0. 0. 0. 0. 0. 0.]
3.0660407543182373,-0.015861527994275093,-0.017637202516198158,0.22458063066005707,-0.9741668105125427,[0. 0. 0. 0. 0. 0. 0. 0. 0.],-0.06103515625,2.01416015625,-3.47900390625,[0. 0. 0. 0. 0. 0. 0. 0. 0.],-0.05029296875,0.02294921875,1.00146484375,[0. 0. 0. 0. 0. 0. 0. 0. 0.]
3.079549789428711,-0.015956565737724304,-0.019095372408628464,0.22521302103996277,-0.9739916920661926,[0. 0. 0. 0. 0. 0. 0. 0. 0.],-0.18310546875,0.42724609375,-5.615234375,[0. 0. 0. 0. 0. 0. 0. 0. 0.],-0.05859375,0.02001953125,1.00341796875,[0. 0. 0. 0. 0. 0. 0. 0. 0.]
3.1123206615448,-0.01514239888638258,-0.021609975025057793,0.2266601175069809,-0.9736164212226868,[0. 0. 0. 0. 0. 0. 0. 0. 0.],0.06103515625,-0.244140625,-5.37109375,[0. 0. 0. 0. 0. 0. 0. 0. 0.],-0.05078125,0.01171875,1.00927734375,[0. 0. 0. 0. 0. 0. 0. 0. 0.]
3.11995530128479,-0.01398734375834465,-0.021597251296043396,0.2271685004234314,-0.973515510559082,[0. 0. 0. 0. 0. 0. 0. 0. 0.],-5.7373046875,2.50244140625,-6.04248046875,[0. 0. 0. 0. 0. 0. 0. 0. 0.],-0.02001953125,-0.03955078125,0.96630859375,[0. 0. 0. 0. 0. 0. 0. 0. 0.]
3.142209768295288,-0.010514829307794571,-0.022615820169448853,0.22853702306747437,-0.9732156991958618,[0. 0. 0. 0. 0. 0. 0. 0. 0.],-8.97216796875,-2.25830078125,-10.80322265625,[0. 0. 0. 0. 0. 0. 0. 0. 0.],0.001953125,-0.28662109375,1.0283203125,[0. 0. 0. 0. 0. 0. 0. 0. 0.]
3.165553092956543,-0.008522909134626389,-0.02383408136665821,0.23021729290485382,-0.9728100299835205,[0. 0. 0. 0. 0. 0. 0. 0. 0.],-1.46484375,8.056640625,-10.7421875,[0. 0. 0. 0. 0. 0. 0. 0. 0.],-0.064453125,-0.29052734375,1.01171875,[0. 0. 0. 0. 0. 0. 0. 0. 0.]
3.18477463722229,-0.007278705481439829,-0.024366799741983414,0.23249699175357819,-0.9722645878791809,[0. 0. 0. 0. 0. 0. 0. 0. 0.],1.8310546875,3.96728515625,-8.7890625,[0. 0. 0. 0. 0. 0. 0. 0. 0.],-0.1103515625,-0.32763671875,1.05078125,[0. 0. 0. 0. 0. 0. 0. 0. 0.]
3.2011427879333496,-0.006447013933211565,-0.0249397624284029,0.23478096723556519,-0.9717070460319519,[0. 0. 0. 0. 0. 0. 0. 0. 0.],7.4462890625,-4.2724609375,-13.916015625,[0. 0. 0. 0. 0. 0. 0. 0. 0.],-0.10693359375,-0.28076171875,1.01904296875,[0. 0. 0. 0. 0. 0. 0. 0. 0.]
3.22446346282959,-0.004985132720321417,-0.02553555741906166,0.23720479011535645,-0.9711112380027771,[0. 0. 0. 0. 0. 0. 0. 0. 0.],-6.89697265625,4.45556640625,-15.9912109375,[0. 0. 0. 0. 0. 0. 0. 0. 0.],-0.05029296875,-0.1728515625,0.873046875,[0. 0. 0. 0. 0. 0. 0. 0. 0.]
3.2475593090057373,-0.0022537298500537872,-0.026320096105337143,0.2417653650045395,-0.9699751138687134,[0. 0. 0. 0. 0. 0. 0. 0. 0.],-0.18310546875,3.11279296875,-21.66748046875,[0. 0. 0. 0. 0. 0. 0. 0. 0.],-0.03662109375,-0.2939453125,1.0244140625,[0. 0. 0. 0. 0. 0. 0. 0. 0.]
3.259685516357422,-0.001122685382142663,-0.02692197449505329,0.24498867988586426,-0.9691514372825623,[0. 0. 0. 0. 0. 0. 0. 0. 0.],-1.46484375,-1.52587890625,-25.93994140625,[0. 0. 0. 0. 0. 0. 0. 0. 0.],-0.037109375,-0.28515625,1.0322265625,[0. 0. 0. 0. 0. 0. 0. 0. 0.]
3.284803867340088,0.001487149391323328,-0.02748786099255085,0.25014615058898926,-0.9678167104721069,[0. 0. 0. 0. 0. 0. 0. 0. 0.],-3.41796875,-4.94384765625,-23.37646484375,[0. 0. 0. 0. 0. 0. 0. 0. 0.],-0.08984375,-0.279296875,0.98046875,[0. 0. 0. 0. 0. 0. 0. 0. 0.]
3.306831121444702,0.0030936256516724825,-0.027438396587967873,0.2523719072341919,-0.9672362804412842,[0. 0. 0. 0. 0. 0. 0. 0. 0.],-1.15966796875,-8.4228515625,-15.0146484375,[0. 0. 0. 0. 0. 0. 0. 0. 0.],-0.14892578125,-0.29248046875,0.98583984375,[0. 0. 0. 0. 0. 0. 0. 0. 0.]
3.326024055480957,0.004846220836043358,-0.026784583926200867,0.2544078230857849,-0.9667139649391174,[0. 0. 0. 0. 0. 0. 0. 0. 0.],0.0,-8.36181640625,-10.43701171875,[0. 0. 0. 0. 0. 0. 0. 0. 0.],-0.08154296875,-0.267578125,1.0048828125,[0. 0. 0. 0. 0. 0. 0. 0. 0.]
3.344773530960083,0.0061274501495063305,-0.025558695197105408,0.2562519609928131,-0.9662526249885559,[0. 0. 0. 0. 0. 0. 0. 0. 0.],4.94384765625,-3.11279296875,-9.8876953125,[0. 0. 0. 0. 0. 0. 0. 0. 0.],0.0654296875,-0.2314453125,1.0517578125,[0. 0. 0. 0. 0. 0. 0. 0. 0.]
3.364412307739258,0.007058931514620781,-0.025297168642282486,0.2574620842933655,-0.9659314155578613,[0. 0. 0. 0. 0. 0. 0. 0. 0.],1.77001953125,1.64794921875,-5.67626953125,[0. 0. 0. 0. 0. 0. 0. 0. 0.],0.02197265625,-0.19287109375,1.0654296875,[0. 0. 0. 0. 0. 0. 0. 0. 0.]
3.3850550651550293,0.008824776858091354,-0.02571839839220047,0.25783616304397583,-0.9658060669898987,[0. 0. 0. 0. 0. 0. 0. 0. 0.],-1.89208984375,-0.54931640625,-0.42724609375,[0. 0. 0. 0. 0. 0. 0. 0. 0.],-0.0556640625,-0.1708984375,0.931640625,[0. 0. 0. 0. 0. 0. 0. 0. 0.]
3.407015800476074,0.01244612131267786,-0.026739099994301796,0.25792813301086426,-0.9657137989997864,[0. 0. 0. 0. 0. 0. 0. 0. 0.],-9.765625,3.60107421875,0.1220703125,[0. 0. 0. 0. 0. 0. 0. 0. 0.],-0.02880859375,-0.22119140625,0.82763671875,[0. 0. 0. 0. 0. 0. 0. 0. 0.]
3.4241890907287598,0.014116216450929642,-0.02731308341026306,0.2580888271331787,-0.9656319618225098,[0. 0. 0. 0. 0. 0. 0. 0. 0.],-1.3427734375,1.0986328125,-2.0751953125,[0. 0. 0. 0. 0. 0. 0. 0. 0.],-0.0068359375,-0.265625,0.95947265625,[0. 0. 0. 0. 0. 0. 0. 0. 0.]
3.4403297901153564,0.015673162415623665,-0.027789631858468056,0.2584739625453949,-0.9654912352561951,[0. 0. 0. 0. 0. 0. 0. 0. 0.],0.91552734375,-3.72314453125,-4.33349609375,[0. 0. 0. 0. 0. 0. 0. 0. 0.],-0.04638671875,-0.185546875,1.02587890625,[0. 0. 0. 0. 0. 0. 0. 0. 0.]
3.464348554611206,0.017607498914003372,-0.028621431440114975,0.2589944303035736,-0.9652941823005676,[0. 0. 0. 0. 0. 0. 0. 0. 0.],-0.9765625,-7.50732421875,-5.06591796875,[0. 0. 0. 0. 0. 0. 0. 0. 0.],-0.07373046875,-0.12255859375,1.091796875,[0. 0. 0. 0. 0. 0. 0. 0. 0.]
3.485081911087036,0.01888106018304825,-0.028556596487760544,0.259386271238327,-0.9651666879653931,[0. 0. 0. 0. 0. 0. 0. 0. 0.],1.03759765625,-14.22119140625,-4.0283203125,[0. 0. 0. 0. 0. 0. 0. 0. 0.],-0.11572265625,-0.1220703125,1.05224609375,[0. 0. 0. 0. 0. 0. 0. 0. 0.]
3.5043632984161377,0.02040795236825943,-0.028795577585697174,0.2598802149295807,-0.9649956822395325,[0. 0. 0. 0. 0. 0. 0. 0. 0.],2.01416015625,-1.8310546875,-3.96728515625,[0. 0. 0. 0. 0. 0. 0. 0. 0.],-0.02978515625,-0.11767578125,1.025390625,[0. 0. 0. 0. 0. 0. 0. 0. 0.]
3.5287978649139404,0.02163398079574108,-0.028938865289092064,0.2603740692138672,-0.9648314714431763,[0. 0. 0. 0. 0. 0. 0. 0. 0.],3.23486328125,-7.9345703125,-2.3193359375,[0. 0. 0. 0. 0. 0. 0. 0. 0.],-0.07763671875,-0.107421875,0.927734375,[0. 0. 0. 0. 0. 0. 0. 0. 0.]
3.5463807582855225,0.023293647915124893,-0.0297506432980299,0.2605014145374298,-0.9647338390350342,[0. 0. 0. 0. 0. 0. 0. 0. 0.],-4.69970703125,4.5166015625,-1.3427734375,[0. 0. 0. 0. 0. 0. 0. 0. 0.],-0.03857421875,-0.14599609375,0.91943359375,[0. 0. 0. 0. 0. 0. 0. 0. 0.]
3.5644688606262207,0.02502554841339588,-0.028708670288324356,0.2609911859035492,-0.9645896553993225,[0. 0. 0. 0. 0. 0. 0. 0. 0.],0.0,-3.662109375,-1.220703125,[0. 0. 0. 0. 0. 0. 0. 0. 0.],-0.029296875,-0.11181640625,1.0927734375,[0. 0. 0. 0. 0. 0. 0. 0. 0.]
3.584777355194092,0.027242012321949005,-0.02825678139925003,0.26148712635040283,-0.9644086360931396,[0. 0. 0. 0. 0. 0. 0. 0. 0.],-5.126953125,3.96728515625,-4.08935546875,[0. 0. 0. 0. 0. 0. 0. 0. 0.],0.01416015625,-0.087890625,0.9462890625,[0. 0. 0. 0. 0. 0. 0. 0. 0.]
3.6101813316345215,0.027148278430104256,-0.027684954926371574,0.26231321692466736,-0.9642034769058228,[0. 0. 0. 0. 0. 0. 0. 0. 0.],11.16943359375,2.0751953125,-2.62451171875,[0. 0. 0. 0. 0. 0. 0. 0. 0.],-0.04296875,-0.10205078125,1.15576171875,[0. 0. 0. 0. 0. 0. 0. 0. 0.]
3.6247670650482178,0.02667425200343132,-0.028629375621676445,0.2626242935657501,-0.9641044735908508,[0. 0. 0. 0. 0. 0. 0. 0. 0.],3.173828125,-0.79345703125,-2.74658203125,[0. 0. 0. 0. 0. 0. 0. 0. 0.],-0.06640625,-0.06982421875,0.9296875,[0. 0. 0. 0. 0. 0. 0. 0. 0.]
3.6454434394836426,0.029610997065901756,-0.029245605692267418,0.2632315456867218,-0.9638345241546631,[0. 0. 0. 0. 0. 0. 0. 0. 0.],-5.0048828125,-6.103515625,-4.2724609375,[0. 0. 0. 0. 0. 0. 0. 0. 0.],-0.05517578125,-0.1689453125,0.88134765625,[0. 0. 0. 0. 0. 0. 0. 0. 0.]
3.664466381072998,0.031455617398023605,-0.03011852502822876,0.26340794563293457,-0.9637010097503662,[0. 0. 0. 0. 0. 0. 0. 0. 0.],-5.7373046875,2.86865234375,-0.8544921875,[0. 0. 0. 0. 0. 0. 0. 0. 0.],-0.06591796875,-0.17431640625,1.06689453125,[0. 0. 0. 0. 0. 0. 0. 0. 0.]
3.6848368644714355,0.03197836875915527,-0.02971111610531807,0.2641228139400482,-0.9635007381439209,[0. 0. 0. 0. 0. 0. 0. 0. 0.],13.671875,1.220703125,-3.23486328125,[0. 0. 0. 0. 0. 0. 0. 0. 0.],-0.03271484375,-0.13818359375,1.22607421875,[0. 0. 0. 0. 0. 0. 0. 0. 0.]
3.7041141986846924,0.03130483254790306,-0.028364619240164757,0.2652001678943634,-0.9632676243782043,[0. 0. 0. 0. 0. 0. 0. 0. 0.],8.056640625,-0.30517578125,-6.28662109375,[0. 0. 0. 0. 0. 0. 0. 0. 0.],-0.0263671875,-0.080078125,0.9541015625,[0. 0. 0. 0. 0. 0. 0. 0. 0.]
3.7250852584838867,0.030157696455717087,-0.029376907274127007,0.26625528931617737,-0.9629827737808228,[0. 0. 0. 0. 0. 0. 0. 0. 0.],-10.498046875,11.1083984375,-7.32421875,[0. 0. 0. 0. 0. 0. 0. 0. 0.],-0.0439453125,-0.0029296875,0.771484375,[0. 0. 0. 0. 0. 0. 0. 0. 0.]
3.7449114322662354,0.030138477683067322,-0.03312596678733826,0.26872357726097107,-0.962175726890564,[0. 0. 0. 0. 0. 0. 0. 0. 0.],-6.591796875,17.2119140625,-19.53125,[0. 0. 0. 0. 0. 0. 0. 0. 0.],-0.07177734375,-0.0732421875,0.9375,[0. 0. 0. 0. 0. 0. 0. 0. 0.]
3.764186143875122,0.030673721805214882,-0.03667191416025162,0.27318620681762695,-0.9607723951339722,[0. 0. 0. 0. 0. 0. 0. 0. 0.],-1.46484375,-4.8828125,-33.50830078125,[0. 0. 0. 0. 0. 0. 0. 0. 0.],-0.2666015625,-0.16845703125,1.01513671875,[0. 0. 0. 0. 0. 0. 0. 0. 0.]
3.7862348556518555,0.031123366206884384,-0.03831789642572403,0.27956995368003845,-0.9588554501533508,[0. 0. 0. 0. 0. 0. 0. 0. 0.],2.38037109375,-1.15966796875,-42.90771484375,[0. 0. 0. 0. 0. 0. 0. 0. 0.],-0.2255859375,-0.1474609375,1.11376953125,[0. 0. 0. 0. 0. 0. 0. 0. 0.]
3.804715633392334,0.030451074242591858,-0.039960164576768875,0.28790000081062317,-0.9563418030738831,[0. 0. 0. 0. 0. 0. 0. 0. 0.],3.11279296875,12.6953125,-52.55126953125,[0. 0. 0. 0. 0. 0. 0. 0. 0.],-0.14453125,-0.11328125,1.06494140625,[0. 0. 0. 0. 0. 0. 0. 0. 0.]
3.8244264125823975,0.02947651408612728,-0.041107695549726486,0.29721102118492126,-0.9534709453582764,[0. 0. 0. 0. 0. 0. 0. 0. 0.],6.65283203125,-5.859375,-54.26025390625,[0. 0. 0. 0. 0. 0. 0. 0. 0.],-0.2607421875,-0.08984375,0.982421875,[0. 0. 0. 0. 0. 0. 0. 0. 0.]
3.845024585723877,0.030281197279691696,-0.04228834807872772,0.30592721700668335,-0.9506331086158752,[0. 0. 0. 0. 0. 0. 0. 0. 0.],-1.0986328125,-3.662109375,-53.03955078125,[0. 0. 0. 0. 0. 0. 0. 0. 0.],-0.16455078125,-0.1064453125,1.0009765625,[0. 0. 0. 0. 0. 0. 0. 0. 0.]
3.8593099117279053,0.030812175944447517,-0.04204914718866348,0.3145584464073181,-0.947805643081665,[0. 0. 0. 0. 0. 0. 0. 0. 0.],8.85009765625,4.150390625,-51.08642578125,[0. 0. 0. 0. 0. 0. 0. 0. 0.],-0.0263671875,-0.1591796875,1.15234375,[0. 0. 0. 0. 0. 0. 0. 0. 0.]
3.884533166885376,0.03127317503094673,-0.042128268629312515,0.32217296957969666,-0.9452257752418518,[0. 0. 0. 0. 0. 0. 0. 0. 0.],-0.06103515625,-1.89208984375,-41.19873046875,[0. 0. 0. 0. 0. 0. 0. 0. 0.],-0.1171875,-0.1025390625,0.88720703125,[0. 0. 0. 0. 0. 0. 0. 0. 0.]
3.904604911804199,0.03387594595551491,-0.04082345962524414,0.3270286023616791,-0.9435243606567383,[0. 0. 0. 0. 0. 0. 0. 0. 0.],-10.25390625,-18.00537109375,-24.5361328125,[0. 0. 0. 0. 0. 0. 0. 0. 0.],-0.20849609375,-0.2060546875,0.82177734375,[0. 0. 0. 0. 0. 0. 0. 0. 0.]
3.924485206604004,0.035658154636621475,-0.04053940996527672,0.3300871253013611,-0.9424052834510803,[0. 0. 0. 0. 0. 0. 0. 0. 0.],4.2724609375,8.85009765625,-14.6484375,[0. 0. 0. 0. 0. 0. 0. 0. 0.],0.091796875,-0.2607421875,1.18994140625,[0. 0. 0. 0. 0. 0. 0. 0. 0.]
3.9441699981689453,0.03645332530140877,-0.03997085243463516,0.33118700981140137,-0.9420130848884583,[0. 0. 0. 0. 0. 0. 0. 0. 0.],7.87353515625,-9.46044921875,-3.11279296875,[0. 0. 0. 0. 0. 0. 0. 0. 0.],-0.0830078125,-0.1259765625,0.923828125,[0. 0. 0. 0. 0. 0. 0. 0. 0.]
3.964590549468994,0.03802449256181717,-0.04015522077679634,0.3316882252693176,-0.9417667984962463,[0. 0. 0. 0. 0. 0. 0. 0. 0.],-5.18798828125,9.033203125,-2.197265625,[0. 0. 0. 0. 0. 0. 0. 0. 0.],0.00244140625,-0.09521484375,0.84814453125,[0. 0. 0. 0. 0. 0. 0. 0. 0.]
3.9843204021453857,0.038224104791879654,-0.040578968822956085,0.33171346783638,-0.9417316913604736,[0. 0. 0. 0. 0. 0. 0. 0. 0.],3.5400390625,-5.79833984375,1.28173828125,[0. 0. 0. 0. 0. 0. 0. 0. 0.],-0.11376953125,-0.11962890625,1.06396484375,[0. 0. 0. 0. 0. 0. 0. 0. 0.]
4.0045130252838135,0.03794889897108078,-0.040755800902843475,0.33133429288864136,-0.9418686032295227,[0. 0. 0. 0. 0. 0. 0. 0. 0.],-2.25830078125,-10.009765625,-0.06103515625,[0. 0. 0. 0. 0. 0. 0. 0. 0.],-0.1142578125,-0.0615234375,1.04345703125,[0. 0. 0. 0. 0. 0. 0. 0. 0.]
4.024537086486816,0.037083275616168976,-0.039181917905807495,0.33159199357032776,-0.9418792724609375,[0. 0. 0. 0. 0. 0. 0. 0. 0.],8.48388671875,4.8828125,-2.197265625,[0. 0. 0. 0. 0. 0. 0. 0. 0.],0.046875,-0.08642578125,1.126953125,[0. 0. 0. 0. 0. 0. 0. 0. 0.]
4.0405988693237305,0.03572794422507286,-0.037377018481492996,0.33239611983299255,-0.941721498966217,[0. 0. 0. 0. 0. 0. 0. 0. 0.],-0.91552734375,-3.7841796875,-3.60107421875,[0. 0. 0. 0. 0. 0. 0. 0. 0.],-0.0537109375,-0.04638671875,0.94140625,[0. 0. 0. 0. 0. 0. 0. 0. 0.]
4.066014051437378,0.03386814892292023,-0.03629012033343315,0.3331572711467743,-0.9415637850761414,[0. 0. 0. 0. 0. 0. 0. 0. 0.],2.3193359375,0.732421875,-5.859375,[0. 0. 0. 0. 0. 0. 0. 0. 0.],0.00048828125,-0.03466796875,1.060546875,[0. 0. 0. 0. 0. 0. 0. 0. 0.]
4.081851959228516,0.032502055168151855,-0.035725899040699005,0.3339744806289673,-0.9413439035415649,[0. 0. 0. 0. 0. 0. 0. 0. 0.],3.60107421875,2.3193359375,-4.2724609375,[0. 0. 0. 0. 0. 0. 0. 0. 0.],-0.0302734375,-0.048828125,0.99755859375,[0. 0. 0. 0. 0. 0. 0. 0. 0.]
4.1043548583984375,0.0316014289855957,-0.0357232391834259,0.3340567946434021,-0.9413455128669739,[0. 0. 0. 0. 0. 0. 0. 0. 0.],-4.08935546875,-5.4931640625,-1.77001953125,[0. 0. 0. 0. 0. 0. 0. 0. 0.],-0.11572265625,-0.0185546875,0.9248046875,[0. 0. 0. 0. 0. 0. 0. 0. 0.]
4.124603033065796,0.029975976794958115,-0.03443334996700287,0.33495664596557617,-0.9411268830299377,[0. 0. 0. 0. 0. 0. 0. 0. 0.],9.3994140625,7.38525390625,-6.40869140625,[0. 0. 0. 0. 0. 0. 0. 0. 0.],0.068359375,-0.05419921875,1.1103515625,[0. 0. 0. 0. 0. 0. 0. 0. 0.]
4.144666910171509,0.028940098360180855,-0.03467002883553505,0.3358403742313385,-0.9408356547355652,[0. 0. 0. 0. 0. 0. 0. 0. 0.],-7.080078125,-5.615234375,-5.06591796875,[0. 0. 0. 0. 0. 0. 0. 0. 0.],-0.1025390625,0.01513671875,0.7880859375,[0. 0. 0. 0. 0. 0. 0. 0. 0.]
4.164132833480835,0.02926858328282833,-0.03455899655818939,0.33653387427330017,-0.9405817985534668,[0. 0. 0. 0. 0. 0. 0. 0. 0.],-6.4697265625,-0.42724609375,-3.72314453125,[0. 0. 0. 0. 0. 0. 0. 0. 0.],-0.080078125,-0.0224609375,0.8974609375,[0. 0. 0. 0. 0. 0. 0. 0. 0.]
4.184839725494385,0.027327701449394226,-0.0340777225792408,0.3369262218475342,-0.940517246723175,[0. 0. 0. 0. 0. 0. 0. 0. 0.],6.89697265625,3.7841796875,-0.732421875,[0. 0. 0. 0. 0. 0. 0. 0. 0.],-0.04931640625,-0.04638671875,1.1396484375,[0. 0. 0. 0. 0. 0. 0. 0. 0.]
4.204693078994751,0.0258894432336092,-0.0338764488697052,0.3369234800338745,-0.9405661821365356,[0. 0. 0. 0. 0. 0. 0. 0. 0.],-0.48828125,-8.6669921875,-0.48828125,[0. 0. 0. 0. 0. 0. 0. 0. 0.],-0.1357421875,0.02197265625,1.0263671875,[0. 0. 0. 0. 0. 0. 0. 0. 0.]
4.224290370941162,0.023602433502674103,-0.03270764276385307,0.3372208774089813,-0.9405611753463745,[0. 0. 0. 0. 0. 0. 0. 0. 0.],14.0380859375,-2.99072265625,-1.708984375,[0. 0. 0. 0. 0. 0. 0. 0. 0.],-0.01416015625,-0.03076171875,1.06787109375,[0. 0. 0. 0. 0. 0. 0. 0. 0.]
4.244598388671875,0.02051638439297676,-0.031890496611595154,0.3376907706260681,-0.9404930472373962,[0. 0. 0. 0. 0. 0. 0. 0. 0.],9.033203125,5.0048828125,-5.31005859375,[0. 0. 0. 0. 0. 0. 0. 0. 0.],-0.0263671875,0.02197265625,1.05908203125,[0. 0. 0. 0. 0. 0. 0. 0. 0.]
4.262706756591797,0.016550298780202866,-0.03337002918124199,0.34037771821022034,-0.9395508170127869,[0. 0. 0. 0. 0. 0. 0. 0. 0.],9.1552734375,12.51220703125,-18.798828125,[0. 0. 0. 0. 0. 0. 0. 0. 0.],-0.09375,0.04736328125,0.98681640625,[0. 0. 0. 0. 0. 0. 0. 0. 0.]
4.2845823764801025,0.014333143830299377,-0.03444913029670715,0.3434239327907562,-0.9384390711784363,[0. 0. 0. 0. 0. 0. 0. 0. 0.],6.4697265625,3.2958984375,-28.564453125,[0. 0. 0. 0. 0. 0. 0. 0. 0.],-0.22705078125,0.05322265625,0.94677734375,[0. 0. 0. 0. 0. 0. 0. 0. 0.]
4.304305076599121,0.011273487471044064,-0.036050502210855484,0.3498994708061218,-0.9360254406929016,[0. 0. 0. 0. 0. 0. 0. 0. 0.],7.32421875,11.77978515625,-45.22705078125,[0. 0. 0. 0. 0. 0. 0. 0. 0.],-0.10302734375,0.06298828125,1.06201171875,[0. 0. 0. 0. 0. 0. 0. 0. 0.]
4.325628757476807,0.007988822646439075,-0.03835273161530495,0.35864347219467163,-0.9326522946357727,[0. 0. 0. 0. 0. 0. 0. 0. 0.],0.48828125,21.97265625,-59.26513671875,[0. 0. 0. 0. 0. 0. 0. 0. 0.],-0.146484375,0.09619140625,0.8681640625,[0. 0. 0. 0. 0. 0. 0. 0. 0.]
4.3444764614105225,0.007154680788516998,-0.04058613255620003,0.3726220428943634,-0.9270676970481873,[0. 0. 0. 0. 0. 0. 0. 0. 0.],0.30517578125,-7.2021484375,-74.70703125,[0. 0. 0. 0. 0. 0. 0. 0. 0.],-0.27001953125,0.08447265625,0.9130859375,[0. 0. 0. 0. 0. 0. 0. 0. 0.]
4.36442756652832,0.005362269934266806,-0.04116050526499748,0.3824852406978607,-0.923028826713562,[0. 0. 0. 0. 0. 0. 0. 0. 0.],11.16943359375,6.7138671875,-84.77783203125,[0. 0. 0. 0. 0. 0. 0. 0. 0.],-0.18603515625,0.03173828125,1.12646484375,[0. 0. 0. 0. 0. 0. 0. 0. 0.]
4.384300231933594,0.003215997014194727,-0.042957283556461334,0.39735615253448486,-0.9166529178619385,[0. 0. 0. 0. 0. 0. 0. 0. 0.],-0.30517578125,11.65771484375,-98.44970703125,[0. 0. 0. 0. 0. 0. 0. 0. 0.],-0.21875,0.130859375,1.02490234375,[0. 0. 0. 0. 0. 0. 0. 0. 0.]
4.404587030410767,0.0014488565502688289,-0.04535076394677162,0.41388535499572754,-0.9091975092887878,[0. 0. 0. 0. 0. 0. 0. 0. 0.],2.9296875,21.240234375,-107.48291015625,[0. 0. 0. 0. 0. 0. 0. 0. 0.],-0.24853515625,0.1494140625,1.0107421875,[0. 0. 0. 0. 0. 0. 0. 0. 0.]
4.425031661987305,-0.0005766706308349967,-0.04535313695669174,0.43584030866622925,-0.8988804221153259,[0. 0. 0. 0. 0. 0. 0. 0. 0.],9.3994140625,-6.04248046875,-112.97607421875,[0. 0. 0. 0. 0. 0. 0. 0. 0.],-0.423828125,0.125,0.99658203125,[0. 0. 0. 0. 0. 0. 0. 0. 0.]
4.444375991821289,-0.0026521896943449974,-0.04716816917061806,0.44916996359825134,-0.8921964168548584,[0. 0. 0. 0. 0. 0. 0. 0. 0.],6.65283203125,20.751953125,-114.19677734375,[0. 0. 0. 0. 0. 0. 0. 0. 0.],-0.2724609375,0.126953125,0.9853515625,[0. 0. 0. 0. 0. 0. 0. 0. 0.]
4.464840412139893,-0.005196247715502977,-0.04850224405527115,0.4669073820114136,-0.8829599022865295,[0. 0. 0. 0. 0. 0. 0. 0. 0.],7.8125,1.77001953125,-114.68505859375,[0. 0. 0. 0. 0. 0. 0. 0. 0.],-0.45751953125,0.10986328125,1.01318359375,[0. 0. 0. 0. 0. 0. 0. 0. 0.]
4.4846577644348145,-0.006240340881049633,-0.04869605973362923,0.48437950015068054,-0.8734793663024902,[0. 0. 0. 0. 0. 0. 0. 0. 0.],5.79833984375,-0.42724609375,-114.31884765625,[0. 0. 0. 0. 0. 0. 0. 0. 0.],-0.41357421875,0.1162109375,0.974609375,[0. 0. 0. 0. 0. 0. 0. 0. 0.]
4.5052714347839355,-0.006844036281108856,-0.05086958408355713,0.5014315843582153,-0.8636735081672668,[0. 0. 0. 0. 0. 0. 0. 0. 0.],-6.34765625,9.1552734375,-112.060546875,[0. 0. 0. 0. 0. 0. 0. 0. 0.],-0.33447265625,0.12060546875,0.84521484375,[0. 0. 0. 0. 0. 0. 0. 0. 0.]
4.524462461471558,-0.007491316646337509,-0.053754549473524094,0.5174558758735657,-0.8539869785308838,[0. 0. 0. 0. 0. 0. 0. 0. 0.],1.77001953125,2.3193359375,-102.96630859375,[0. 0. 0. 0. 0. 0. 0. 0. 0.],-0.412109375,0.02978515625,1.087890625,[0. 0. 0. 0. 0. 0. 0. 0. 0.]
4.539331674575806,-0.008969067595899105,-0.05314086005091667,0.5313122272491455,-0.8454601764678955,[0. 0. 0. 0. 0. 0. 0. 0. 0.],15.869140625,-7.14111328125,-87.2802734375,[0. 0. 0. 0. 0. 0. 0. 0. 0.],-0.431640625,-0.00048828125,1.1435546875,[0. 0. 0. 0. 0. 0. 0. 0. 0.]
4.564416170120239,-0.008519659750163555,-0.0520157516002655,0.5429686307907104,-0.8380972146987915,[0. 0. 0. 0. 0. 0. 0. 0. 0.],2.01416015625,-21.484375,-74.951171875,[0. 0. 0. 0. 0. 0. 0. 0. 0.],-0.3798828125,0.09033203125,0.8701171875,[0. 0. 0. 0. 0. 0. 0. 0. 0.]
4.584438800811768,-0.007869277149438858,-0.05107508599758148,0.5523020625114441,-0.8320407867431641,[0. 0. 0. 0. 0. 0. 0. 0. 0.],-0.9765625,-1.953125,-57.12890625,[0. 0. 0. 0. 0. 0. 0. 0. 0.],-0.20751953125,0.02978515625,0.9541015625,[0. 0. 0. 0. 0. 0. 0. 0. 0.]
4.599377632141113,-0.007712351158261299,-0.05047963559627533,0.5586815476417542,-0.8278087377548218,[0. 0. 0. 0. 0. 0. 0. 0. 0.],-2.3193359375,-16.845703125,-36.62109375,[0. 0. 0. 0. 0. 0. 0. 0. 0.],-0.2509765625,0.0234375,1.037109375,[0. 0. 0. 0. 0. 0. 0. 0. 0.]
4.619475603103638,-0.007875680923461914,-0.04894883185625076,0.562802791595459,-0.8251030445098877,[0. 0. 0. 0. 0. 0. 0. 0. 0.],-0.8544921875,-6.04248046875,-22.88818359375,[0. 0. 0. 0. 0. 0. 0. 0. 0.],-0.09423828125,0.0498046875,1.05322265625,[0. 0. 0. 0. 0. 0. 0. 0. 0.]
4.6453564167022705,-0.009172172285616398,-0.047114964574575424,0.5652847290039062,-0.8234981894493103,[0. 0. 0. 0. 0. 0. 0. 0. 0.],9.3994140625,-2.50244140625,-14.5263671875,[0. 0. 0. 0. 0. 0. 0. 0. 0.],-0.0556640625,0.02197265625,1.080078125,[0. 0. 0. 0. 0. 0. 0. 0. 0.]
4.664901494979858,-0.01041122805327177,-0.043821074068546295,0.5668216347694397,-0.822608470916748,[0. 0. 0. 0. 0. 0. 0. 0. 0.],5.9814453125,-14.0380859375,-8.9111328125,[0. 0. 0. 0. 0. 0. 0. 0. 0.],-0.14111328125,0.07177734375,0.9375,[0. 0. 0. 0. 0. 0. 0. 0. 0.]
4.684614419937134,-0.0117427296936512,-0.04236181080341339,0.5680243968963623,-0.8218370079994202,[0. 0. 0. 0. 0. 0. 0. 0. 0.],1.52587890625,7.8125,-8.4228515625,[0. 0. 0. 0. 0. 0. 0. 0. 0.],0.021484375,0.07861328125,1.017578125,[0. 0. 0. 0. 0. 0. 0. 0. 0.]
4.699689149856567,-0.012773025780916214,-0.04178359732031822,0.5693479180335999,-0.8209348917007446,[0. 0. 0. 0. 0. 0. 0. 0. 0.],-2.50244140625,-2.197265625,-10.80322265625,[0. 0. 0. 0. 0. 0. 0. 0. 0.],-0.0791015625,0.06005859375,0.9423828125,[0. 0. 0. 0. 0. 0. 0. 0. 0.]
4.724293947219849,-0.013165432959794998,-0.04150339588522911,0.570729672908783,-0.8199828863143921,[0. 0. 0. 0. 0. 0. 0. 0. 0.],-5.31005859375,-0.91552734375,-9.33837890625,[0. 0. 0. 0. 0. 0. 0. 0. 0.],-0.103515625,0.06689453125,0.9462890625,[0. 0. 0. 0. 0. 0. 0. 0. 0.]
4.744288206100464,-0.014910761266946793,-0.04021354019641876,0.5721726417541504,-0.8190110325813293,[0. 0. 0. 0. 0. 0. 0. 0. 0.],14.892578125,2.50244140625,-8.23974609375,[0. 0. 0. 0. 0. 0. 0. 0. 0.],-0.0654296875,-0.00537109375,1.1962890625,[0. 0. 0. 0. 0. 0. 0. 0. 0.]
4.764512538909912,-0.016938745975494385,-0.03865523636341095,0.5735393166542053,-0.8180902004241943,[0. 0. 0. 0. 0. 0. 0. 0. 0.],-0.42724609375,-1.46484375,-8.7890625,[0. 0. 0. 0. 0. 0. 0. 0. 0.],-0.13623046875,0.10205078125,0.9169921875,[0. 0. 0. 0. 0. 0. 0. 0. 0.]
4.784510612487793,-0.016555549576878548,-0.03845413401722908,0.5745958685874939,-0.8173657655715942,[0. 0. 0. 0. 0. 0. 0. 0. 0.],-7.14111328125,-9.46044921875,-8.056640625,[0. 0. 0. 0. 0. 0. 0. 0. 0.],-0.1328125,0.07470703125,0.84423828125,[0. 0. 0. 0. 0. 0. 0. 0. 0.]
4.800548553466797,-0.017128951847553253,-0.03772331774234772,0.5755360126495361,-0.8167262673377991,[0. 0. 0. 0. 0. 0. 0. 0. 0.],-2.685546875,-6.04248046875,-6.53076171875,[0. 0. 0. 0. 0. 0. 0. 0. 0.],-0.09033203125,0.0107421875,1.01318359375,[0. 0. 0. 0. 0. 0. 0. 0. 0.]
4.824345588684082,-0.018092745915055275,-0.03720848634839058,0.5761336088180542,-0.816307783126831,[0. 0. 0. 0. 0. 0. 0. 0. 0.],-3.11279296875,0.244140625,-4.82177734375,[0. 0. 0. 0. 0. 0. 0. 0. 0.],-0.09619140625,0.052734375,1.0966796875,[0. 0. 0. 0. 0. 0. 0. 0. 0.]
4.844639778137207,-0.018853047862648964,-0.036877814680337906,0.5765330195426941,-0.8160234689712524,[0. 0. 0. 0. 0. 0. 0. 0. 0.],-5.0048828125,5.4931640625,-3.0517578125,[0. 0. 0. 0. 0. 0. 0. 0. 0.],-0.0615234375,0.05517578125,1.02490234375,[0. 0. 0. 0. 0. 0. 0. 0. 0.]
4.865011692047119,-0.020509779453277588,-0.03569676727056503,0.5767819881439209,-0.8158600330352783,[0. 0. 0. 0. 0. 0. 0. 0. 0.],8.11767578125,-13.3056640625,-1.8310546875,[0. 0. 0. 0. 0. 0. 0. 0. 0.],-0.13671875,0.01025390625,1.07958984375,[0. 0. 0. 0. 0. 0. 0. 0. 0.]
4.884279251098633,-0.02093265764415264,-0.033598531037569046,0.5772404670715332,-0.8156142830848694,[0. 0. 0. 0. 0. 0. 0. 0. 0.],-0.244140625,0.3662109375,-4.0283203125,[0. 0. 0. 0. 0. 0. 0. 0. 0.],-0.01904296875,0.0712890625,0.96435546875,[0. 0. 0. 0. 0. 0. 0. 0. 0.]
4.904416561126709,-0.0212100762873888,-0.03267243131995201,0.5780049562454224,-0.8151030540466309,[0. 0. 0. 0. 0. 0. 0. 0. 0.],-1.77001953125,6.65283203125,-4.5166015625,[0. 0. 0. 0. 0. 0. 0. 0. 0.],0.04150390625,0.08544921875,1.017578125,[0. 0. 0. 0. 0. 0. 0. 0. 0.]
4.925253629684448,-0.02179475873708725,-0.031014811247587204,0.5787724256515503,-0.8146076202392578,[0. 0. 0. 0. 0. 0. 0. 0. 0.],-1.708984375,-5.92041015625,-6.40869140625,[0. 0. 0. 0. 0. 0. 0. 0. 0.],-0.0556640625,0.1044921875,0.96044921875,[0. 0. 0. 0. 0. 0. 0. 0. 0.]
4.939733505249023,-0.021894464269280434,-0.029417172074317932,0.5795453190803528,-0.8141146302223206,[0. 0. 0. 0. 0. 0. 0. 0. 0.],-4.08935546875,-2.86865234375,-5.615234375,[0. 0. 0. 0. 0. 0. 0. 0. 0.],-0.03564453125,0.11083984375,0.96533203125,[0. 0. 0. 0. 0. 0. 0. 0. 0.]
4.964548349380493,-0.023230958729982376,-0.02829691581428051,0.5804437398910522,-0.8134769201278687,[0. 0. 0. 0. 0. 0. 0. 0. 0.],12.3291015625,2.86865234375,-4.94384765625,[0. 0. 0. 0. 0. 0. 0. 0. 0.],-0.01025390625,0.04931640625,1.158203125,[0. 0. 0. 0. 0. 0. 0. 0. 0.]
4.9843430519104,-0.02464406192302704,-0.02591106854379177,0.5814749002456665,-0.8127781748771667,[0. 0. 0. 0. 0. 0. 0. 0. 0.],2.0751953125,-5.9814453125,-7.4462890625,[0. 0. 0. 0. 0. 0. 0. 0. 0.],-0.1181640625,0.1328125,0.912109375,[0. 0. 0. 0. 0. 0. 0. 0. 0.]
5.0042219161987305,-0.02438214235007763,-0.025001538917422295,0.5824577808380127,-0.8121105432510376,[0. 0. 0. 0. 0. 0. 0. 0. 0.],-8.23974609375,-7.75146484375,-7.568359375,[0. 0. 0. 0. 0. 0. 0. 0. 0.],-0.072265625,0.140625,0.89501953125,[0. 0. 0. 0. 0. 0. 0. 0. 0.]
5.024313688278198,-0.025011640042066574,-0.02328745648264885,0.5834717750549316,-0.8114141225814819,[0. 0. 0. 0. 0. 0. 0. 0. 0.],1.03759765625,-4.39453125,-6.8359375,[0. 0. 0. 0. 0. 0. 0. 0. 0.],-0.05712890625,0.0615234375,1.037109375,[0. 0. 0. 0. 0. 0. 0. 0. 0.]
5.044299602508545,-0.026077741757035255,-0.021613499149680138,0.5842465162277222,-0.8108692169189453,[0. 0. 0. 0. 0. 0. 0. 0. 0.],-1.3427734375,-2.44140625,-5.859375,[0. 0. 0. 0. 0. 0. 0. 0. 0.],-0.08642578125,0.11669921875,1.05712890625,[0. 0. 0. 0. 0. 0. 0. 0. 0.]
5.064558744430542,-0.026948794722557068,-0.02104707807302475,0.5848051309585571,-0.8104528188705444,[0. 0. 0. 0. 0. 0. 0. 0. 0.],-4.0283203125,3.11279296875,-3.23486328125,[0. 0. 0. 0. 0. 0. 0. 0. 0.],-0.0380859375,0.11572265625,1.02294921875,[0. 0. 0. 0. 0. 0. 0. 0. 0.]
5.080004453659058,-0.028876638039946556,-0.020076468586921692,0.585109531879425,-0.8101913332939148,[0. 0. 0. 0. 0. 0. 0. 0. 0.],9.1552734375,-2.8076171875,-1.89208984375,[0. 0. 0. 0. 0. 0. 0. 0. 0.],-0.087890625,0.0654296875,1.11865234375,[0. 0. 0. 0. 0. 0. 0. 0. 0.]
5.1052775382995605,-0.030431315302848816,-0.017440075054764748,0.5855726003646851,-0.80986088514328,[0. 0. 0. 0. 0. 0. 0. 0. 0.],6.53076171875,-13.48876953125,-2.62451171875,[0. 0. 0. 0. 0. 0. 0. 0. 0.],-0.10986328125,0.1083984375,0.9638671875,[0. 0. 0. 0. 0. 0. 0. 0. 0.]
5.124205112457275,-0.03185494244098663,-0.015657132491469383,0.5861135721206665,-0.809451162815094,[0. 0. 0. 0. 0. 0. 0. 0. 0.],3.41796875,3.72314453125,-4.8828125,[0. 0. 0. 0. 0. 0. 0. 0. 0.],0.04736328125,0.12939453125,1.00439453125,[0. 0. 0. 0. 0. 0. 0. 0. 0.]
5.144442319869995,-0.03256664425134659,-0.01442567165941,0.5867224931716919,-0.8090043663978577,[0. 0. 0. 0. 0. 0. 0. 0. 0.],-1.15966796875,1.15966796875,-4.82177734375,[0. 0. 0. 0. 0. 0. 0. 0. 0.],-0.0146484375,0.1142578125,0.96875,[0. 0. 0. 0. 0. 0. 0. 0. 0.]
5.1643500328063965,-0.032957710325717926,-0.012145638465881348,0.5875844955444336,-0.8084000945091248,[0. 0. 0. 0. 0. 0. 0. 0. 0.],-2.01416015625,-5.4931640625,-6.53076171875,[0. 0. 0. 0. 0. 0. 0. 0. 0.],-0.0341796875,0.103515625,0.935546875,[0. 0. 0. 0. 0. 0. 0. 0. 0.]
5.185585021972656,-0.033661048859357834,-0.010821685194969177,0.5883891582489014,-0.8078045845031738,[0. 0. 0. 0. 0. 0. 0. 0. 0.],1.0986328125,10.25390625,-6.4697265625,[0. 0. 0. 0. 0. 0. 0. 0. 0.],0.01025390625,0.1005859375,1.06298828125,[0. 0. 0. 0. 0. 0. 0. 0. 0.]
5.199911117553711,-0.035717569291591644,-0.009617549367249012,0.5890127420425415,-0.8072768449783325,[0. 0. 0. 0. 0. 0. 0. 0. 0.],9.70458984375,-6.9580078125,-4.33349609375,[0. 0. 0. 0. 0. 0. 0. 0. 0.],-0.10693359375,0.0869140625,1.099609375,[0. 0. 0. 0. 0. 0. 0. 0. 0.]
5.224366188049316,-0.03656342253088951,-0.008492746390402317,0.5896721482276917,-0.8067700862884521,[0. 0. 0. 0. 0. 0. 0. 0. 0.],-2.86865234375,-6.34765625,-4.7607421875,[0. 0. 0. 0. 0. 0. 0. 0. 0.],-0.1162109375,0.1484375,0.87451171875,[0. 0. 0. 0. 0. 0. 0. 0. 0.]
5.2444007396698,-0.03623681515455246,-0.008304426446557045,0.5902323126792908,-0.8063769340515137,[0. 0. 0. 0. 0. 0. 0. 0. 0.],-8.30078125,-8.72802734375,-3.47900390625,[0. 0. 0. 0. 0. 0. 0. 0. 0.],-0.08544921875,0.1064453125,0.9267578125,[0. 0. 0. 0. 0. 0. 0. 0. 0.]
5.264711618423462,-0.035669900476932526,-0.008737367577850819,0.5907748341560364,-0.8060002326965332,[0. 0. 0. 0. 0. 0. 0. 0. 0.],2.86865234375,-5.859375,-2.685546875,[0. 0. 0. 0. 0. 0. 0. 0. 0.],-0.0712890625,0.02001953125,1.041015625,[0. 0. 0. 0. 0. 0. 0. 0. 0.]
5.279358148574829,-0.035906825214624405,-0.008148178458213806,0.5910252332687378,-0.805812418460846,[0. 0. 0. 0. 0. 0. 0. 0. 0.],-1.220703125,-6.103515625,-0.91552734375,[0. 0. 0. 0. 0. 0. 0. 0. 0.],-0.07470703125,0.0869140625,1.02001953125,[0. 0. 0. 0. 0. 0. 0. 0. 0.]
5.305225849151611,-0.035877879709005356,-0.00704897241666913,0.5910406112670898,-0.8058127760887146,[0. 0. 0. 0. 0. 0. 0. 0. 0.],-5.55419921875,1.220703125,-0.30517578125,[0. 0. 0. 0. 0. 0. 0. 0. 0.],-0.009765625,0.08251953125,1.0078125,[0. 0. 0. 0. 0. 0. 0. 0. 0.]
5.32482647895813,-0.03472989425063133,-0.006394767668098211,0.5908083915710449,-0.8060387372970581,[0. 0. 0. 0. 0. 0. 0. 0. 0.],-0.91552734375,3.72314453125,2.13623046875,[0. 0. 0. 0. 0. 0. 0. 0. 0.],-0.03759765625,0.0361328125,1.06298828125,[0. 0. 0. 0. 0. 0. 0. 0. 0.]
5.344508409500122,-0.03398269787430763,-0.005905148107558489,0.5905921459197998,-0.8062328100204468,[0. 0. 0. 0. 0. 0. 0. 0. 0.],6.4697265625,-8.11767578125,1.64794921875,[0. 0. 0. 0. 0. 0. 0. 0. 0.],-0.068359375,0.0166015625,1.06787109375,[0. 0. 0. 0. 0. 0. 0. 0. 0.]
5.364160060882568,-0.032441992312669754,-0.006425268482416868,0.5904660224914551,-0.8063846230506897,[0. 0. 0. 0. 0. 0. 0. 0. 0.],-4.57763671875,1.40380859375,0.732421875,[0. 0. 0. 0. 0. 0. 0. 0. 0.],-0.0068359375,-0.03125,0.90478515625,[0. 0. 0. 0. 0. 0. 0. 0. 0.]
5.3854660987854,-0.030351951718330383,-0.007665724027901888,0.5906904339790344,-0.806290864944458,[0. 0. 0. 0. 0. 0. 0. 0. 0.],-5.0048828125,5.2490234375,-2.197265625,[0. 0. 0. 0. 0. 0. 0. 0. 0.],0.06591796875,-0.13623046875,0.99951171875,[0. 0. 0. 0. 0. 0. 0. 0. 0.]
5.405041933059692,-0.028845496475696564,-0.008647392503917217,0.5911184549331665,-0.8060225248336792,[0. 0. 0. 0. 0. 0. 0. 0. 0.],1.40380859375,1.708984375,-3.41796875,[0. 0. 0. 0. 0. 0. 0. 0. 0.],0.021484375,-0.0771484375,1.0205078125,[0. 0. 0. 0. 0. 0. 0. 0. 0.]
5.424565553665161,-0.02671864628791809,-0.00995355099439621,0.59144526720047,-0.8058409690856934,[0. 0. 0. 0. 0. 0. 0. 0. 0.],-5.79833984375,-7.568359375,-1.0986328125,[0. 0. 0. 0. 0. 0. 0. 0. 0.],-0.08251953125,-0.033203125,0.88525390625,[0. 0. 0. 0. 0. 0. 0. 0. 0.]
5.444590330123901,-0.025504617020487785,-0.01160063873976469,0.5916560292243958,-0.8057035803794861,[0. 0. 0. 0. 0. 0. 0. 0. 0.],-1.89208984375,14.5263671875,-2.3193359375,[0. 0. 0. 0. 0. 0. 0. 0. 0.],0.0576171875,-0.087890625,1.18017578125,[0. 0. 0. 0. 0. 0. 0. 0. 0.]
5.464848518371582,-0.024853747338056564,-0.013016915880143642,0.5916391015052795,-0.8057146072387695,[0. 0. 0. 0. 0. 0. 0. 0. 0.],-1.03759765625,-10.19287109375,-0.244140625,[0. 0. 0. 0. 0. 0. 0. 0. 0.],-0.14501953125,-0.17041015625,0.97998046875,[0. 0. 0. 0. 0. 0. 0. 0. 0.]
5.487193584442139,-0.021603725850582123,-0.013959245756268501,0.5917990803718567,-0.8056750297546387,[0. 0. 0. 0. 0. 0. 0. 0. 0.],-12.8173828125,-8.6669921875,-0.244140625,[0. 0. 0. 0. 0. 0. 0. 0. 0.],-0.1142578125,-0.17333984375,0.84033203125,[0. 0. 0. 0. 0. 0. 0. 0. 0.]
5.504328727722168,-0.017373928800225258,-0.01612412929534912,0.5919945240020752,-0.8055934309959412,[0. 0. 0. 0. 0. 0. 0. 0. 0.],-14.34326171875,-5.37109375,-1.40380859375,[0. 0. 0. 0. 0. 0. 0. 0. 0.],0.01171875,-0.2451171875,0.96533203125,[0. 0. 0. 0. 0. 0. 0. 0. 0.]
5.524264335632324,-0.012804953381419182,-0.015184860676527023,0.591111958026886,-0.8063450455665588,[0. 0. 0. 0. 0. 0. 0. 0. 0.],-5.55419921875,-23.3154296875,13.18359375,[0. 0. 0. 0. 0. 0. 0. 0. 0.],-0.05908203125,-0.306640625,1.02978515625,[0. 0. 0. 0. 0. 0. 0. 0. 0.]
5.54574990272522,-0.008387674577534199,-0.014940252527594566,0.5877605676651001,-0.8088534474372864,[0. 0. 0. 0. 0. 0. 0. 0. 0.],-11.41357421875,-6.8359375,30.57861328125,[0. 0. 0. 0. 0. 0. 0. 0. 0.],0.12060546875,-0.26123046875,1.0166015625,[0. 0. 0. 0. 0. 0. 0. 0. 0.]
5.564485549926758,-0.004990972112864256,-0.01335433404892683,0.5825695395469666,-0.8126558661460876,[0. 0. 0. 0. 0. 0. 0. 0. 0.],2.3193359375,-13.97705078125,43.02978515625,[0. 0. 0. 0. 0. 0. 0. 0. 0.],0.13720703125,-0.26416015625,1.16064453125,[0. 0. 0. 0. 0. 0. 0. 0. 0.]
5.584264039993286,-0.003466931404545903,-0.010584354400634766,0.5758469104766846,-0.8174817562103271,[0. 0. 0. 0. 0. 0. 0. 0. 0.],9.8876953125,-11.53564453125,51.7578125,[0. 0. 0. 0. 0. 0. 0. 0. 0.],0.23974609375,-0.17529296875,1.095703125,[0. 0. 0. 0. 0. 0. 0. 0. 0.]
5.604252338409424,-0.002460714429616928,-0.008449375629425049,0.5673076510429382,-0.8234589099884033,[0. 0. 0. 0. 0. 0. 0. 0. 0.],-0.67138671875,-2.50244140625,65.673828125,[0. 0. 0. 0. 0. 0. 0. 0. 0.],0.23828125,-0.078125,0.86572265625,[0. 0. 0. 0. 0. 0. 0. 0. 0.]
5.624437093734741,-0.0001597176888026297,-0.007398682180792093,0.5568018555641174,-0.8306124806404114,[0. 0. 0. 0. 0. 0. 0. 0. 0.],0.42724609375,-2.685546875,76.7822265625,[0. 0. 0. 0. 0. 0. 0. 0. 0.],0.21044921875,-0.1953125,1.04150390625,[0. 0. 0. 0. 0. 0. 0. 0. 0.]
5.645897150039673,0.002293776022270322,-0.0066559892147779465,0.5445185899734497,-0.8387192487716675,[0. 0. 0. 0. 0. 0. 0. 0. 0.],-7.99560546875,-10.6201171875,87.95166015625,[0. 0. 0. 0. 0. 0. 0. 0. 0.],0.13134765625,-0.21630859375,0.97802734375,[0. 0. 0. 0. 0. 0. 0. 0. 0.]
5.6645941734313965,0.005713642109185457,-0.005372070241719484,0.5308471918106079,-0.8474313616752625,[0. 0. 0. 0. 0. 0. 0. 0. 0.],-2.13623046875,-9.033203125,96.435546875,[0. 0. 0. 0. 0. 0. 0. 0. 0.],0.15087890625,-0.2236328125,0.91162109375,[0. 0. 0. 0. 0. 0. 0. 0. 0.]
5.684987545013428,0.008833392523229122,-0.004097136203199625,0.515245258808136,-0.8569874167442322,[0. 0. 0. 0. 0. 0. 0. 0. 0.],-5.0048828125,-15.13671875,107.0556640625,[0. 0. 0. 0. 0. 0. 0. 0. 0.],0.1533203125,-0.240234375,0.96435546875,[0. 0. 0. 0. 0. 0. 0. 0. 0.]
5.704253673553467,0.01161898486316204,-0.0016295642126351595,0.4982088506221771,-0.8669776320457458,[0. 0. 0. 0. 0. 0. 0. 0. 0.],-0.06103515625,-10.55908203125,114.3798828125,[0. 0. 0. 0. 0. 0. 0. 0. 0.],0.275390625,-0.28955078125,1.115234375,[0. 0. 0. 0. 0. 0. 0. 0. 0.]
5.7197277545928955,0.011511088348925114,-0.0017744505312293768,0.47954675555229187,-0.877439022064209,[0. 0. 0. 0. 0. 0. 0. 0. 0.],7.01904296875,6.591796875,125.0,[0. 0. 0. 0. 0. 0. 0. 0. 0.],0.353515625,-0.24462890625,1.12255859375,[0. 0. 0. 0. 0. 0. 0. 0. 0.]
5.745493650436401,0.0133031802251935,-0.000898280821274966,0.45935916900634766,-0.8881505131721497,[0. 0. 0. 0. 0. 0. 0. 0. 0.],-2.13623046875,-23.193359375,132.99560546875,[0. 0. 0. 0. 0. 0. 0. 0. 0.],0.11962890625,-0.2060546875,0.81396484375,[0. 0. 0. 0. 0. 0. 0. 0. 0.]
5.764317512512207,0.014882205054163933,0.0013257431564852595,0.4378580152988434,-0.8989199995994568,[0. 0. 0. 0. 0. 0. 0. 0. 0.],8.48388671875,-4.638671875,140.44189453125,[0. 0. 0. 0. 0. 0. 0. 0. 0.],0.326171875,-0.2939453125,1.076171875,[0. 0. 0. 0. 0. 0. 0. 0. 0.]
5.784470081329346,0.01692293956875801,0.004335395991802216,0.4149000346660614,-0.9096993803977966,[0. 0. 0. 0. 0. 0. 0. 0. 0.],-2.685546875,-22.52197265625,149.169921875,[0. 0. 0. 0. 0. 0. 0. 0. 0.],0.21484375,-0.19580078125,0.87158203125,[0. 0. 0. 0. 0. 0. 0. 0. 0.]
5.805145025253296,0.020599622279405594,0.006528932135552168,0.3904074728488922,-0.9203885197639465,[0. 0. 0. 0. 0. 0. 0. 0. 0.],-4.7607421875,-10.8642578125,154.78515625,[0. 0. 0. 0. 0. 0. 0. 0. 0.],0.287109375,-0.24560546875,0.92236328125,[0. 0. 0. 0. 0. 0. 0. 0. 0.]
5.824644565582275,0.021750500425696373,0.008496969938278198,0.3648870289325714,-0.9307590126991272,[0. 0. 0. 0. 0. 0. 0. 0. 0.],6.65283203125,7.01904296875,162.2314453125,[0. 0. 0. 0. 0. 0. 0. 0. 0.],0.39892578125,-0.3408203125,1.19091796875,[0. 0. 0. 0. 0. 0. 0. 0. 0.]
5.844422340393066,0.022055985406041145,0.009290042333304882,0.33799269795417786,-0.9408443570137024,[0. 0. 0. 0. 0. 0. 0. 0. 0.],6.2255859375,-11.65771484375,164.61181640625,[0. 0. 0. 0. 0. 0. 0. 0. 0.],0.3330078125,-0.25341796875,0.9462890625,[0. 0. 0. 0. 0. 0. 0. 0. 0.]
5.864670753479004,0.02225589007139206,0.01094593945890665,0.3098788559436798,-0.9504525065422058,[0. 0. 0. 0. 0. 0. 0. 0. 0.],10.1318359375,-3.84521484375,173.27880859375,[0. 0. 0. 0. 0. 0. 0. 0. 0.],0.3701171875,-0.2724609375,1.02490234375,[0. 0. 0. 0. 0. 0. 0. 0. 0.]
5.884648323059082,0.024801678955554962,0.015464331954717636,0.28050652146339417,-0.9594070315361023,[0. 0. 0. 0. 0. 0. 0. 0. 0.],4.94384765625,-35.2783203125,179.26025390625,[0. 0. 0. 0. 0. 0. 0. 0. 0.],0.205078125,-0.224609375,0.7880859375,[0. 0. 0. 0. 0. 0. 0. 0. 0.]
5.9000465869903564,0.02737065963447094,0.01893514022231102,0.24985411763191223,-0.967711329460144,[0. 0. 0. 0. 0. 0. 0. 0. 0.],9.1552734375,-9.8876953125,186.82861328125,[0. 0. 0. 0. 0. 0. 0. 0. 0.],0.39404296875,-0.29638671875,0.99609375,[0. 0. 0. 0. 0. 0. 0. 0. 0.]
5.91935920715332,0.028146106749773026,0.01846972107887268,0.21756766736507416,-0.9754645228385925,[0. 0. 0. 0. 0. 0. 0. 0. 0.],-2.01416015625,9.21630859375,195.25146484375,[0. 0. 0. 0. 0. 0. 0. 0. 0.],0.4365234375,-0.28759765625,1.02001953125,[0. 0. 0. 0. 0. 0. 0. 0. 0.]
5.944957733154297,0.028948111459612846,0.021528305485844612,0.18499623239040375,-0.98207688331604,[0. 0. 0. 0. 0. 0. 0. 0. 0.],13.36669921875,-20.01953125,191.46728515625,[0. 0. 0. 0. 0. 0. 0. 0. 0.],0.37353515625,-0.35791015625,1.0576171875,[0. 0. 0. 0. 0. 0. 0. 0. 0.]
5.959449291229248,0.02926238626241684,0.024004383012652397,0.1516672521829605,-0.9877067804336548,[0. 0. 0. 0. 0. 0. 0. 0. 0.],8.056640625,-22.216796875,194.3359375,[0. 0. 0. 0. 0. 0. 0. 0. 0.],0.3798828125,-0.2861328125,0.921875,[0. 0. 0. 0. 0. 0. 0. 0. 0.]
5.984334468841553,0.03084627538919449,0.02962796576321125,0.11722013354301453,-0.9921845197677612,[0. 0. 0. 0. 0. 0. 0. 0. 0.],4.7607421875,-11.90185546875,202.45361328125,[0. 0. 0. 0. 0. 0. 0. 0. 0.],0.35009765625,-0.24853515625,0.82177734375,[0. 0. 0. 0. 0. 0. 0. 0. 0.]
6.004278659820557,0.032639022916555405,0.02793378010392189,0.08088327944278717,-0.9957972764968872,[0. 0. 0. 0. 0. 0. 0. 0. 0.],4.8828125,2.9296875,207.45849609375,[0. 0. 0. 0. 0. 0. 0. 0. 0.],0.47265625,-0.33056640625,0.97265625,[0. 0. 0. 0. 0. 0. 0. 0. 0.]
6.024255275726318,0.03238376975059509,0.03169159218668938,0.04479536414146423,-0.9979681372642517,[0. 0. 0. 0. 0. 0. 0. 0. 0.],19.22607421875,-32.1044921875,206.54296875,[0. 0. 0. 0. 0. 0. 0. 0. 0.],0.44287109375,-0.42578125,1.15234375,[0. 0. 0. 0. 0. 0. 0. 0. 0.]
6.044302463531494,0.030846040695905685,0.03299809247255325,0.008636342361569405,-0.998941957950592,[0. 0. 0. 0. 0. 0. 0. 0. 0.],15.07568359375,-13.61083984375,209.04541015625,[0. 0. 0. 0. 0. 0. 0. 0. 0.],0.6025390625,-0.22509765625,0.96826171875,[0. 0. 0. 0. 0. 0. 0. 0. 0.]
6.059638500213623,0.031464796513319016,0.03679293394088745,-0.02862546406686306,-0.9984171390533447,[0. 0. 0. 0. 0. 0. 0. 0. 0.],-1.77001953125,-16.90673828125,218.07861328125,[0. 0. 0. 0. 0. 0. 0. 0. 0.],0.3779296875,-0.15283203125,0.6865234375,[0. 0. 0. 0. 0. 0. 0. 0. 0.]
6.084237098693848,0.03299181908369064,0.037737082690000534,-0.06541375815868378,-0.9965984225273132,[0. 0. 0. 0. 0. 0. 0. 0. 0.],14.5263671875,-6.8359375,207.275390625,[0. 0. 0. 0. 0. 0. 0. 0. 0.],0.7001953125,-0.37841796875,1.15625,[0. 0. 0. 0. 0. 0. 0. 0. 0.]
6.104280471801758,0.03281117603182793,0.03845365345478058,-0.10044992715120316,-0.9936571717262268,[0. 0. 0. 0. 0. 0. 0. 0. 0.],14.95361328125,-18.4326171875,199.52392578125,[0. 0. 0. 0. 0. 0. 0. 0. 0.],0.615234375,-0.330078125,1.08935546875,[0. 0. 0. 0. 0. 0. 0. 0. 0.]
6.124135971069336,0.03238341584801674,0.04005665332078934,-0.13471969962120056,-0.9895440936088562,[0. 0. 0. 0. 0. 0. 0. 0. 0.],4.94384765625,4.57763671875,195.9228515625,[0. 0. 0. 0. 0. 0. 0. 0. 0.],0.705078125,-0.26171875,0.98486328125,[0. 0. 0. 0. 0. 0. 0. 0. 0.]
6.144359350204468,0.03268742561340332,0.03973497077822685,-0.16824719309806824,-0.9844011664390564,[0. 0. 0. 0. 0. 0. 0. 0. 0.],-1.5869140625,-2.5634765625,196.59423828125,[0. 0. 0. 0. 0. 0. 0. 0. 0.],0.48583984375,-0.19140625,0.76904296875,[0. 0. 0. 0. 0. 0. 0. 0. 0.]
6.165184020996094,0.03387688472867012,0.044777099043130875,-0.20141136646270752,-0.9778960943222046,[0. 0. 0. 0. 0. 0. 0. 0. 0.],2.50244140625,-32.8369140625,191.162109375,[0. 0. 0. 0. 0. 0. 0. 0. 0.],0.47265625,-0.27978515625,0.82373046875,[0. 0. 0. 0. 0. 0. 0. 0. 0.]
6.184419393539429,0.03455996885895729,0.045925747603178024,-0.23327267169952393,-0.9707112908363342,[0. 0. 0. 0. 0. 0. 0. 0. 0.],4.69970703125,0.18310546875,184.87548828125,[0. 0. 0. 0. 0. 0. 0. 0. 0.],0.83837890625,-0.31494140625,1.1669921875,[0. 0. 0. 0. 0. 0. 0. 0. 0.]
6.206421375274658,0.03440086171030998,0.045907437801361084,-0.27106431126594543,-0.9608502984046936,[0. 0. 0. 0. 0. 0. 0. 0. 0.],4.57763671875,-3.41796875,176.69677734375,[0. 0. 0. 0. 0. 0. 0. 0. 0.],0.685546875,-0.234375,1.0263671875,[0. 0. 0. 0. 0. 0. 0. 0. 0.]
6.224665880203247,0.0340828113257885,0.047151967883110046,-0.292684942483902,-0.954437255859375,[0. 0. 0. 0. 0. 0. 0. 0. 0.],13.48876953125,-12.02392578125,171.32568359375,[0. 0. 0. 0. 0. 0. 0. 0. 0.],0.63818359375,-0.2421875,0.98046875,[0. 0. 0. 0. 0. 0. 0. 0. 0.]
6.239506721496582,0.034157644957304,0.0453711673617363,-0.3210841119289398,-0.9453462958335876,[0. 0. 0. 0. 0. 0. 0. 0. 0.],7.14111328125,6.4697265625,171.69189453125,[0. 0. 0. 0. 0. 0. 0. 0. 0.],0.583984375,-0.19287109375,0.93017578125,[0. 0. 0. 0. 0. 0. 0. 0. 0.]
6.264435052871704,0.03551436588168144,0.04684741422533989,-0.3495963513851166,-0.935054361820221,[0. 0. 0. 0. 0. 0. 0. 0. 0.],-10.31494140625,-9.27734375,173.64501953125,[0. 0. 0. 0. 0. 0. 0. 0. 0.],0.42724609375,-0.15576171875,0.638671875,[0. 0. 0. 0. 0. 0. 0. 0. 0.]
6.2848615646362305,0.037180572748184204,0.048565905541181564,-0.37691831588745117,-0.924224853515625,[0. 0. 0. 0. 0. 0. 0. 0. 0.],0.79345703125,-0.67138671875,163.75732421875,[0. 0. 0. 0. 0. 0. 0. 0. 0.],0.72314453125,-0.2578125,1.05029296875,[0. 0. 0. 0. 0. 0. 0. 0. 0.]
6.300511837005615,0.036972835659980774,0.04811723530292511,-0.4014205038547516,-0.9138814210891724,[0. 0. 0. 0. 0. 0. 0. 0. 0.],12.87841796875,-4.45556640625,145.751953125,[0. 0. 0. 0. 0. 0. 0. 0. 0.],0.765625,-0.26611328125,1.14697265625,[0. 0. 0. 0. 0. 0. 0. 0. 0.]
6.319439649581909,0.03531334176659584,0.04733378440141678,-0.42322754859924316,-0.9040968418121338,[0. 0. 0. 0. 0. 0. 0. 0. 0.],14.16015625,7.01904296875,132.32421875,[0. 0. 0. 0. 0. 0. 0. 0. 0.],0.7236328125,-0.216796875,1.076171875,[0. 0. 0. 0. 0. 0. 0. 0. 0.]
6.340371370315552,0.03390594199299812,0.04670463874936104,-0.44267961382865906,-0.8948206305503845,[0. 0. 0. 0. 0. 0. 0. 0. 0.],12.20703125,-14.6484375,117.3095703125,[0. 0. 0. 0. 0. 0. 0. 0. 0.],0.56689453125,-0.14697265625,0.93017578125,[0. 0. 0. 0. 0. 0. 0. 0. 0.]
6.364159107208252,0.03224971517920494,0.046446073800325394,-0.4586098790168762,-0.8868370056152344,[0. 0. 0. 0. 0. 0. 0. 0. 0.],9.033203125,10.7421875,90.576171875,[0. 0. 0. 0. 0. 0. 0. 0. 0.],0.77392578125,-0.099609375,1.07177734375,[0. 0. 0. 0. 0. 0. 0. 0. 0.]
6.385579824447632,0.03158299997448921,0.045288920402526855,-0.47073134779930115,-0.880547285079956,[0. 0. 0. 0. 0. 0. 0. 0. 0.],5.126953125,-5.9814453125,72.81494140625,[0. 0. 0. 0. 0. 0. 0. 0. 0.],0.5224609375,-0.033203125,0.818359375,[0. 0. 0. 0. 0. 0. 0. 0. 0.]
6.404357194900513,0.030896726995706558,0.04762561246752739,-0.48037728667259216,-0.8752227425575256,[0. 0. 0. 0. 0. 0. 0. 0. 0.],-0.6103515625,-18.24951171875,57.12890625,[0. 0. 0. 0. 0. 0. 0. 0. 0.],0.4990234375,-0.07275390625,0.80859375,[0. 0. 0. 0. 0. 0. 0. 0. 0.]
6.424311876296997,0.027620702981948853,0.05071594566106796,-0.48689743876457214,-0.8715479373931885,[0. 0. 0. 0. 0. 0. 0. 0. 0.],10.8642578125,-3.72314453125,35.09521484375,[0. 0. 0. 0. 0. 0. 0. 0. 0.],0.73486328125,-0.10205078125,1.1318359375,[0. 0. 0. 0. 0. 0. 0. 0. 0.]
6.444377183914185,0.02638937160372734,0.04881767928600311,-0.4908091127872467,-0.8694980144500732,[0. 0. 0. 0. 0. 0. 0. 0. 0.],12.87841796875,8.056640625,20.08056640625,[0. 0. 0. 0. 0. 0. 0. 0. 0.],0.73046875,-0.03173828125,1.083984375,[0. 0. 0. 0. 0. 0. 0. 0. 0.]
6.464541912078857,0.024694200605154037,0.05048711970448494,-0.49238041043281555,-0.8685636520385742,[0. 0. 0. 0. 0. 0. 0. 0. 0.],-1.46484375,-13.0615234375,4.08935546875,[0. 0. 0. 0. 0. 0. 0. 0. 0.],0.53662109375,0.0234375,0.8974609375,[0. 0. 0. 0. 0. 0. 0. 0. 0.]
6.484212160110474,0.022902101278305054,0.0509418286383152,-0.4911177158355713,-0.8693007826805115,[0. 0. 0. 0. 0. 0. 0. 0. 0.],12.26806640625,9.82666015625,-15.2587890625,[0. 0. 0. 0. 0. 0. 0. 0. 0.],0.6650390625,-0.0078125,1.0380859375,[0. 0. 0. 0. 0. 0. 0. 0. 0.]
6.5058276653289795,0.020020266994833946,0.050566330552101135,-0.48601219058036804,-0.8722582459449768,[0. 0. 0. 0. 0. 0. 0. 0. 0.],3.72314453125,-7.38525390625,-35.09521484375,[0. 0. 0. 0. 0. 0. 0. 0. 0.],0.443359375,0.08642578125,0.8271484375,[0. 0. 0. 0. 0. 0. 0. 0. 0.]
6.525319337844849,0.018693769350647926,0.05185316503047943,-0.4809560179710388,-0.8750104308128357,[0. 0. 0. 0. 0. 0. 0. 0. 0.],-3.7841796875,0.3662109375,-49.31640625,[0. 0. 0. 0. 0. 0. 0. 0. 0.],0.490234375,0.12744140625,0.83447265625,[0. 0. 0. 0. 0. 0. 0. 0. 0.]
6.544908046722412,0.018411632627248764,0.05063740909099579,-0.4701457917690277,-0.8809426426887512,[0. 0. 0. 0. 0. 0. 0. 0. 0.],0.79345703125,21.240234375,-80.6884765625,[0. 0. 0. 0. 0. 0. 0. 0. 0.],0.64599609375,0.10400390625,1.0947265625,[0. 0. 0. 0. 0. 0. 0. 0. 0.]
6.564230918884277,0.018420744687318802,0.049101196229457855,-0.45572537183761597,-0.8885742425918579,[0. 0. 0. 0. 0. 0. 0. 0. 0.],-2.3193359375,17.9443359375,-98.7548828125,[0. 0. 0. 0. 0. 0. 0. 0. 0.],0.36083984375,0.1171875,0.92822265625,[0. 0. 0. 0. 0. 0. 0. 0. 0.]
6.58426833152771,0.017838692292571068,0.0462360754609108,-0.4393641948699951,-0.8969409465789795,[0. 0. 0. 0. 0. 0. 0. 0. 0.],-0.30517578125,20.6298828125,-105.3466796875,[0. 0. 0. 0. 0. 0. 0. 0. 0.],0.0556640625,0.25390625,0.9931640625,[0. 0. 0. 0. 0. 0. 0. 0. 0.]
6.600093603134155,0.015755126252770424,0.04230430722236633,-0.42229554057121277,-0.9053335189819336,[0. 0. 0. 0. 0. 0. 0. 0. 0.],16.7236328125,13.85498046875,-109.4970703125,[0. 0. 0. 0. 0. 0. 0. 0. 0.],-0.15087890625,0.275390625,1.134765625,[0. 0. 0. 0. 0. 0. 0. 0. 0.]
6.6249401569366455,0.01365897711366415,0.03763939067721367,-0.4054265320301056,-0.9132502675056458,[0. 0. 0. 0. 0. 0. 0. 0. 0.],8.23974609375,15.93017578125,-105.712890625,[0. 0. 0. 0. 0. 0. 0. 0. 0.],-0.17578125,0.3193359375,1.0068359375,[0. 0. 0. 0. 0. 0. 0. 0. 0.]
6.645572662353516,0.013169903308153152,0.03397641330957413,-0.38870570063591003,-0.9206411838531494,[0. 0. 0. 0. 0. 0. 0. 0. 0.],-0.06103515625,17.02880859375,-104.1259765625,[0. 0. 0. 0. 0. 0. 0. 0. 0.],-0.20068359375,0.38427734375,0.9951171875,[0. 0. 0. 0. 0. 0. 0. 0. 0.]
6.6645355224609375,0.012438207864761353,0.030357377603650093,-0.3717910945415497,-0.9277365207672119,[0. 0. 0. 0. 0. 0. 0. 0. 0.],6.8359375,9.70458984375,-104.4921875,[0. 0. 0. 0. 0. 0. 0. 0. 0.],-0.23876953125,0.326171875,1.0517578125,[0. 0. 0. 0. 0. 0. 0. 0. 0.]
6.688410997390747,0.009978621266782284,0.02911403216421604,-0.35478031635284424,-0.9344430565834045,[0. 0. 0. 0. 0. 0. 0. 0. 0.],6.89697265625,-1.40380859375,-104.736328125,[0. 0. 0. 0. 0. 0. 0. 0. 0.],-0.26123046875,0.33544921875,1.00927734375,[0. 0. 0. 0. 0. 0. 0. 0. 0.]
6.705533742904663,0.008112258277833462,0.02759065292775631,-0.3376733362674713,-0.940824031829834,[0. 0. 0. 0. 0. 0. 0. 0. 0.],2.74658203125,4.21142578125,-103.02734375,[0. 0. 0. 0. 0. 0. 0. 0. 0.],-0.1533203125,0.33056640625,0.91796875,[0. 0. 0. 0. 0. 0. 0. 0. 0.]
6.724305629730225,0.006473750341683626,0.02576286718249321,-0.32074493169784546,-0.9467931389808655,[0. 0. 0. 0. 0. 0. 0. 0. 0.],1.8310546875,1.64794921875,-102.9052734375,[0. 0. 0. 0. 0. 0. 0. 0. 0.],-0.162109375,0.3193359375,0.9853515625,[0. 0. 0. 0. 0. 0. 0. 0. 0.]
6.744422674179077,0.005223412998020649,0.024292295798659325,-0.3040260076522827,-0.9523396492004395,[0. 0. 0. 0. 0. 0. 0. 0. 0.],2.44140625,2.44140625,-98.7548828125,[0. 0. 0. 0. 0. 0. 0. 0. 0.],-0.22412109375,0.35302734375,1.0234375,[0. 0. 0. 0. 0. 0. 0. 0. 0.]
6.766010046005249,0.0033194045536220074,0.02345879375934601,-0.2876277267932892,-0.9574492573738098,[0. 0. 0. 0. 0. 0. 0. 0. 0.],0.9765625,1.52587890625,-95.8251953125,[0. 0. 0. 0. 0. 0. 0. 0. 0.],-0.20947265625,0.33935546875,1.0390625,[0. 0. 0. 0. 0. 0. 0. 0. 0.]
6.784311532974243,0.001927582430653274,0.022228863090276718,-0.2717318534851074,-0.9621143937110901,[0. 0. 0. 0. 0. 0. 0. 0. 0.],2.50244140625,0.91552734375,-93.56689453125,[0. 0. 0. 0. 0. 0. 0. 0. 0.],-0.1728515625,0.32763671875,1.01416015625,[0. 0. 0. 0. 0. 0. 0. 0. 0.]
6.804319620132446,0.0009842818835750222,0.020834486931562424,-0.2567223608493805,-0.9662601351737976,[0. 0. 0. 0. 0. 0. 0. 0. 0.],-0.3662109375,0.54931640625,-87.95166015625,[0. 0. 0. 0. 0. 0. 0. 0. 0.],-0.20849609375,0.33544921875,1.00146484375,[0. 0. 0. 0. 0. 0. 0. 0. 0.]
6.824270486831665,-9.489951480645686e-05,0.019433721899986267,-0.24250787496566772,-0.969954788684845,[0. 0. 0. 0. 0. 0. 0. 0. 0.],2.3193359375,3.72314453125,-81.23779296875,[0. 0. 0. 0. 0. 0. 0. 0. 0.],-0.21337890625,0.31396484375,1.03076171875,[0. 0. 0. 0. 0. 0. 0. 0. 0.]
6.84467339515686,-0.0025317578110843897,0.017799314111471176,-0.2295088917016983,-0.9731405377388,[0. 0. 0. 0. 0. 0. 0. 0. 0.],8.97216796875,-0.6103515625,-73.91357421875,[0. 0. 0. 0. 0. 0. 0. 0. 0.],-0.21923828125,0.28466796875,1.0205078125,[0. 0. 0. 0. 0. 0. 0. 0. 0.]
6.864190578460693,-0.004168235696852207,0.016930824145674706,-0.21759465336799622,-0.9758834838867188,[0. 0. 0. 0. 0. 0. 0. 0. 0.],-1.03759765625,0.06103515625,-68.66455078125,[0. 0. 0. 0. 0. 0. 0. 0. 0.],-0.19482421875,0.3515625,0.9208984375,[0. 0. 0. 0. 0. 0. 0. 0. 0.]
6.884485483169556,-0.004609004128724337,0.015634622424840927,-0.2063763588666916,-0.9783368706703186,[0. 0. 0. 0. 0. 0. 0. 0. 0.],-5.4931640625,1.46484375,-63.4765625,[0. 0. 0. 0. 0. 0. 0. 0. 0.],-0.1806640625,0.369140625,1.0224609375,[0. 0. 0. 0. 0. 0. 0. 0. 0.]
6.904349088668823,-0.005282892845571041,0.014703485183417797,-0.19610831141471863,-0.9804577827453613,[0. 0. 0. 0. 0. 0. 0. 0. 0.],-0.1220703125,-0.6103515625,-57.12890625,[0. 0. 0. 0. 0. 0. 0. 0. 0.],-0.1796875,0.310546875,1.05615234375,[0. 0. 0. 0. 0. 0. 0. 0. 0.]
6.924408674240112,-0.007089171092957258,0.01397666148841381,-0.18694347143173218,-0.9822457432746887,[0. 0. 0. 0. 0. 0. 0. 0. 0.],5.06591796875,-2.8076171875,-50.537109375,[0. 0. 0. 0. 0. 0. 0. 0. 0.],-0.138671875,0.27294921875,0.97412109375,[0. 0. 0. 0. 0. 0. 0. 0. 0.]
6.9442298412323,-0.009006199426949024,0.013395288027822971,-0.17921486496925354,-0.9836775660514832,[0. 0. 0. 0. 0. 0. 0. 0. 0.],2.5634765625,-3.72314453125,-42.17529296875,[0. 0. 0. 0. 0. 0. 0. 0. 0.],-0.10400390625,0.30615234375,0.98046875,[0. 0. 0. 0. 0. 0. 0. 0. 0.]
6.965193510055542,-0.010522246360778809,0.01273144967854023,-0.17300741374492645,-0.9847820997238159,[0. 0. 0. 0. 0. 0. 0. 0. 0.],0.1220703125,-4.638671875,-32.04345703125,[0. 0. 0. 0. 0. 0. 0. 0. 0.],-0.076171875,0.3134765625,1.0576171875,[0. 0. 0. 0. 0. 0. 0. 0. 0.]
6.984774351119995,-0.011942369863390923,0.012839452363550663,-0.16857436299324036,-0.9855329990386963,[0. 0. 0. 0. 0. 0. 0. 0. 0.],-0.06103515625,-2.99072265625,-22.0947265625,[0. 0. 0. 0. 0. 0. 0. 0. 0.],-0.0361328125,0.3037109375,1.04638671875,[0. 0. 0. 0. 0. 0. 0. 0. 0.]
7.004284143447876,-0.013414258137345314,0.012734856456518173,-0.1656644642353058,-0.9860087633132935,[0. 0. 0. 0. 0. 0. 0. 0. 0.],-0.06103515625,-1.28173828125,-12.6953125,[0. 0. 0. 0. 0. 0. 0. 0. 0.],-0.01123046875,0.29052734375,0.98876953125,[0. 0. 0. 0. 0. 0. 0. 0. 0.]
7.024260997772217,-0.015160118229687214,0.012561758980154991,-0.16425247490406036,-0.9862218499183655,[0. 0. 0. 0. 0. 0. 0. 0. 0.],1.40380859375,-3.11279296875,-5.859375,[0. 0. 0. 0. 0. 0. 0. 0. 0.],-0.0263671875,0.28955078125,0.96142578125,[0. 0. 0. 0. 0. 0. 0. 0. 0.]
7.046186685562134,-0.016871578991413116,0.011915124952793121,-0.16370254755020142,-0.9862934350967407,[0. 0. 0. 0. 0. 0. 0. 0. 0.],1.52587890625,0.79345703125,-2.50244140625,[0. 0. 0. 0. 0. 0. 0. 0. 0.],0.01025390625,0.2978515625,1.0087890625,[0. 0. 0. 0. 0. 0. 0. 0. 0.]
7.065443277359009,-0.017919501289725304,0.011394740082323551,-0.16337426006793976,-0.9863356351852417,[0. 0. 0. 0. 0. 0. 0. 0. 0.],-7.01904296875,3.0517578125,-1.8310546875,[0. 0. 0. 0. 0. 0. 0. 0. 0.],-0.00732421875,0.21240234375,0.96630859375,[0. 0. 0. 0. 0. 0. 0. 0. 0.]
7.084626197814941,-0.017799369990825653,0.009745062328875065,-0.16280698776245117,-0.9864493012428284,[0. 0. 0. 0. 0. 0. 0. 0. 0.],-3.173828125,2.9296875,-4.08935546875,[0. 0. 0. 0. 0. 0. 0. 0. 0.],-0.0283203125,0.06494140625,1.02197265625,[0. 0. 0. 0. 0. 0. 0. 0. 0.]
7.107486248016357,-0.01731106825172901,0.006911506410688162,-0.16225869953632355,-0.9865722060203552,[0. 0. 0. 0. 0. 0. 0. 0. 0.],-3.47900390625,1.46484375,-2.01416015625,[0. 0. 0. 0. 0. 0. 0. 0. 0.],-0.0830078125,0.0322265625,1.01025390625,[0. 0. 0. 0. 0. 0. 0. 0. 0.]
7.124717950820923,-0.015349633991718292,0.005979009438306093,-0.16219180822372437,-0.9866217374801636,[0. 0. 0. 0. 0. 0. 0. 0. 0.],-8.4228515625,-0.48828125,-0.30517578125,[0. 0. 0. 0. 0. 0. 0. 0. 0.],-0.0966796875,-0.08544921875,0.92138671875,[0. 0. 0. 0. 0. 0. 0. 0. 0.]
7.144369125366211,-0.012110963463783264,0.005760058294981718,-0.16192278265953064,-0.9867123365402222,[0. 0. 0. 0. 0. 0. 0. 0. 0.],-9.521484375,-0.244140625,-1.52587890625,[0. 0. 0. 0. 0. 0. 0. 0. 0.],-0.0439453125,-0.123046875,1.0166015625,[0. 0. 0. 0. 0. 0. 0. 0. 0.]
7.1662702560424805,-0.007682332303375006,0.005553777329623699,-0.1618073731660843,-0.9867768883705139,[0. 0. 0. 0. 0. 0. 0. 0. 0.],-10.6201171875,0.79345703125,0.18310546875,[0. 0. 0. 0. 0. 0. 0. 0. 0.],-0.06640625,-0.19482421875,0.99755859375,[0. 0. 0. 0. 0. 0. 0. 0. 0.]
7.18470025062561,-0.005573282949626446,0.005597697105258703,-0.16193968057632446,-0.9867690801620483,[0. 0. 0. 0. 0. 0. 0. 0. 0.],-6.103515625,-5.2490234375,0.06103515625,[0. 0. 0. 0. 0. 0. 0. 0. 0.],-0.08251953125,-0.1845703125,1.037109375,[0. 0. 0. 0. 0. 0. 0. 0. 0.]
7.204529523849487,-0.0036071641370654106,0.0061918287537992,-0.16201138496398926,-0.9867629408836365,[0. 0. 0. 0. 0. 0. 0. 0. 0.],-5.7373046875,-2.9296875,0.732421875,[0. 0. 0. 0. 0. 0. 0. 0. 0.],-0.03369140625,-0.134765625,1.0078125,[0. 0. 0. 0. 0. 0. 0. 0. 0.]
7.225215673446655,0.00018202072533313185,0.006391504313796759,-0.16213159263134003,-0.9867483973503113,[0. 0. 0. 0. 0. 0. 0. 0. 0.],-12.5732421875,-0.79345703125,0.18310546875,[0. 0. 0. 0. 0. 0. 0. 0. 0.],-0.01513671875,-0.26611328125,0.92041015625,[0. 0. 0. 0. 0. 0. 0. 0. 0.]
7.244216680526733,0.0033153039403259754,0.006979051977396011,-0.16193129122257233,-0.986771821975708,[0. 0. 0. 0. 0. 0. 0. 0. 0.],-6.89697265625,-6.103515625,-2.62451171875,[0. 0. 0. 0. 0. 0. 0. 0. 0.],-0.02880859375,-0.34033203125,1.04638671875,[0. 0. 0. 0. 0. 0. 0. 0. 0.]
7.2703986167907715,0.005620084702968597,0.007746560964733362,-0.16174407303333282,-0.9867863059043884,[0. 0. 0. 0. 0. 0. 0. 0. 0.],-5.31005859375,-6.591796875,-3.90625,[0. 0. 0. 0. 0. 0. 0. 0. 0.],-0.02001953125,-0.30810546875,1.0361328125,[0. 0. 0. 0. 0. 0. 0. 0. 0.]
7.279306650161743,0.00804841797798872,0.008503739722073078,-0.1614285111427307,-0.9868149161338806,[0. 0. 0. 0. 0. 0. 0. 0. 0.],-3.5400390625,-6.8359375,-2.13623046875,[0. 0. 0. 0. 0. 0. 0. 0. 0.],-0.05126953125,-0.28515625,0.92529296875,[0. 0. 0. 0. 0. 0. 0. 0. 0.]
7.301004648208618,0.010466319508850574,0.010086975060403347,-0.1607484668493271,-0.9868883490562439,[0. 0. 0. 0. 0. 0. 0. 0. 0.],-7.8125,-1.89208984375,-2.0751953125,[0. 0. 0. 0. 0. 0. 0. 0. 0.],-0.03515625,-0.3134765625,0.9892578125,[0. 0. 0. 0. 0. 0. 0. 0. 0.]
7.324310064315796,0.012967385351657867,0.011249586939811707,-0.15998339653015137,-0.9869704246520996,[0. 0. 0. 0. 0. 0. 0. 0. 0.],-4.8828125,-3.72314453125,-3.7841796875,[0. 0. 0. 0. 0. 0. 0. 0. 0.],-0.0107421875,-0.29931640625,0.96826171875,[0. 0. 0. 0. 0. 0. 0. 0. 0.]
7.346018552780151,0.01532133761793375,0.013181943446397781,-0.1589694321155548,-0.9870766401290894,[0. 0. 0. 0. 0. 0. 0. 0. 0.],-1.28173828125,-4.7607421875,-3.60107421875,[0. 0. 0. 0. 0. 0. 0. 0. 0.],-0.03173828125,-0.35009765625,1.06982421875,[0. 0. 0. 0. 0. 0. 0. 0. 0.]
7.364904403686523,0.016447385773062706,0.013426970690488815,-0.1584480106830597,-0.9871390461921692,[0. 0. 0. 0. 0. 0. 0. 0. 0.],0.18310546875,-1.0986328125,-6.103515625,[0. 0. 0. 0. 0. 0. 0. 0. 0.],0.01123046875,-0.32421875,1.04150390625,[0. 0. 0. 0. 0. 0. 0. 0. 0.]
7.388301134109497,0.019031740725040436,0.011047779582440853,-0.1580493450164795,-0.9871859550476074,[0. 0. 0. 0. 0. 0. 0. 0. 0.],-3.7841796875,23.3154296875,-1.0986328125,[0. 0. 0. 0. 0. 0. 0. 0. 0.],0.029296875,-0.27197265625,0.90771484375,[0. 0. 0. 0. 0. 0. 0. 0. 0.]
7.404240131378174,0.02150929532945156,0.009376810863614082,-0.15769074857234955,-0.9872097373008728,[0. 0. 0. 0. 0. 0. 0. 0. 0.],-4.08935546875,-9.46044921875,-3.84521484375,[0. 0. 0. 0. 0. 0. 0. 0. 0.],-0.10546875,-0.30126953125,0.96728515625,[0. 0. 0. 0. 0. 0. 0. 0. 0.]
7.424274206161499,0.023157648742198944,0.011235332116484642,-0.1572044938802719,-0.9872305989265442,[0. 0. 0. 0. 0. 0. 0. 0. 0.],-3.173828125,-9.46044921875,-3.23486328125,[0. 0. 0. 0. 0. 0. 0. 0. 0.],-0.0791015625,-0.328125,1.05859375,[0. 0. 0. 0. 0. 0. 0. 0. 0.]
7.444399356842041,0.025096334517002106,0.010814523324370384,-0.15641026198863983,-0.9873141050338745,[0. 0. 0. 0. 0. 0. 0. 0. 0.],-1.52587890625,8.36181640625,-5.79833984375,[0. 0. 0. 0. 0. 0. 0. 0. 0.],0.046875,-0.31494140625,1.103515625,[0. 0. 0. 0. 0. 0. 0. 0. 0.]
7.464258193969727,0.026741210371255875,0.010732551105320454,-0.1554259955883026,-0.9874272346496582,[0. 0. 0. 0. 0. 0. 0. 0. 0.],0.30517578125,-8.23974609375,-6.103515625,[0. 0. 0. 0. 0. 0. 0. 0. 0.],-0.10400390625,-0.27685546875,0.8876953125,[0. 0. 0. 0. 0. 0. 0. 0. 0.]
7.484291315078735,0.0275522843003273,0.012148311361670494,-0.1546013206243515,-0.9875180125236511,[0. 0. 0. 0. 0. 0. 0. 0. 0.],1.15966796875,-3.5400390625,-3.84521484375,[0. 0. 0. 0. 0. 0. 0. 0. 0.],-0.0791015625,-0.2421875,0.919921875,[0. 0. 0. 0. 0. 0. 0. 0. 0.]
7.501636028289795,0.029870523139834404,0.011998826637864113,-0.15370596945285797,-0.9875921010971069,[0. 0. 0. 0. 0. 0. 0. 0. 0.],-2.0751953125,2.62451171875,-5.37109375,[0. 0. 0. 0. 0. 0. 0. 0. 0.],0.01123046875,-0.150390625,0.9755859375,[0. 0. 0. 0. 0. 0. 0. 0. 0.]
7.5241858959198,0.030591407790780067,0.010591616854071617,-0.15328948199748993,-0.9876509308815002,[0. 0. 0. 0. 0. 0. 0. 0. 0.],7.9345703125,-1.64794921875,-0.91552734375,[0. 0. 0. 0. 0. 0. 0. 0. 0.],-0.10400390625,-0.12255859375,1.12548828125,[0. 0. 0. 0. 0. 0. 0. 0. 0.]
7.544959783554077,0.029256371781229973,0.00935448333621025,-0.15291543304920197,-0.9877618551254272,[0. 0. 0. 0. 0. 0. 0. 0. 0.],7.8125,-2.01416015625,-3.90625,[0. 0. 0. 0. 0. 0. 0. 0. 0.],-0.01904296875,-0.05126953125,1.08056640625,[0. 0. 0. 0. 0. 0. 0. 0. 0.]
7.564098834991455,0.026984913274645805,0.008664843626320362,-0.15204113721847534,-0.9879677891731262,[0. 0. 0. 0. 0. 0. 0. 0. 0.],4.94384765625,-5.55419921875,-6.7138671875,[0. 0. 0. 0. 0. 0. 0. 0. 0.],-0.01611328125,-0.021484375,0.943359375,[0. 0. 0. 0. 0. 0. 0. 0. 0.]
7.58463454246521,0.024521565064787865,0.008024889975786209,-0.15078780055046082,-0.9882294535636902,[0. 0. 0. 0. 0. 0. 0. 0. 0.],5.2490234375,4.5166015625,-7.8125,[0. 0. 0. 0. 0. 0. 0. 0. 0.],0.04150390625,0.06494140625,0.9638671875,[0. 0. 0. 0. 0. 0. 0. 0. 0.]
7.59981632232666,0.022118348628282547,0.00751360971480608,-0.14940370619297028,-0.9885004162788391,[0. 0. 0. 0. 0. 0. 0. 0. 0.],1.220703125,-0.732421875,-5.55419921875,[0. 0. 0. 0. 0. 0. 0. 0. 0.],-0.01171875,0.0908203125,0.97705078125,[0. 0. 0. 0. 0. 0. 0. 0. 0.]
7.624298572540283,0.019119905307888985,0.009071655571460724,-0.14998330175876617,-0.9884620308876038,[0. 0. 0. 0. 0. 0. 0. 0. 0.],7.8125,-18.06640625,7.99560546875,[0. 0. 0. 0. 0. 0. 0. 0. 0.],-0.0341796875,0.06591796875,1.04833984375,[0. 0. 0. 0. 0. 0. 0. 0. 0.]
7.645589113235474,0.01450915914028883,0.009845552034676075,-0.15429726243019104,-0.9878689050674438,[0. 0. 0. 0. 0. 0. 0. 0. 0.],15.869140625,0.9765625,26.3671875,[0. 0. 0. 0. 0. 0. 0. 0. 0.],0.11474609375,0.13232421875,1.10400390625,[0. 0. 0. 0. 0. 0. 0. 0. 0.]
7.665425062179565,0.01129527110606432,0.010595714673399925,-0.15864932537078857,-0.9872135519981384,[0. 0. 0. 0. 0. 0. 0. 0. 0.],11.04736328125,-9.521484375,39.55078125,[0. 0. 0. 0. 0. 0. 0. 0. 0.],0.0,0.20458984375,1.017578125,[0. 0. 0. 0. 0. 0. 0. 0. 0.]
7.684375286102295,0.008468701504170895,0.012505197897553444,-0.1667814999818802,-0.9858782291412354,[0. 0. 0. 0. 0. 0. 0. 0. 0.],1.28173828125,-16.17431640625,49.9267578125,[0. 0. 0. 0. 0. 0. 0. 0. 0.],0.0361328125,0.154296875,0.94384765625,[0. 0. 0. 0. 0. 0. 0. 0. 0.]
7.699719190597534,0.006605335511267185,0.014510429464280605,-0.1773029863834381,-0.9840272068977356,[0. 0. 0. 0. 0. 0. 0. 0. 0.],2.5634765625,-14.09912109375,66.5283203125,[0. 0. 0. 0. 0. 0. 0. 0. 0.],0.0693359375,0.15576171875,0.921875,[0. 0. 0. 0. 0. 0. 0. 0. 0.]
7.724371910095215,0.0037886123172938824,0.01631472259759903,-0.19008615612983704,-0.9816244840621948,[0. 0. 0. 0. 0. 0. 0. 0. 0.],4.39453125,-10.3759765625,78.2470703125,[0. 0. 0. 0. 0. 0. 0. 0. 0.],0.0810546875,0.12646484375,0.98046875,[0. 0. 0. 0. 0. 0. 0. 0. 0.]
7.744249582290649,0.0024488698691129684,0.018376553431153297,-0.20390357077121735,-0.9788153767585754,[0. 0. 0. 0. 0. 0. 0. 0. 0.],-6.28662109375,-3.0517578125,81.35986328125,[0. 0. 0. 0. 0. 0. 0. 0. 0.],0.18798828125,0.17919921875,0.9345703125,[0. 0. 0. 0. 0. 0. 0. 0. 0.]
7.764675617218018,0.0019863524939864874,0.02008744515478611,-0.21754679083824158,-0.975841224193573,[0. 0. 0. 0. 0. 0. 0. 0. 0.],-2.50244140625,-2.44140625,79.65087890625,[0. 0. 0. 0. 0. 0. 0. 0. 0.],0.2607421875,0.1396484375,1.07666015625,[0. 0. 0. 0. 0. 0. 0. 0. 0.]
7.785254240036011,-3.9549315260956064e-05,0.02085729129612446,-0.2339654117822647,-0.972021222114563,[0. 0. 0. 0. 0. 0. 0. 0. 0.],11.65771484375,-1.0986328125,76.2939453125,[0. 0. 0. 0. 0. 0. 0. 0. 0.],0.19384765625,0.08349609375,1.13623046875,[0. 0. 0. 0. 0. 0. 0. 0. 0.]
7.80705189704895,-0.0023815780878067017,0.021947208791971207,-0.24355316162109375,-0.9696363210678101,[0. 0. 0. 0. 0. 0. 0. 0. 0.],7.01904296875,-9.21630859375,74.951171875,[0. 0. 0. 0. 0. 0. 0. 0. 0.],0.0908203125,0.119140625,0.93701171875,[0. 0. 0. 0. 0. 0. 0. 0. 0.]
7.824699401855469,-0.0038392129354178905,0.022837389260530472,-0.25612446665763855,-0.9663664102554321,[0. 0. 0. 0. 0. 0. 0. 0. 0.],-1.03759765625,-2.13623046875,73.91357421875,[0. 0. 0. 0. 0. 0. 0. 0. 0.],0.1669921875,0.15673828125,0.95947265625,[0. 0. 0. 0. 0. 0. 0. 0. 0.]
7.845874786376953,-0.004973656497895718,0.023792559280991554,-0.26856717467308044,-0.9629542827606201,[0. 0. 0. 0. 0. 0. 0. 0. 0.],0.30517578125,1.52587890625,73.6083984375,[0. 0. 0. 0. 0. 0. 0. 0. 0.],0.19140625,0.10986328125,1.03515625,[0. 0. 0. 0. 0. 0. 0. 0. 0.]
7.864169597625732,-0.006697498727589846,0.02492508292198181,-0.2806927263736725,-0.9594506621360779,[0. 0. 0. 0. 0. 0. 0. 0. 0.],3.41796875,-1.89208984375,71.47216796875,[0. 0. 0. 0. 0. 0. 0. 0. 0.],0.16162109375,0.10498046875,0.9638671875,[0. 0. 0. 0. 0. 0. 0. 0. 0.]
7.884481430053711,-0.007611133623868227,0.02601652406156063,-0.292570024728775,-0.9558598399162292,[0. 0. 0. 0. 0. 0. 0. 0. 0.],-6.7138671875,0.06103515625,70.86181640625,[0. 0. 0. 0. 0. 0. 0. 0. 0.],0.1494140625,0.14208984375,0.896484375,[0. 0. 0. 0. 0. 0. 0. 0. 0.]
7.905729293823242,-0.008828582242131233,0.026789436116814613,-0.30693766474723816,-0.9513115882873535,[0. 0. 0. 0. 0. 0. 0. 0. 0.],7.32421875,-3.0517578125,67.07763671875,[0. 0. 0. 0. 0. 0. 0. 0. 0.],0.15771484375,0.07958984375,1.1650390625,[0. 0. 0. 0. 0. 0. 0. 0. 0.]
7.9205310344696045,-0.010360578075051308,0.02693221904337406,-0.31521493196487427,-0.9485815167427063,[0. 0. 0. 0. 0. 0. 0. 0. 0.],3.0517578125,3.41796875,68.359375,[0. 0. 0. 0. 0. 0. 0. 0. 0.],0.1142578125,0.11376953125,1.0546875,[0. 0. 0. 0. 0. 0. 0. 0. 0.]
7.944685459136963,-0.011728761717677116,0.026927459985017776,-0.32666152715682983,-0.9446849822998047,[0. 0. 0. 0. 0. 0. 0. 0. 0.],1.77001953125,-7.14111328125,69.7021484375,[0. 0. 0. 0. 0. 0. 0. 0. 0.],0.03173828125,0.103515625,0.89794921875,[0. 0. 0. 0. 0. 0. 0. 0. 0.]
7.9643096923828125,-0.013690570369362831,0.027386698871850967,-0.33811384439468384,-0.9406070113182068,[0. 0. 0. 0. 0. 0. 0. 0. 0.],0.3662109375,-8.30078125,69.3359375,[0. 0. 0. 0. 0. 0. 0. 0. 0.],0.04638671875,0.09326171875,0.9296875,[0. 0. 0. 0. 0. 0. 0. 0. 0.]
7.984740257263184,-0.014598509296774864,0.028763191774487495,-0.34930679202079773,-0.9364531636238098,[0. 0. 0. 0. 0. 0. 0. 0. 0.],-5.55419921875,-5.55419921875,69.2138671875,[0. 0. 0. 0. 0. 0. 0. 0. 0.],0.12548828125,0.1142578125,1.00634765625,[0. 0. 0. 0. 0. 0. 0. 0. 0.]
8.00100827217102,-0.015569599345326424,0.030272306874394417,-0.3605307638645172,-0.932125985622406,[0. 0. 0. 0. 0. 0. 0. 0. 0.],-4.150390625,-0.79345703125,69.82421875,[0. 0. 0. 0. 0. 0. 0. 0. 0.],0.13916015625,0.080078125,1.10595703125,[0. 0. 0. 0. 0. 0. 0. 0. 0.]
8.024433374404907,-0.01675841398537159,0.031509462743997574,-0.3718523383140564,-0.9276056289672852,[0. 0. 0. 0. 0. 0. 0. 0. 0.],2.74658203125,-2.0751953125,69.4580078125,[0. 0. 0. 0. 0. 0. 0. 0. 0.],0.146484375,0.04296875,1.0341796875,[0. 0. 0. 0. 0. 0. 0. 0. 0.]
8.045886754989624,-0.018741590902209282,0.0329219214618206,-0.38273054361343384,-0.9230830073356628,[0. 0. 0. 0. 0. 0. 0. 0. 0.],3.41796875,-17.08984375,65.61279296875,[0. 0. 0. 0. 0. 0. 0. 0. 0.],0.07470703125,0.08984375,0.9873046875,[0. 0. 0. 0. 0. 0. 0. 0. 0.]
8.064537525177002,-0.02006732113659382,0.03600567206740379,-0.39282891154289246,-0.9186873435974121,[0. 0. 0. 0. 0. 0. 0. 0. 0.],-11.29150390625,-9.3994140625,61.4013671875,[0. 0. 0. 0. 0. 0. 0. 0. 0.],0.140625,0.10107421875,1.01025390625,[0. 0. 0. 0. 0. 0. 0. 0. 0.]
8.085779666900635,-0.020055308938026428,0.03716413304209709,-0.4023191034793854,-0.914525032043457,[0. 0. 0. 0. 0. 0. 0. 0. 0.],4.150390625,7.26318359375,59.14306640625,[0. 0. 0. 0. 0. 0. 0. 0. 0.],0.28076171875,-0.00537109375,1.0859375,[0. 0. 0. 0. 0. 0. 0. 0. 0.]
8.105880737304688,-0.02100338228046894,0.0378231517970562,-0.4121460020542145,-0.9100901484489441,[0. 0. 0. 0. 0. 0. 0. 0. 0.],5.37109375,1.52587890625,63.5986328125,[0. 0. 0. 0. 0. 0. 0. 0. 0.],0.10546875,0.017578125,0.919921875,[0. 0. 0. 0. 0. 0. 0. 0. 0.]
8.128198862075806,-0.023028749972581863,0.0382135808467865,-0.42230865359306335,-0.9053534865379333,[0. 0. 0. 0. 0. 0. 0. 0. 0.],2.8076171875,-1.3427734375,65.24658203125,[0. 0. 0. 0. 0. 0. 0. 0. 0.],0.09228515625,0.03125,0.91259765625,[0. 0. 0. 0. 0. 0. 0. 0. 0.]
8.144699096679688,-0.02404678799211979,0.038046129047870636,-0.4324413239955902,-0.9005380272865295,[0. 0. 0. 0. 0. 0. 0. 0. 0.],-4.0283203125,-5.43212890625,64.697265625,[0. 0. 0. 0. 0. 0. 0. 0. 0.],0.07568359375,0.03515625,0.98486328125,[0. 0. 0. 0. 0. 0. 0. 0. 0.]
8.166835069656372,-0.024560296908020973,0.039121273905038834,-0.44244351983070374,-0.8956060409545898,[0. 0. 0. 0. 0. 0. 0. 0. 0.],-1.953125,-1.15966796875,64.697265625,[0. 0. 0. 0. 0. 0. 0. 0. 0.],0.1279296875,0.01416015625,1.0908203125,[0. 0. 0. 0. 0. 0. 0. 0. 0.]
8.185739040374756,-0.0238160640001297,0.04087245464324951,-0.45251256227493286,-0.8905025124549866,[0. 0. 0. 0. 0. 0. 0. 0. 0.],3.23486328125,-3.23486328125,63.232421875,[0. 0. 0. 0. 0. 0. 0. 0. 0.],0.16796875,-0.12255859375,1.07763671875,[0. 0. 0. 0. 0. 0. 0. 0. 0.]
8.204585552215576,-0.021898096427321434,0.04246857762336731,-0.46208566427230835,-0.8855471014976501,[0. 0. 0. 0. 0. 0. 0. 0. 0.],-14.0380859375,7.8125,62.1337890625,[0. 0. 0. 0. 0. 0. 0. 0. 0.],0.2080078125,-0.056640625,0.8466796875,[0. 0. 0. 0. 0. 0. 0. 0. 0.]
8.224790334701538,-0.017352281138300896,0.04580354318022728,-0.4723922312259674,-0.8800264596939087,[0. 0. 0. 0. 0. 0. 0. 0. 0.],-27.03857421875,-2.197265625,72.20458984375,[0. 0. 0. 0. 0. 0. 0. 0. 0.],0.107421875,-0.08984375,0.8193359375,[0. 0. 0. 0. 0. 0. 0. 0. 0.]
8.244305610656738,-0.01177973672747612,0.049083832651376724,-0.4837159812450409,-0.8737682104110718,[0. 0. 0. 0. 0. 0. 0. 0. 0.],-20.1416015625,-0.244140625,76.0498046875,[0. 0. 0. 0. 0. 0. 0. 0. 0.],0.15234375,-0.26220703125,1.0146484375,[0. 0. 0. 0. 0. 0. 0. 0. 0.]
8.26453685760498,-0.008107956498861313,0.05162002146244049,-0.4951733648777008,-0.8672214150428772,[0. 0. 0. 0. 0. 0. 0. 0. 0.],-8.48388671875,-1.0986328125,76.11083984375,[0. 0. 0. 0. 0. 0. 0. 0. 0.],0.14306640625,-0.33544921875,1.11572265625,[0. 0. 0. 0. 0. 0. 0. 0. 0.]
8.286213636398315,-0.006326667498797178,0.05377582833170891,-0.5065258741378784,-0.8605229258537292,[0. 0. 0. 0. 0. 0. 0. 0. 0.],0.3662109375,-8.4228515625,76.0498046875,[0. 0. 0. 0. 0. 0. 0. 0. 0.],0.11083984375,-0.314453125,1.0498046875,[0. 0. 0. 0. 0. 0. 0. 0. 0.]
8.304739475250244,-0.005270709749311209,0.05571374669671059,-0.5178760886192322,-0.8536232709884644,[0. 0. 0. 0. 0. 0. 0. 0. 0.],1.28173828125,-15.7470703125,75.74462890625,[0. 0. 0. 0. 0. 0. 0. 0. 0.],0.1240234375,-0.27099609375,1.02392578125,[0. 0. 0. 0. 0. 0. 0. 0. 0.]
8.324253797531128,-0.00461210822686553,0.058232277631759644,-0.5300365090370178,-0.8459604382514954,[0. 0. 0. 0. 0. 0. 0. 0. 0.],3.0517578125,-9.70458984375,84.89990234375,[0. 0. 0. 0. 0. 0. 0. 0. 0.],0.11669921875,-0.29443359375,0.99560546875,[0. 0. 0. 0. 0. 0. 0. 0. 0.]
8.35261607170105,-0.005519420374184847,0.06094463914632797,-0.5499502420425415,-0.832952618598938,[0. 0. 0. 0. 0. 0. 0. 0. 0.],21.17919921875,-41.6259765625,89.35546875,[0. 0. 0. 0. 0. 0. 0. 0. 0.],0.14697265625,-0.388671875,1.26220703125,[0. 0. 0. 0. 0. 0. 0. 0. 0.]
8.364259719848633,-0.008443819358944893,0.0631885752081871,-0.556668221950531,-0.828285276889801,[0. 0. 0. 0. 0. 0. 0. 0. 0.],26.85546875,-36.56005859375,92.1630859375,[0. 0. 0. 0. 0. 0. 0. 0. 0.],0.1796875,-0.43505859375,1.2998046875,[0. 0. 0. 0. 0. 0. 0. 0. 0.]
8.384334087371826,-0.010321084409952164,0.06309915333986282,-0.5699511766433716,-0.8191872239112854,[0. 0. 0. 0. 0. 0. 0. 0. 0.],15.93017578125,6.4697265625,95.0927734375,[0. 0. 0. 0. 0. 0. 0. 0. 0.],0.42919921875,-0.20703125,0.81884765625,[0. 0. 0. 0. 0. 0. 0. 0. 0.]
8.404611349105835,-0.006789573468267918,0.06307335197925568,-0.5847031474113464,-0.8087632060050964,[0. 0. 0. 0. 0. 0. 0. 0. 0.],-12.6953125,9.21630859375,105.95703125,[0. 0. 0. 0. 0. 0. 0. 0. 0.],0.10009765625,-0.16650390625,0.48681640625,[0. 0. 0. 0. 0. 0. 0. 0. 0.]
8.425235033035278,-0.005428897216916084,0.06747590750455856,-0.6001055836677551,-0.7970514297485352,[0. 0. 0. 0. 0. 0. 0. 0. 0.],-8.4228515625,-28.1982421875,111.63330078125,[0. 0. 0. 0. 0. 0. 0. 0. 0.],0.0546875,-0.38720703125,0.85302734375,[0. 0. 0. 0. 0. 0. 0. 0. 0.]
8.444185972213745,-0.005215044133365154,0.07273679971694946,-0.6156427264213562,-0.7846440672874451,[0. 0. 0. 0. 0. 0. 0. 0. 0.],-5.67626953125,-17.76123046875,114.44091796875,[0. 0. 0. 0. 0. 0. 0. 0. 0.],0.41162109375,-0.474609375,1.0830078125,[0. 0. 0. 0. 0. 0. 0. 0. 0.]
8.464300155639648,-0.0050053722225129604,0.07513534277677536,-0.630717933177948,-0.7723500728607178,[0. 0. 0. 0. 0. 0. 0. 0. 0.],5.43212890625,-9.033203125,110.90087890625,[0. 0. 0. 0. 0. 0. 0. 0. 0.],0.625,-0.3828125,1.15771484375,[0. 0. 0. 0. 0. 0. 0. 0. 0.]
8.484863519668579,-0.0046967691741883755,0.07664206624031067,-0.6457476615905762,-0.7596800923347473,[0. 0. 0. 0. 0. 0. 0. 0. 0.],8.9111328125,-8.23974609375,113.83056640625,[0. 0. 0. 0. 0. 0. 0. 0. 0.],0.43896484375,-0.48291015625,1.119140625,[0. 0. 0. 0. 0. 0. 0. 0. 0.]
8.505724906921387,-0.005553170572966337,0.07783238589763641,-0.6609084010124207,-0.7463988661766052,[0. 0. 0. 0. 0. 0. 0. 0. 0.],7.75146484375,-9.46044921875,120.05615234375,[0. 0. 0. 0. 0. 0. 0. 0. 0.],0.30712890625,-0.37646484375,0.86572265625,[0. 0. 0. 0. 0. 0. 0. 0. 0.]
8.524275064468384,-0.0029611692298203707,0.07722359150648117,-0.6773778796195984,-0.7315648198127747,[0. 0. 0. 0. 0. 0. 0. 0. 0.],4.08935546875,-5.615234375,127.86865234375,[0. 0. 0. 0. 0. 0. 0. 0. 0.],0.27099609375,-0.30419921875,0.75927734375,[0. 0. 0. 0. 0. 0. 0. 0. 0.]
8.54634141921997,-0.003676616121083498,0.08385363966226578,-0.6992943286895752,-0.7098891735076904,[0. 0. 0. 0. 0. 0. 0. 0. 0.],-5.67626953125,-9.09423828125,145.93505859375,[0. 0. 0. 0. 0. 0. 0. 0. 0.],0.2939453125,-0.40771484375,0.88720703125,[0. 0. 0. 0. 0. 0. 0. 0. 0.]
8.564356803894043,-0.002547334646806121,0.0852539911866188,-0.7126719951629639,-0.6962929964065552,[0. 0. 0. 0. 0. 0. 0. 0. 0.],8.11767578125,-3.35693359375,149.2919921875,[0. 0. 0. 0. 0. 0. 0. 0. 0.],0.63818359375,-0.44140625,1.166015625,[0. 0. 0. 0. 0. 0. 0. 0. 0.]
8.584568738937378,-0.002857968909665942,0.086831234395504,-0.7305004596710205,-0.6773635149002075,[0. 0. 0. 0. 0. 0. 0. 0. 0.],13.18359375,-24.35302734375,148.25439453125,[0. 0. 0. 0. 0. 0. 0. 0. 0.],0.46142578125,-0.44287109375,1.11181640625,[0. 0. 0. 0. 0. 0. 0. 0. 0.]
8.604738235473633,-0.0003233434399589896,0.08517980575561523,-0.7491849660873413,-0.6568608283996582,[0. 0. 0. 0. 0. 0. 0. 0. 0.],5.2490234375,24.96337890625,165.22216796875,[0. 0. 0. 0. 0. 0. 0. 0. 0.],0.54150390625,-0.337890625,0.95556640625,[0. 0. 0. 0. 0. 0. 0. 0. 0.]
8.624250173568726,-0.0012138388119637966,0.08697858452796936,-0.7679944634437561,-0.6345217227935791,[0. 0. 0. 0. 0. 0. 0. 0. 0.],10.07080078125,-27.34375,170.10498046875,[0. 0. 0. 0. 0. 0. 0. 0. 0.],0.31884765625,-0.4111328125,0.93408203125,[0. 0. 0. 0. 0. 0. 0. 0. 0.]
8.644479036331177,-0.002935584634542465,0.08968320488929749,-0.7867658138275146,-0.6106945872306824,[0. 0. 0. 0. 0. 0. 0. 0. 0.],8.6669921875,-26.123046875,175.29296875,[0. 0. 0. 0. 0. 0. 0. 0. 0.],0.5126953125,-0.4228515625,0.92138671875,[0. 0. 0. 0. 0. 0. 0. 0. 0.]
8.664568424224854,-0.002539196750149131,0.09248916059732437,-0.8055272698402405,-0.5852906107902527,[0. 0. 0. 0. 0. 0. 0. 0. 0.],-5.9814453125,-13.916015625,178.466796875,[0. 0. 0. 0. 0. 0. 0. 0. 0.],0.5498046875,-0.39453125,0.767578125,[0. 0. 0. 0. 0. 0. 0. 0. 0.]
8.684602737426758,-0.00045156467240303755,0.09166374057531357,-0.8238381147384644,-0.5593641996383667,[0. 0. 0. 0. 0. 0. 0. 0. 0.],19.71435546875,19.287109375,188.720703125,[0. 0. 0. 0. 0. 0. 0. 0. 0.],0.6533203125,-0.4453125,1.1015625,[0. 0. 0. 0. 0. 0. 0. 0. 0.]
8.704331159591675,-0.0021864548325538635,0.09120193868875504,-0.8409174084663391,-0.5334186553955078,[0. 0. 0. 0. 0. 0. 0. 0. 0.],27.7099609375,-53.8330078125,179.62646484375,[0. 0. 0. 0. 0. 0. 0. 0. 0.],0.52734375,-0.50927734375,1.12939453125,[0. 0. 0. 0. 0. 0. 0. 0. 0.]
8.724266529083252,-0.005824714433401823,0.09180686622858047,-0.8583629131317139,-0.5047285556793213,[0. 0. 0. 0. 0. 0. 0. 0. 0.],15.07568359375,-14.83154296875,191.0400390625,[0. 0. 0. 0. 0. 0. 0. 0. 0.],0.8486328125,-0.26708984375,0.97900390625,[0. 0. 0. 0. 0. 0. 0. 0. 0.]
8.744564056396484,-0.0067594172433018684,0.09198656678199768,-0.8747444748878479,-0.4757257103919983,[0. 0. 0. 0. 0. 0. 0. 0. 0.],3.7841796875,-10.498046875,197.08251953125,[0. 0. 0. 0. 0. 0. 0. 0. 0.],0.515625,-0.18359375,0.74755859375,[0. 0. 0. 0. 0. 0. 0. 0. 0.]
8.765202760696411,-0.005586909595876932,0.09333472698926926,-0.8911048173904419,-0.4440602958202362,[0. 0. 0. 0. 0. 0. 0. 0. 0.],-5.126953125,0.9765625,196.47216796875,[0. 0. 0. 0. 0. 0. 0. 0. 0.],0.61474609375,-0.28857421875,0.79736328125,[0. 0. 0. 0. 0. 0. 0. 0. 0.]
8.780210733413696,-0.0033617813605815172,0.09270290285348892,-0.9065079689025879,-0.41187146306037903,[0. 0. 0. 0. 0. 0. 0. 0. 0.],8.23974609375,-2.8076171875,198.66943359375,[0. 0. 0. 0. 0. 0. 0. 0. 0.],0.796875,-0.44384765625,1.12158203125,[0. 0. 0. 0. 0. 0. 0. 0. 0.]
8.804191589355469,-0.0030917515978217125,0.09201597422361374,-0.920404314994812,-0.37997299432754517,[0. 0. 0. 0. 0. 0. 0. 0. 0.],12.02392578125,7.87353515625,204.58984375,[0. 0. 0. 0. 0. 0. 0. 0. 0.],0.7197265625,-0.34716796875,1.00341796875,[0. 0. 0. 0. 0. 0. 0. 0. 0.]
8.8243989944458,-0.003803554456681013,0.09200666099786758,-0.9330166578292847,-0.34785085916519165,[0. 0. 0. 0. 0. 0. 0. 0. 0.],16.4794921875,-7.50732421875,197.81494140625,[0. 0. 0. 0. 0. 0. 0. 0. 0.],0.6689453125,-0.34716796875,0.86181640625,[0. 0. 0. 0. 0. 0. 0. 0. 0.]
8.84417200088501,-0.005223394371569157,0.09086563438177109,-0.9447445273399353,-0.3149189054965973,[0. 0. 0. 0. 0. 0. 0. 0. 0.],22.15576171875,-19.8974609375,191.22314453125,[0. 0. 0. 0. 0. 0. 0. 0. 0.],0.71435546875,-0.2568359375,0.90966796875,[0. 0. 0. 0. 0. 0. 0. 0. 0.]
8.860793113708496,-0.00446652714163065,0.08644111454486847,-0.9551861882209778,-0.2830677032470703,[0. 0. 0. 0. 0. 0. 0. 0. 0.],30.21240234375,19.775390625,193.66455078125,[0. 0. 0. 0. 0. 0. 0. 0. 0.],1.076171875,-0.20947265625,1.11962890625,[0. 0. 0. 0. 0. 0. 0. 0. 0.]
8.884622573852539,-0.0055626025423407555,0.08337831497192383,-0.9640489816665649,-0.2522434592247009,[0. 0. 0. 0. 0. 0. 0. 0. 0.],26.06201171875,-29.4189453125,186.6455078125,[0. 0. 0. 0. 0. 0. 0. 0. 0.],0.818359375,-0.22021484375,0.931640625,[0. 0. 0. 0. 0. 0. 0. 0. 0.]
8.907055616378784,-0.005407693795859814,0.08200327306985855,-0.9718062877655029,-0.22099493443965912,[0. 0. 0. 0. 0. 0. 0. 0. 0.],12.8173828125,-17.88330078125,185.36376953125,[0. 0. 0. 0. 0. 0. 0. 0. 0.],0.884765625,-0.1376953125,0.85791015625,[0. 0. 0. 0. 0. 0. 0. 0. 0.]
8.925729990005493,-0.00828610360622406,0.08123904466629028,-0.9779709577560425,-0.1921050101518631,[0. 0. 0. 0. 0. 0. 0. 0. 0.],22.76611328125,-22.8271484375,163.6962890625,[0. 0. 0. 0. 0. 0. 0. 0. 0.],0.63818359375,-0.24951171875,0.775390625,[0. 0. 0. 0. 0. 0. 0. 0. 0.]
8.94463562965393,-0.004760987590998411,0.07922639697790146,-0.9830694198608398,-0.16515164077281952,[0. 0. 0. 0. 0. 0. 0. 0. 0.],2.5634765625,37.353515625,148.37646484375,[0. 0. 0. 0. 0. 0. 0. 0. 0.],0.96923828125,-0.17919921875,0.8603515625,[0. 0. 0. 0. 0. 0. 0. 0. 0.]
8.96518325805664,0.0005379729554988444,0.07506458461284637,-0.9868418574333191,-0.14320723712444305,[0. 0. 0. 0. 0. 0. 0. 0. 0.],21.54541015625,16.90673828125,120.66650390625,[0. 0. 0. 0. 0. 0. 0. 0. 0.],1.05029296875,-0.32470703125,1.04931640625,[0. 0. 0. 0. 0. 0. 0. 0. 0.]
8.984039783477783,-0.0024026203900575638,0.07346773147583008,-0.9895707368850708,-0.12388109415769577,[0. 0. 0. 0. 0. 0. 0. 0. 0.],2.685546875,-16.6015625,108.58154296875,[0. 0. 0. 0. 0. 0. 0. 0. 0.],0.77490234375,-0.1494140625,0.8681640625,[0. 0. 0. 0. 0. 0. 0. 0. 0.]
9.004070281982422,-0.0055157579481601715,0.07449979335069656,-0.9913957118988037,-0.10748931020498276,[0. 0. 0. 0. 0. 0. 0. 0. 0.],-5.4931640625,-17.822265625,88.7451171875,[0. 0. 0. 0. 0. 0. 0. 0. 0.],1.06201171875,-0.16943359375,1.0478515625,[0. 0. 0. 0. 0. 0. 0. 0. 0.]
9.02415943145752,-0.00727383466437459,0.07814441621303558,-0.992677628993988,-0.0918244943022728,[0. 0. 0. 0. 0. 0. 0. 0. 0.],-40.22216796875,-14.22119140625,87.09716796875,[0. 0. 0. 0. 0. 0. 0. 0. 0.],0.52783203125,-0.0322265625,0.4970703125,[0. 0. 0. 0. 0. 0. 0. 0. 0.]
9.044771194458008,-0.002988855354487896,0.08092797547578812,-0.9934797286987305,-0.0802483931183815,[0. 0. 0. 0. 0. 0. 0. 0. 0.],-2.5634765625,16.7236328125,50.96435546875,[0. 0. 0. 0. 0. 0. 0. 0. 0.],1.02978515625,-0.31591796875,1.24609375,[0. 0. 0. 0. 0. 0. 0. 0. 0.]
9.064733743667603,0.005471670534461737,0.08026183396577835,-0.9939963817596436,-0.07415762543678284,[0. 0. 0. 0. 0. 0. 0. 0. 0.],-1.28173828125,64.453125,29.84619140625,[0. 0. 0. 0. 0. 0. 0. 0. 0.],0.92333984375,-0.1259765625,1.00732421875,[0. 0. 0. 0. 0. 0. 0. 0. 0.]
9.084341287612915,0.0063601597212255,0.08154232054948807,-0.9939796924591064,-0.0729023888707161,[0. 0. 0. 0. 0. 0. 0. 0. 0.],-9.3994140625,2.9296875,-3.47900390625,[0. 0. 0. 0. 0. 0. 0. 0. 0.],0.4462890625,-0.05029296875,1.01953125,[0. 0. 0. 0. 0. 0. 0. 0. 0.]
9.10473108291626,0.006050335243344307,0.08078489452600479,-0.993526041507721,-0.07964436709880829,[0. 0. 0. 0. 0. 0. 0. 0. 0.],0.42724609375,-2.99072265625,-53.03955078125,[0. 0. 0. 0. 0. 0. 0. 0. 0.],0.66552734375,-0.03515625,1.22412109375,[0. 0. 0. 0. 0. 0. 0. 0. 0.]
9.12471342086792,0.007210976909846067,0.08088146895170212,-0.9924095869064331,-0.0923546627163887,[0. 0. 0. 0. 0. 0. 0. 0. 0.],-7.9345703125,29.84619140625,-77.392578125,[0. 0. 0. 0. 0. 0. 0. 0. 0.],0.35107421875,0.0732421875,0.80419921875,[0. 0. 0. 0. 0. 0. 0. 0. 0.]
9.144294738769531,0.008810028433799744,0.08149439841508865,-0.9908022880554199,-0.10766610503196716,[0. 0. 0. 0. 0. 0. 0. 0. 0.],-5.0048828125,22.216796875,-88.5009765625,[0. 0. 0. 0. 0. 0. 0. 0. 0.],0.0693359375,-0.0166015625,1.02392578125,[0. 0. 0. 0. 0. 0. 0. 0. 0.]
9.164588451385498,0.010218224488198757,0.0791538655757904,-0.9890977144241333,-0.1237582340836525,[0. 0. 0. 0. 0. 0. 0. 0. 0.],8.11767578125,16.6015625,-92.22412109375,[0. 0. 0. 0. 0. 0. 0. 0. 0.],-0.0361328125,-0.05029296875,1.20703125,[0. 0. 0. 0. 0. 0. 0. 0. 0.]
9.184233903884888,0.01168027427047491,0.07704257220029831,-0.9871968030929565,-0.13917842507362366,[0. 0. 0. 0. 0. 0. 0. 0. 0.],6.2255859375,6.65283203125,-82.763671875,[0. 0. 0. 0. 0. 0. 0. 0. 0.],-0.13623046875,0.03759765625,0.99658203125,[0. 0. 0. 0. 0. 0. 0. 0. 0.]
