time,imu.ypr.x,imu.ypr.y,imu.ypr.z,imu.linear_acceleration.x,imu.linear_acceleration.y,imu.linear_acceleration.z,imu.angular_velocity.x,imu.angular_velocity.y,imu.angular_velocity.z,imu.compass.x,imu.compass.y,imu.compass.z,imu.orientation.x,imu.orientation.y,imu.orientation.z,imu.orientation.w
0.38256168365478516,-1.3777743401524536,2.3337068056548107,25.44791197944434,-0.041015625,0.0244140625,1.00146484375,-0.42724609375,-0.30517578125,-0.06103515625,0.0,0.0,0.0,-0.01621030643582344,-0.017214922234416008,0.22043129801750183,-0.9751158952713013
0.40812182426452637,-1.3722872436497002,2.342594162425467,25.453067064720404,-0.041015625,0.0234375,1.0029296875,0.1220703125,-0.244140625,-0.18310546875,0.0,0.0,0.0,-0.016181452199816704,-0.017300384119153023,0.22047491371631622,-0.9751049280166626
0.4263029098510742,-1.264958077918943,2.3351703871278975,25.460762980367715,-0.041015625,0.021484375,1.0029296875,0.06103515625,-0.91552734375,-0.244140625,0.0,0.0,0.0,-0.015255054458975792,-0.017442675307393074,0.2205236703157425,-0.9751063585281372
0.44510602951049805,-1.2891927630329119,2.2905135431172963,25.464321508925295,-0.0400390625,0.0224609375,1.0029296875,-0.244140625,-1.15966796875,-0.244140625,0.0,0.0,0.0,-0.015376039780676365,-0.017015516757965088,0.2205551117658615,-0.9751048684120178
0.464397668838501,-1.3767382858327273,2.2098519972272075,25.463505301319476,-0.0390625,0.02392578125,1.001953125,-0.30517578125,-0.3662109375,-0.30517578125,0.0,0.0,0.0,-0.015965944156050682,-0.016160674393177032,0.2205558717250824,-0.9751098155975342
0.485414981842041,-1.3186190322463252,2.272809052458389,25.470021301787668,-0.0400390625,0.0234375,1.0029296875,-0.1220703125,-0.18310546875,-0.1220703125,0.0,0.0,0.0,-0.015593266114592552,-0.01680743508040905,0.22060690820217133,-0.9750933647155762
0.509023904800415,-1.22653399496939,2.3719125359943347,25.47710250040968,-0.041015625,0.02197265625,1.00537109375,-0.1220703125,-0.6103515625,-0.18310546875,0.0,0.0,0.0,-0.015001198276877403,-0.017827164381742477,0.22065874934196472,-0.9750728011131287
0.5280218124389648,-1.361654773546106,2.362110574205132,25.47678318906598,-0.04150390625,0.02490234375,1.00244140625,-0.244140625,-0.244140625,-0.1220703125,0.0,0.0,0.0,-0.016132064163684845,-0.01748359575867653,0.22067630290985107,-0.9750568866729736
0.5397326946258545,-1.3733784730913157,2.3297847829673426,25.478074094819114,-0.04052734375,0.0234375,1.005859375,0.30517578125,-0.9765625,-0.1220703125,0.0,0.0,0.0,-0.016169896349310875,-0.017185743898153305,0.22068706154823303,-0.9750591516494751
0.5650651454925537,-1.3492636364529393,2.2599382012977345,25.481378198830107,-0.0400390625,0.0234375,1.0048828125,0.06103515625,-0.732421875,-0.30517578125,0.0,0.0,0.0,-0.015830954536795616,-0.01663733832538128,0.2207072526216507,-0.9750696420669556
0.5843462944030762,-1.423850049241419,2.3680364036403527,25.480865934642356,-0.041015625,0.0244140625,1.00390625,-0.6103515625,-0.54931640625,-0.1220703125,0.0,0.0,0.0,-0.016673285514116287,-0.017413653433322906,0.22072088718414307,-0.975039005279541
0.6051614284515381,-1.2236638214141038,2.280459718102449,25.493288341195317,-0.0400390625,0.021484375,1.00390625,-0.1220703125,-0.3662109375,-0.1220703125,0.0,0.0,0.0,-0.014803423546254635,-0.017052335664629936,0.220791295170784,-0.9750596284866333
0.6225371360778809,-1.3143196416072136,2.2891150618847362,25.49405332238236,-0.041015625,0.02392578125,1.00390625,0.3662109375,-0.732421875,-0.18310546875,0.0,0.0,0.0,-0.01559156458824873,-0.01695120893418789,0.22081172466278076,-0.9750445485115051
0.6463532447814941,-1.3227325136739654,2.362230742845842,25.49778602076377,-0.04150390625,0.02294921875,1.00390625,-0.1220703125,-0.9765625,-0.1220703125,0.0,0.0,0.0,-0.015804322436451912,-0.017556674778461456,0.22084908187389374,-0.9750218987464905
0.6599647998809814,-1.3422274743907685,2.399704362283705,25.498414398167412,-0.0419921875,0.0234375,1.0048828125,-0.48828125,-0.9765625,-0.18310546875,0.0,0.0,0.0,-0.01604236476123333,-0.017837898805737495,0.22085963189601898,-0.9750104546546936
0.6846048831939697,-1.2834729064898494,2.4019318577267756,25.505932728896305,-0.0419921875,0.0224609375,1.00537109375,-0.18310546875,-0.30517578125,-0.18310546875,0.0,0.0,0.0,-0.01554790511727333,-0.017969070002436638,0.22091452777385712,-0.9750037789344788
0.7043843269348145,-1.3179492468208407,2.367513253838612,25.50612226664577,-0.04150390625,0.02294921875,1.005859375,-0.06103515625,-0.1220703125,0.0,0.0,0.0,0.0,-0.015775064006447792,-0.017609698697924614,0.22091956436634064,-0.9750054478645325
0.7242331504821777,-1.209008796776195,2.2483040412636752,25.512749257687975,-0.03955078125,0.0205078125,1.0048828125,-0.1220703125,-1.03759765625,-0.06103515625,0.0,0.0,0.0,-0.014619736932218075,-0.016804449260234833,0.2209530472755432,-0.9750300645828247
0.7460503578186035,-1.31664286642037,2.3467923808874973,25.511890361399846,-0.0419921875,0.0234375,1.0048828125,-0.18310546875,-0.9765625,-0.244140625,0.0,0.0,0.0,-0.015724962577223778,-0.0174351017922163,0.22096723318099976,-0.9749985933303833
0.7606017589569092,-1.3373917004583993,2.3639423455631645,25.513206880362368,-0.04150390625,0.0234375,1.0048828125,-0.06103515625,-0.30517578125,-0.06103515625,0.0,0.0,0.0,-0.01593470387160778,-0.017540842294692993,0.220982626080513,-0.9749898314476013
0.7846758365631104,-1.3962334599929418,2.3420157307801315,25.51483246538483,-0.041015625,0.0244140625,1.00244140625,-0.18310546875,-0.06103515625,-0.18310546875,0.0,0.0,0.0,-0.016393404453992844,-0.017240555956959724,0.22100402414798737,-0.9749826788902283
0.8017425537109375,-1.3482813698729268,2.298115330220109,25.521024031867448,-0.04052734375,0.0234375,1.00341796875,-0.06103515625,-0.67138671875,-0.1220703125,0.0,0.0,0.0,-0.01590183936059475,-0.016958612948656082,0.2210467904806137,-0.9749860763549805
0.8245542049407959,-1.2777837857980519,2.3401335867769695,25.52714046626919,-0.04150390625,0.02197265625,1.005859375,0.0,-1.220703125,-0.18310546875,0.0,0.0,0.0,-0.015383836813271046,-0.017451321706175804,0.22109068930149078,-0.9749758243560791
0.8442156314849854,-1.3003090026288133,2.32540471071866,25.52886338148733,-0.041015625,0.02294921875,1.00390625,0.30517578125,-0.79345703125,-0.244140625,0.0,0.0,0.0,-0.015547388233244419,-0.01728229969739914,0.22110794484615326,-0.9749722480773926
0.8643097877502441,-1.3643390378899212,2.2249516244914016,25.527488805916864,-0.03955078125,0.0234375,1.001953125,-0.1220703125,-0.3662109375,-0.06103515625,0.0,0.0,0.0,-0.01589854247868061,-0.016304166987538338,0.22109951078891754,-0.9749854207038879
0.8843593597412109,-1.2779629715420588,2.279027085924039,25.53463659888328,-0.0400390625,0.0224609375,1.0048828125,-0.54931640625,-0.42724609375,-0.06103515625,0.0,0.0,0.0,-0.015268806368112564,-0.01693001203238964,0.22115106880664825,-0.9749730825424194
0.9042572975158691,-1.3659823387155439,2.3240241587326715,25.53497640079449,-0.041015625,0.02392578125,1.00634765625,-0.06103515625,-0.67138671875,-0.1220703125,0.0,0.0,0.0,-0.016104407608509064,-0.017142971977591515,0.22116973996162415,-0.9749516248703003
0.9201655387878418,-1.314838949427546,2.3615507121366024,25.539176967134047,-0.04150390625,0.02294921875,1.00341796875,0.30517578125,-0.9765625,-0.18310546875,0.0,0.0,0.0,-0.015742193907499313,-0.01756041683256626,0.22119997441768646,-0.9749433398246765
0.9403526782989502,-1.2841321264664614,2.33177151424217,25.54298479759633,-0.041015625,0.02294921875,1.00390625,-0.18310546875,-0.91552734375,-0.244140625,0.0,0.0,0.0,-0.015424150042235851,-0.01736578904092312,0.22122599184513092,-0.9749460220336914
0.9643764495849609,-1.3361584244263889,2.2547897327674256,25.54342022215592,-0.03955078125,0.0234375,1.0029296875,-0.6103515625,-0.3662109375,-0.18310546875,0.0,0.0,0.0,-0.01571853831410408,-0.01661025732755661,0.22123290598392487,-0.9749528169631958
0.9851036071777344,-1.1990025696421265,2.329690440979432,25.553506704012733,-0.04052734375,0.02099609375,1.00439453125,0.0,-0.244140625,0.0,0.0,0.0,0.0,-0.014697462320327759,-0.017511073499917984,0.22130243480205536,-0.9749372601509094
1.004312515258789,-1.3635577282818951,2.336048279879656,25.549668137699186,-0.041015625,0.02392578125,1.0048828125,-0.06103515625,-0.1220703125,0.0,0.0,0.0,0.0,-0.016109146177768707,-0.017247898504137993,0.22129510343074799,-0.9749213457107544
1.0201263427734375,-1.2764703617649995,2.3861729037642636,25.559039157240445,-0.0419921875,0.02197265625,1.0068359375,-0.18310546875,-1.0986328125,-0.244140625,0.0,0.0,0.0,-0.015466277487576008,-0.017841307446360588,0.22136442363262177,-0.9749053120613098
1.044774055480957,-1.2552578219153498,2.266979486001783,25.563308025471702,-0.03955078125,0.02197265625,1.00390625,0.06103515625,-1.03759765625,-0.30517578125,0.0,0.0,0.0,-0.015056641772389412,-0.01686755008995533,0.22139102220535278,-0.9749229550361633
1.0699448585510254,-1.3046882211038495,2.3092361588493593,25.5641293557194,-0.041015625,0.0234375,1.00390625,0.244140625,-0.9765625,-0.244140625,0.0,0.0,0.0,-0.015558786690235138,-0.01713148131966591,0.2214077115058899,-0.9749066829681396
1.085028886795044,-1.3639638043723936,2.312811549436449,25.563255091505635,-0.041015625,0.02392578125,1.00390625,-0.3662109375,-0.1220703125,-0.1220703125,0.0,0.0,0.0,-0.016069844365119934,-0.017047494649887085,0.22140930593013763,-0.9748995900154114
1.1056346893310547,-1.2798981562329939,2.305790328413088,25.570650478829467,-0.04052734375,0.0224609375,1.00390625,-0.3662109375,-0.48828125,-0.1220703125,0.0,0.0,0.0,-0.015342210419476032,-0.01714918576180935,0.2214592695236206,-0.9748981595039368
1.1201198101043701,-1.2231854947287912,2.323078390976036,25.576548347177773,-0.04052734375,0.021484375,1.00439453125,0.18310546875,-0.8544921875,-0.1220703125,0.0,0.0,0.0,-0.014893963932991028,-0.017405115067958832,0.22150184214115143,-0.9748908877372742
1.1444294452667236,-1.2517651406502404,2.3305952276010466,25.577567752911396,-0.041015625,0.02197265625,1.0048828125,0.3662109375,-0.9765625,-0.18310546875,0.0,0.0,0.0,-0.015151760540902615,-0.01741369254887104,0.2215152382850647,-0.9748837947845459
1.1648297309875488,-1.353910619687781,2.355056696339801,25.574972281026792,-0.04150390625,0.0234375,1.00341796875,-0.3662109375,-0.54931640625,-0.18310546875,0.0,0.0,0.0,-0.01606754958629608,-0.017424719408154488,0.22151008248329163,-0.9748700261116028
1.1848106384277344,-1.4411432344462451,2.3341394554500488,25.57524548859359,-0.041015625,0.02490234375,1.0029296875,-0.48828125,-0.244140625,-0.06103515625,0.0,0.0,0.0,-0.01676935702562332,-0.017078079283237457,0.2215241938829422,-0.974861204624176
1.2045633792877197,-1.3217570772831229,2.3509782196316573,25.58507925345112,-0.04150390625,0.02294921875,1.00244140625,0.30517578125,-0.30517578125,-0.18310546875,0.0,0.0,0.0,-0.015787677839398384,-0.01745077781379223,0.22159095108509064,-0.9748557806015015
1.2243356704711914,-1.1990771681144676,2.391068228408459,25.594170235236405,-0.0419921875,0.021484375,1.00341796875,0.06103515625,-0.9765625,-0.30517578125,0.0,0.0,0.0,-0.014822804369032383,-0.01802791655063629,0.22165140509605408,-0.9748467206954956
1.2393226623535156,-1.3593294142988341,2.2677959070510108,25.59099931991423,-0.03955078125,0.02392578125,1.0029296875,-0.30517578125,-1.28173828125,-0.30517578125,0.0,0.0,0.0,-0.015947658568620682,-0.01666956953704357,0.22164186835289001,-0.9748552441596985
1.2776756286621094,-1.2833518840754932,2.3583546104918596,25.600903094210747,-0.04150390625,0.0224609375,1.00439453125,0.1220703125,-0.48828125,-0.06103515625,0.0,0.0,0.0,-0.015477621927857399,-0.017585666850209236,0.2217201143503189,-0.974828839302063
1.2834677696228027,-1.2830057855836439,2.4113001025036827,25.601507565952293,-0.04248046875,0.0224609375,1.0029296875,0.0,0.1220703125,-0.1220703125,0.0,0.0,0.0,-0.015577003359794617,-0.018036702647805214,0.22172811627388,-0.9748173356056213
1.3067545890808105,-1.311165908479666,2.3654003775075507,25.60306826417764,-0.04150390625,0.02294921875,1.00341796875,-0.244140625,-0.244140625,0.06103515625,0.0,0.0,0.0,-0.015728170052170753,-0.01759149506688118,0.22174319624900818,-0.974819540977478
1.327019214630127,-1.2974068125617928,2.3623899716308676,25.607521547516487,-0.04150390625,0.02294921875,1.00244140625,-0.18310546875,-0.8544921875,-0.18310546875,0.0,0.0,0.0,-0.015605993568897247,-0.01759190298616886,0.22177879512310028,-0.9748134016990662
1.3566405773162842,-1.2821588421265624,2.28163024177146,25.611184236458907,-0.0400390625,0.02294921875,1.00390625,-0.06103515625,-0.9765625,-0.18310546875,0.0,0.0,0.0,-0.015320836566388607,-0.016933834180235863,0.22180308401584625,-0.974824070930481
1.3622000217437744,-1.4293759924450766,2.3383635005648786,25.608028689062362,-0.04052734375,0.0244140625,1.0029296875,-0.1220703125,-0.18310546875,-0.1220703125,0.0,0.0,0.0,-0.016682298853993416,-0.017131993547081947,0.22180160880088806,-0.9747986793518066
1.3830492496490479,-1.4009935682359118,2.3492578657344603,25.610683925102204,-0.04150390625,0.02392578125,1.00244140625,-0.48828125,-0.54931640625,0.0,0.0,0.0,0.0,-0.01646229811012745,-0.017279233783483505,0.2218206524848938,-0.9747954607009888
1.4004950523376465,-1.3476770048530866,2.3632313655592485,25.616815727429582,-0.04150390625,0.0234375,1.00390625,-0.18310546875,-0.91552734375,-0.18310546875,0.0,0.0,0.0,-0.01603667624294758,-0.017500465735793114,0.22186559438705444,-0.9747883677482605
1.4262514114379883,-1.3343598435188542,2.2839514388722066,25.62224231272516,-0.0400390625,0.0234375,1.00634765625,0.244140625,-0.6103515625,-0.244140625,0.0,0.0,0.0,-0.015771014615893364,-0.016851019114255905,0.22190497815608978,-0.9747951626777649
1.4443573951721191,-1.3578458758667662,2.332697004874707,25.622930454284038,-0.041015625,0.02392578125,1.00390625,0.0,-0.67138671875,-0.18310546875,0.0,0.0,0.0,-0.01606510393321514,-0.01722014509141445,0.2219172865152359,-0.9747811555862427
1.4734811782836914,-1.3061867005747267,2.3321868751210713,25.629622332123358,-0.041015625,0.0234375,1.00537109375,-0.18310546875,-0.42724609375,-0.06103515625,0.0,0.0,0.0,-0.015625687316060066,-0.017314935103058815,0.22196641564369202,-0.9747753739356995
1.4843506813049316,-1.3537821267540202,2.3134623383983044,25.628258001836645,-0.04052734375,0.02392578125,1.00390625,-0.30517578125,-0.244140625,-0.1220703125,0.0,0.0,0.0,-0.015994159504771233,-0.01706363447010517,0.22196084260940552,-0.9747750759124756
1.5045428276062012,-1.3215761839918232,2.3780168041216223,25.633575304105502,-0.04150390625,0.02294921875,1.00244140625,0.06103515625,-0.06103515625,0.0,0.0,0.0,0.0,-0.015845797955989838,-0.01767447032034397,0.22200502455234528,-0.9747565984725952
1.5271248817443848,-1.2207335635384626,2.38532702752424,25.642635550039525,-0.0419921875,0.021484375,1.00634765625,0.06103515625,-0.8544921875,-0.18310546875,0.0,0.0,0.0,-0.015003541484475136,-0.017930837348103523,0.22206683456897736,-0.9747511148452759
1.544691562652588,-1.2811517093891027,2.2271178616753535,25.642596276451798,-0.03955078125,0.0224609375,1.00390625,-0.3662109375,-1.220703125,-0.30517578125,0.0,0.0,0.0,-0.015211474150419235,-0.016467833891510963,0.22206705808639526,-0.974773645401001
1.5652039051055908,-1.3350473447474982,2.285786411881413,25.644334559595563,-0.0400390625,0.02392578125,1.0029296875,-0.18310546875,-0.6103515625,-0.244140625,0.0,0.0,0.0,-0.015783660113811493,-0.016862256452441216,0.2220931053161621,-0.9747519493103027
1.5846283435821533,-1.3543585306869457,2.276203656475885,25.646921493743708,-0.04052734375,0.0234375,1.00341796875,-0.06103515625,-0.06103515625,-0.18310546875,0.0,0.0,0.0,-0.015929769724607468,-0.016742944717407227,0.2221173495054245,-0.9747461080551147
1.6045408248901367,-1.303078964502371,2.326404906545244,25.651390145008186,-0.04052734375,0.02392578125,1.0048828125,-0.244140625,-0.6103515625,-0.06103515625,0.0,0.0,0.0,-0.015591355040669441,-0.017268802970647812,0.2221507728099823,-0.9747347235679626
1.6255569458007812,-1.298451724783099,2.3218788390030527,25.65568462644883,-0.041015625,0.0224609375,1.00439453125,-0.1220703125,-1.15966796875,-0.1220703125,0.0,0.0,0.0,-0.01554388552904129,-0.017238689586520195,0.2221863567829132,-0.9747278690338135
1.6452608108520508,-1.272680887436112,2.3803975519341947,25.661225617413006,-0.04248046875,0.0224609375,1.0078125,0.30517578125,-0.91552734375,-0.30517578125,0.0,0.0,0.0,-0.01543877087533474,-0.017785726115107536,0.22223280370235443,-0.974709153175354
1.6655173301696777,-1.3010909525670742,2.345218235727221,25.662740211861458,-0.041015625,0.02294921875,1.0029296875,-0.1220703125,-0.244140625,0.0,0.0,0.0,0.0,-0.015612569637596607,-0.01743115670979023,0.22224809229373932,-0.9747093319892883
1.6870827674865723,-1.4052503769144165,2.365476149918656,25.66137929666933,-0.04150390625,0.02490234375,1.00244140625,-0.48828125,-0.42724609375,0.0,0.0,0.0,0.0,-0.016537537798285484,-0.017401663586497307,0.22225357592105865,-0.9746932983398438
1.704444408416748,-1.2714461173002205,2.415939935384237,25.671518712492215,-0.04248046875,0.02197265625,1.0029296875,-0.18310546875,-0.79345703125,-0.1220703125,0.0,0.0,0.0,-0.015498680993914604,-0.01808908022940159,0.22232207655906677,-0.9746822714805603
1.7213168144226074,-1.1929073728598305,2.3310110153667716,25.6768974864636,-0.041015625,0.02099609375,1.00341796875,0.30517578125,-0.8544921875,-0.244140625,0.0,0.0,0.0,-0.014667021110653877,-0.01751829870045185,0.22235125303268433,-0.9746989607810974
1.7451486587524414,-1.2884594781924876,2.337971618461249,25.67653719398488,-0.041015625,0.0224609375,1.00390625,0.0,-0.91552734375,-0.18310546875,0.0,0.0,0.0,-0.015493194572627544,-0.017392143607139587,0.22236311435699463,-0.9746857285499573
1.7671010494232178,-1.3110683648405819,2.3488025909375967,25.67885433566081,-0.041015625,0.0224609375,1.00390625,-0.3662109375,-1.15966796875,-0.244140625,0.0,0.0,0.0,-0.015706826001405716,-0.017440088093280792,0.22238686680793762,-0.9746760129928589
1.7842700481414795,-1.2542653100515824,2.321557393225239,25.682289920813325,-0.04052734375,0.0224609375,1.00244140625,-0.244140625,-0.30517578125,-0.06103515625,0.0,0.0,0.0,-0.015171429142355919,-0.017318105325102806,0.22240598499774933,-0.9746822714805603
1.8077313899993896,-1.3698510005501214,2.3409154299935246,25.681343939613278,-0.041015625,0.02392578125,1.0029296875,-0.06103515625,-0.1220703125,-0.1220703125,0.0,0.0,0.0,-0.016191909089684486,-0.01725856401026249,0.2224164754152298,-0.974664568901062
1.8245635032653809,-1.2361314779703159,2.3370999155684262,25.68887593072051,-0.041015625,0.021484375,1.0029296875,0.0,-1.15966796875,-0.18310546875,0.0,0.0,0.0,-0.015048299916088581,-0.017484648153185844,0.2224600613117218,-0.9746688604354858
1.8468620777130127,-1.2836355503694603,2.2889061007848164,25.69082082708667,-0.03955078125,0.02294921875,1.00439453125,0.0,-1.3427734375,-0.18310546875,0.0,0.0,0.0,-0.015359261073172092,-0.01698220893740654,0.2224811315536499,-0.974668025970459
1.8643300533294678,-1.4295337271262216,2.3259524065127306,25.687515015528383,-0.041015625,0.025390625,1.00341796875,-0.06103515625,-0.1220703125,-0.06103515625,0.0,0.0,0.0,-0.016671480610966682,-0.01701454073190689,0.22247694432735443,-0.9746468663215637
1.8813176155090332,-1.3117089085186822,2.3345249342513315,25.69552682742481,-0.041015625,0.02294921875,1.00244140625,0.0,-0.1220703125,-0.06103515625,0.0,0.0,0.0,-0.015687143430113792,-0.017315110191702843,0.22252795100212097,-0.9746463298797607
1.9045524597167969,-1.261523773426896,2.2448889466786692,25.700755337234455,-0.0390625,0.02197265625,1.0048828125,-0.06103515625,-1.0986328125,-0.18310546875,0.0,0.0,0.0,-0.01508733443915844,-0.0166493970900774,0.22255992889404297,-0.9746600985527039
1.9207634925842285,-1.336715084843745,2.4037700323871554,25.701117337260467,-0.04150390625,0.0234375,1.0029296875,-0.06103515625,-1.03759765625,-0.1220703125,0.0,0.0,0.0,-0.016034889966249466,-0.017854783684015274,0.2225833684206009,-0.9746182560920715
1.946279764175415,-1.3168380604202443,2.3584468180456546,25.705826752693188,-0.04150390625,0.0224609375,1.00341796875,0.3662109375,-0.732421875,-0.30517578125,0.0,0.0,0.0,-0.01577869988977909,-0.017507217824459076,0.2226177155971527,-0.9746209979057312
1.9644594192504883,-1.3989823976904605,2.273743507714211,25.704542677129226,-0.0400390625,0.0244140625,1.00390625,-0.18310546875,-0.6103515625,-0.1220703125,0.0,0.0,0.0,-0.01631295680999756,-0.016627319157123566,0.22261381149291992,-0.9746284484863281
1.9843308925628662,-1.426404539991004,2.196860337095609,25.707305488648498,-0.0390625,0.02490234375,1.0048828125,-0.3662109375,-0.30517578125,-0.18310546875,0.0,0.0,0.0,-0.01639753021299839,-0.01591966673731804,0.22263607382774353,-0.9746337532997131
2.0050742626190186,-1.2832880644954359,2.3045920571005736,25.716930932736336,-0.04052734375,0.0224609375,1.00439453125,-0.06103515625,-0.30517578125,-0.18310546875,0.0,0.0,0.0,-0.015390599146485329,-0.01711280830204487,0.22270403802394867,-0.9746143817901611
2.024458408355713,-1.2562617530016358,2.3114563972164364,25.721370555696847,-0.04052734375,0.02197265625,1.00439453125,0.30517578125,-0.79345703125,-0.18310546875,0.0,0.0,0.0,-0.015174716711044312,-0.01722313091158867,0.222738116979599,-0.9746081233024597
2.044774293899536,-1.3316275544074376,2.2539148282234294,25.72003525371411,-0.03955078125,0.0234375,1.00390625,0.06103515625,-1.0986328125,-0.18310546875,0.0,0.0,0.0,-0.01570388674736023,-0.016587374731898308,0.22273457050323486,-0.9746115207672119
2.0708839893341064,-1.4297695820959988,2.3082906045361353,25.71793497054433,-0.04052734375,0.02490234375,1.00146484375,-0.48828125,-0.732421875,-0.1220703125,0.0,0.0,0.0,-0.016643747687339783,-0.016859427094459534,0.2227345108985901,-0.9745913147926331
2.084890365600586,-1.3550076121015084,2.298488429303521,25.723682574730894,-0.04052734375,0.02392578125,1.00341796875,-0.06103515625,0.06103515625,-0.06103515625,0.0,0.0,0.0,-0.01598973572254181,-0.016920559108257294,0.22277173399925232,-0.9745927453041077
2.104593276977539,-1.2811336734208258,2.3284178913596936,25.73102502808866,-0.04052734375,0.0224609375,1.00341796875,0.1220703125,-0.3662109375,-0.06103515625,0.0,0.0,0.0,-0.015420619398355484,-0.017317762598395348,0.22282493114471436,-0.9745826125144958
2.1254220008850098,-1.3359350558961884,2.294472491514965,25.730789386562293,-0.041015625,0.02294921875,1.0048828125,-0.1220703125,-1.3427734375,-0.244140625,0.0,0.0,0.0,-0.015820784494280815,-0.016922498121857643,0.22282913327217102,-0.9745822548866272
2.144705295562744,-1.3717691097681313,2.3052039993615243,25.733661481108285,-0.04052734375,0.0244140625,1.00537109375,-0.18310546875,-1.0986328125,-0.42724609375,0.0,0.0,0.0,-0.016146797686815262,-0.016943691298365593,0.22285951673984528,-0.97456955909729
2.1595675945281982,-1.3855928790397083,2.235108329230622,25.735160707631103,-0.0390625,0.0244140625,1.0029296875,0.06103515625,0.06103515625,0.0,0.0,0.0,0.0,-0.01612853817641735,-0.016320381313562393,0.22286978363990784,-0.9745782017707825
2.184572219848633,-1.3278705234771073,2.3107247132015987,25.73993330231365,-0.041015625,0.02294921875,1.00439453125,-0.1220703125,-0.06103515625,-0.1220703125,0.0,0.0,0.0,-0.01578509621322155,-0.017075156792998314,0.22290664911270142,-0.9745625257492065
2.2045249938964844,-1.2552157735632719,2.333699762022229,25.748035614216576,-0.041015625,0.021484375,1.00634765625,-0.244140625,-0.9765625,-0.1220703125,0.0,0.0,0.0,-0.01521302480250597,-0.017410824075341225,0.22296595573425293,-0.9745520353317261
2.219431161880493,-1.2392079445828776,2.280197182706227,25.751850274868026,-0.0400390625,0.021484375,1.00439453125,0.1220703125,-1.15966796875,-0.18310546875,0.0,0.0,0.0,-0.01497354730963707,-0.016986407339572906,0.22299312055110931,-0.9745570421218872
2.2446868419647217,-1.2465721691686207,2.2832944600514162,25.75509802981837,-0.04052734375,0.021484375,1.00244140625,0.06103515625,-0.67138671875,-0.30517578125,0.0,0.0,0.0,-0.015042676590383053,-0.01699799671769142,0.22302201390266418,-0.9745491147041321
2.2670979499816895,-1.288507182794972,2.3107917344328297,25.75569908646533,-0.0400390625,0.02294921875,1.00244140625,-0.18310546875,-0.18310546875,-0.06103515625,0.0,0.0,0.0,-0.015452815219759941,-0.017150171101093292,0.22303487360477448,-0.9745370745658875
2.284270763397217,-1.3363671720828976,2.3557264817652857,25.756692878989565,-0.041015625,0.0234375,1.00439453125,-0.42724609375,-0.48828125,0.06103515625,0.0,0.0,0.0,-0.015947269275784492,-0.017439063638448715,0.22305315732955933,-0.9745197892189026
2.304347038269043,-1.2368998742519421,2.332904044983923,25.76534672866797,-0.041015625,0.021484375,1.0048828125,0.244140625,-0.732421875,-0.244140625,0.0,0.0,0.0,-0.015058344230055809,-0.017437420785427094,0.22311033308506012,-0.9745209813117981
2.324233293533325,-1.2322848008071292,2.3238303521149724,25.76760239864137,-0.041015625,0.02197265625,1.00439453125,0.30517578125,-1.03759765625,-0.244140625,0.0,0.0,0.0,-0.015001805499196053,-0.01736893691122532,0.2231283336877823,-0.9745189547538757
2.3461380004882812,-1.2743984665689585,2.307114958225247,25.76944484216998,-0.04052734375,0.02294921875,1.00537109375,-0.18310546875,-1.28173828125,-0.18310546875,0.0,0.0,0.0,-0.015327741391956806,-0.017144519835710526,0.22314944863319397,-0.974513053894043
2.3650951385498047,-1.235888686089663,2.310363780392646,25.77256282352609,-0.04052734375,0.02197265625,1.0029296875,-0.244140625,-0.30517578125,-0.06103515625,0.0,0.0,0.0,-0.015007030218839645,-0.017246736213564873,0.22317038476467133,-0.9745113253593445
2.388381242752075,-1.2256458569338768,2.338022844880024,25.77748738991767,-0.041015625,0.02197265625,1.00341796875,0.0,-0.48828125,-0.18310546875,0.0,0.0,0.0,-0.014974439516663551,-0.017501281574368477,0.2232121378183365,-0.9744977355003357
2.4053783416748047,-1.2336330161162663,2.3347680462971017,25.7793025126896,-0.041015625,0.021484375,1.00390625,-0.1220703125,-0.244140625,0.06103515625,0.0,0.0,0.0,-0.01503631379455328,-0.017457805573940277,0.22322863340377808,-0.9744937419891357
2.4242725372314453,-1.1519969943306871,2.2425585715112253,25.787182843444505,-0.03955078125,0.0205078125,1.00634765625,-0.18310546875,-1.15966796875,-0.244140625,0.0,0.0,0.0,-0.014163927175104618,-0.016831614077091217,0.22327885031700134,-0.9745063781738281
2.444269895553589,-1.272571924574509,2.3322746003632235,25.786277843379477,-0.04052734375,0.0224609375,1.00439453125,0.06103515625,-1.0986328125,-0.244140625,0.0,0.0,0.0,-0.015363659709692001,-0.017359808087348938,0.2232937216758728,-0.9744755029678345
2.4649930000305176,-1.3812590172896293,2.309957597580442,25.783089852584375,-0.0400390625,0.0244140625,1.00244140625,0.06103515625,-0.30517578125,-0.1220703125,0.0,0.0,0.0,-0.01624404639005661,-0.016958661377429962,0.22328156232833862,-0.9744710922241211
2.48451828956604,-1.2873763596005117,2.336279225650967,25.789651956829463,-0.041015625,0.0224609375,1.00439453125,-0.244140625,-0.244140625,-0.06103515625,0.0,0.0,0.0,-0.015497852116823196,-0.017364559695124626,0.22332488000392914,-0.9744662046432495
2.5101211071014404,-1.327649075937611,2.428955074291108,25.793359042001487,-0.04296875,0.02392578125,1.00048828125,-0.3662109375,-0.30517578125,-0.244140625,0.0,0.0,0.0,-0.01602114923298359,-0.018073728308081627,0.2233678698539734,-0.9744349718093872
2.5196962356567383,-1.3139244511307049,2.391549543301533,25.79728298567966,-0.0419921875,0.02294921875,1.00341796875,0.54931640625,-0.732421875,-0.1220703125,0.0,0.0,0.0,-0.015832293778657913,-0.017781823873519897,0.22339695692062378,-0.9744367599487305
2.5468194484710693,-1.3210510064776728,2.2251763804037776,25.79841679708188,-0.0390625,0.02294921875,1.00537109375,0.06103515625,-0.91552734375,-0.18310546875,0.0,0.0,0.0,-0.015569370239973068,-0.016352837905287743,0.223397895693779,-0.9744659066200256
2.564598560333252,-1.3274821631897686,2.29978979378382,25.800424872697867,-0.04052734375,0.0234375,1.0048828125,-0.42724609375,-0.48828125,-0.1220703125,0.0,0.0,0.0,-0.015769530087709427,-0.01697458326816559,0.2234203815460205,-0.9744468331336975
2.584519386291504,-1.3138844304910369,2.3741329878048236,25.80507964661723,-0.04150390625,0.02294921875,1.00390625,-0.3662109375,-0.244140625,-0.1220703125,0.0,0.0,0.0,-0.01579926908016205,-0.017632706090807915,0.22346223890781403,-0.9744250178337097
2.5993802547454834,-1.244773161374263,2.3072236009217324,25.81196959994248,-0.041015625,0.02197265625,1.00439453125,0.18310546875,-0.48828125,-0.06103515625,0.0,0.0,0.0,-0.015082395635545254,-0.017197540029883385,0.2235066443681717,-0.9744340181350708
2.6245102882385254,-1.2825436805976103,2.331577921067882,25.812811420757683,-0.041015625,0.0224609375,1.00390625,0.1220703125,-1.03759765625,-0.18310546875,0.0,0.0,0.0,-0.015451115556061268,-0.017330871894955635,0.22352083027362823,-0.9744226336479187
2.644282817840576,-1.3009473051510922,2.341997374646737,25.814505307671848,-0.041015625,0.0224609375,1.00341796875,-0.3662109375,-1.220703125,-0.18310546875,0.0,0.0,0.0,-0.01562814973294735,-0.017383353784680367,0.2235385924577713,-0.9744147658348083
2.6643905639648438,-1.315522181787959,2.351130831670925,25.817107609745623,-0.04150390625,0.02294921875,1.0029296875,-0.1220703125,-0.3662109375,-0.18310546875,0.0,0.0,0.0,-0.015770260244607925,-0.017432237043976784,0.22356344759464264,-0.9744059443473816
2.6844120025634766,-1.3261281849085194,2.246676321807097,25.819824317487996,-0.0400390625,0.02294921875,1.00390625,-0.1220703125,0.0,-0.1220703125,0.0,0.0,0.0,-0.015657465904951096,-0.016522863879799843,0.2235819697380066,-0.9744192957878113
2.706881523132324,-1.2658074759752576,2.3541958790609683,25.82471131783914,-0.04150390625,0.02294921875,1.00341796875,-0.30517578125,-0.3662109375,0.0,0.0,0.0,0.0,-0.015354655683040619,-0.017554275691509247,0.2236207276582718,-0.9743971228599548
2.724703550338745,-1.312717748803434,2.33013269572819,25.82473180840665,-0.041015625,0.02294921875,1.00439453125,0.0,-1.40380859375,-0.244140625,0.0,0.0,0.0,-0.015706678852438927,-0.017258089035749435,0.22362664341926575,-0.9743955731391907
2.744452953338623,-1.4125054251951452,2.2890612741450225,25.825819516031974,-0.04052734375,0.02392578125,1.00390625,0.06103515625,-0.732421875,-0.30517578125,0.0,0.0,0.0,-0.016475366428494453,-0.01671391725540161,0.22364816069602966,-0.9743873476982117
2.7595558166503906,-1.3380859251545076,2.284086975438549,25.830037157844455,-0.0400390625,0.0234375,1.00146484375,0.0,-0.1220703125,0.0,0.0,0.0,0.0,-0.015833493322134018,-0.01681627333164215,0.2236728072166443,-0.9743906259536743
2.786496639251709,-1.2484163202445242,2.242708195342731,25.83745474328309,-0.0400390625,0.0224609375,1.0048828125,-0.48828125,-0.42724609375,-0.06103515625,0.0,0.0,0.0,-0.014991478994488716,-0.016638433560729027,0.22372041642665863,-0.9743961095809937
2.804337501525879,-1.3614835919300325,2.325569702475798,25.836877592298222,-0.04052734375,0.02392578125,1.00537109375,-0.30517578125,-0.48828125,-0.06103515625,0.0,0.0,0.0,-0.01611427403986454,-0.017122412100434303,0.223736971616745,-0.9743659496307373
2.8249459266662598,-1.3203089704573743,2.3424609737366513,25.840605168037758,-0.04150390625,0.0224609375,1.00390625,0.18310546875,-0.9765625,-0.1220703125,0.0,0.0,0.0,-0.01579764299094677,-0.017345929518342018,0.22376348078250885,-0.9743610620498657
2.8442349433898926,-1.2572838267779047,2.3332451275556,25.845125045721016,-0.041015625,0.02197265625,1.00439453125,0.06103515625,-0.91552734375,0.06103515625,0.0,0.0,0.0,-0.015244468115270138,-0.017390023916959763,0.22379183769226074,-0.9743626713752747
2.865138292312622,-1.364638925883167,2.321146301214569,25.842900111598883,-0.04052734375,0.025390625,1.00244140625,-0.54931640625,-0.67138671875,-0.244140625,0.0,0.0,0.0,-0.01613338105380535,-0.01707778498530388,0.22378838062286377,-0.97435462474823
2.8895859718322754,-1.3755870787924627,2.2714568884461377,25.84702554585757,-0.0400390625,0.02392578125,1.00390625,-0.06103515625,-0.42724609375,-0.244140625,0.0,0.0,0.0,-0.0161302350461483,-0.016633275896310806,0.2238219529390335,-0.9743546843528748
2.9073102474212646,-1.3607575641656013,2.312812189766684,25.850992178218053,-0.04052734375,0.02392578125,1.0029296875,-0.1220703125,0.0,-0.1220703125,0.0,0.0,0.0,-0.016085339710116386,-0.01701335795223713,0.2238561064004898,-0.9743409752845764
2.9244630336761475,-1.2898689517607431,2.361806630787066,25.856913952228457,-0.04150390625,0.0224609375,1.00146484375,0.06103515625,-1.15966796875,-0.18310546875,0.0,0.0,0.0,-0.015579013153910637,-0.01756766438484192,0.22389863431453705,-0.9743295907974243
2.940009832382202,-1.3154553740001398,2.3163054046403224,25.859268659944817,-0.04052734375,0.02294921875,1.00390625,-0.18310546875,-1.3427734375,-0.244140625,0.0,0.0,0.0,-0.01570819318294525,-0.017130425199866295,0.22391992807388306,-0.9743304252624512
2.9661571979522705,-1.4169856024038505,2.3294383643103758,25.859396725991754,-0.04150390625,0.0244140625,1.00341796875,0.18310546875,-0.79345703125,-0.244140625,0.0,0.0,0.0,-0.016597088426351547,-0.01704367995262146,0.22393696010112762,-0.9743133187294006
2.9864790439605713,-1.381321662930923,2.4011026300728537,25.861654103512446,-0.0419921875,0.02392578125,1.00390625,0.06103515625,0.06103515625,-0.06103515625,0.0,0.0,0.0,-0.016433946788311005,-0.017722442746162415,0.22395530343055725,-0.9742997288703918
3.000689744949341,-1.3866324551757254,2.2501571569628647,25.86567537738629,-0.0400390625,0.02392578125,1.00439453125,-0.3662109375,-0.6103515625,-0.18310546875,0.0,0.0,0.0,-0.016185307875275612,-0.016427937895059586,0.22398075461387634,-0.9743207693099976
3.0204901695251465,-1.379921153985953,2.3702271868166345,25.86509651885413,-0.04296875,0.0244140625,1.00634765625,0.06103515625,-0.732421875,0.3662109375,0.0,0.0,0.0,-0.016362354159355164,-0.017462141811847687,0.22398245334625244,-0.9742993712425232
3.044283390045166,-1.3710066899020288,2.280408064796851,25.870335273947532,-0.0322265625,0.0224609375,1.0029296875,0.6103515625,0.732421875,-1.3427734375,0.0,0.0,0.0,-0.016112137585878372,-0.016715064644813538,0.2240200638771057,-0.9743079543113708
3.0660386085510254,-1.3179996194659696,2.3777431696679985,25.936519807004956,-0.05029296875,0.02294921875,1.00146484375,-0.06103515625,2.01416015625,-3.47900390625,0.0,0.0,0.0,-0.015861527994275093,-0.017637202516198158,0.22458063066005707,-0.9741668105125427
3.0795488357543945,-1.2895073786215556,2.543892643870436,26.010381472689474,-0.05859375,0.02001953125,1.00341796875,-0.18310546875,0.42724609375,-5.615234375,0.0,0.0,0.0,-0.015956565737724304,-0.019095372408628464,0.22521302103996277,-0.9739916920661926
3.112318754196167,-1.1295542733784947,2.805405859594827,26.182666164313876,-0.05078125,0.01171875,1.00927734375,0.06103515625,-0.244140625,-5.37109375,0.0,0.0,0.0,-0.01514239888638258,-0.021609975025057793,0.2266601175069809,-0.9736164212226868
3.1199545860290527,-0.9993925323043252,2.77451440808274,26.245505612225283,-0.02001953125,-0.03955078125,0.96630859375,-5.7373046875,2.50244140625,-6.04248046875,0.0,0.0,0.0,-0.01398734375834465,-0.021597251296043396,0.2271685004234314,-0.973515510559082
3.142209053039551,-0.5810685786027557,2.7986478142979223,26.416086171651767,0.001953125,-0.28662109375,1.0283203125,-8.97216796875,-2.25830078125,-10.80322265625,0.0,0.0,0.0,-0.010514829307794571,-0.022615820169448853,0.22853702306747437,-0.9732156991958618
3.165550947189331,-0.3217412101757546,2.8829827213010084,26.62032248821349,-0.064453125,-0.29052734375,1.01171875,-1.46484375,8.056640625,-10.7421875,0.0,0.0,0.0,-0.008522909134626389,-0.02383408136665821,0.23021729290485382,-0.9728100299835205
3.184772491455078,-0.16196878478058163,2.9099572727675045,26.892995592711447,-0.1103515625,-0.32763671875,1.05078125,1.8310546875,3.96728515625,-8.7890625,0.0,0.0,0.0,-0.007278705481439829,-0.024366799741983414,0.23249699175357819,-0.9722645878791809
3.2011423110961914,-0.04695630990400795,2.95178364369737,27.165404027379065,-0.10693359375,-0.28076171875,1.01904296875,7.4462890625,-4.2724609375,-13.916015625,0.0,0.0,0.0,-0.006447013933211565,-0.0249397624284029,0.23478096723556519,-0.9717070460319519
3.224461317062378,0.13953636247299703,2.978471540662137,27.456349595454096,-0.05029296875,-0.1728515625,0.873046875,-6.89697265625,4.45556640625,-15.9912109375,0.0,0.0,0.0,-0.004985132720321417,-0.02553555741906166,0.23720479011535645,-0.9711112380027771
3.2475569248199463,0.4793325907502985,2.9892980308268418,28.003987332916548,-0.03662109375,-0.2939453125,1.0244140625,-0.18310546875,3.11279296875,-21.66748046875,0.0,0.0,0.0,-0.0022537298500537872,-0.026320096105337143,0.2417653650045395,-0.9699751138687134
3.2596843242645264,0.6320082361544167,3.022782179459183,28.38952419080709,-0.037109375,-0.28515625,1.0322265625,-1.46484375,-1.52587890625,-25.93994140625,0.0,0.0,0.0,-0.001122685382142663,-0.02692197449505329,0.24498867988586426,-0.9691514372825623
3.284801959991455,0.9542178745772725,3.00725523848504,29.008595461704118,-0.08984375,-0.279296875,0.98046875,-3.41796875,-4.94384765625,-23.37646484375,0.0,0.0,0.0,0.001487149391323328,-0.02748786099255085,0.25014615058898926,-0.9678167104721069
3.3068294525146484,1.1379843276398771,2.953033141428659,29.276560858316646,-0.14892578125,-0.29248046875,0.98583984375,-1.15966796875,-8.4228515625,-15.0146484375,0.0,0.0,0.0,0.0030936256516724825,-0.027438396587967873,0.2523719072341919,-0.9672362804412842
3.3260231018066406,1.3194239273513289,2.826987763268186,29.520729875860845,-0.08154296875,-0.267578125,1.0048828125,0.0,-8.36181640625,-10.43701171875,0.0,0.0,0.0,0.004846220836043358,-0.026784583926200867,0.2544078230857849,-0.9667139649391174
3.3447725772857666,1.4306512101074593,2.6509885159523554,29.739166155707025,0.0654296875,-0.2314453125,1.0517578125,4.94384765625,-3.11279296875,-9.8876953125,0.0,0.0,0.0,0.0061274501495063305,-0.025558695197105408,0.2562519609928131,-0.9662526249885559
3.3644115924835205,1.5294250302942467,2.592707792425106,29.88419497744849,0.02197265625,-0.19287109375,1.0654296875,1.77001953125,1.64794921875,-5.67626953125,0.0,0.0,0.0,0.007058931514620781,-0.025297168642282486,0.2574620842933655,-0.9659314155578613
3.385054111480713,1.7385759881289093,2.5864810077795815,29.933980226308712,-0.0556640625,-0.1708984375,0.931640625,-1.89208984375,-0.54931640625,-0.42724609375,0.0,0.0,0.0,0.008824776858091354,-0.02571839839220047,0.25783616304397583,-0.9658060669898987
3.407015085220337,2.1703711559470067,2.592041208650795,29.95674183171778,-0.02880859375,-0.22119140625,0.82763671875,-9.765625,3.60107421875,0.1220703125,0.0,0.0,0.0,0.01244612131267786,-0.026739099994301796,0.25792813301086426,-0.9657137989997864
3.4241883754730225,2.372915506585269,2.6056960374621196,29.981835946728406,-0.0068359375,-0.265625,0.95947265625,-1.3427734375,1.0986328125,-2.0751953125,0.0,0.0,0.0,0.014116216450929642,-0.02731308341026306,0.2580888271331787,-0.9656319618225098
3.44032883644104,2.5606432559230696,2.611247060266636,30.033052120219747,-0.04638671875,-0.185546875,1.02587890625,0.91552734375,-3.72314453125,-4.33349609375,0.0,0.0,0.0,0.015673162415623665,-0.027789631858468056,0.2584739625453949,-0.9654912352561951
3.464346170425415,2.801186723678463,2.6443205437751303,30.10283957806435,-0.07373046875,-0.12255859375,1.091796875,-0.9765625,-7.50732421875,-5.06591796875,0.0,0.0,0.0,0.017607498914003372,-0.028621431440114975,0.2589944303035736,-0.9652941823005676
3.4850809574127197,2.941359494363461,2.598037687855243,30.15206133631805,-0.11572265625,-0.1220703125,1.05224609375,1.03759765625,-14.22119140625,-4.0283203125,0.0,0.0,0.0,0.01888106018304825,-0.028556596487760544,0.259386271238327,-0.9651666879653931
3.5043623447418213,3.1189469741047313,2.577343922217397,30.215315718221536,-0.02978515625,-0.11767578125,1.025390625,2.01416015625,-1.8310546875,-3.96728515625,0.0,0.0,0.0,0.02040795236825943,-0.028795577585697174,0.2598802149295807,-0.9649956822395325
3.5287957191467285,3.2603239925177676,2.5548860467829835,30.277432873628218,-0.07763671875,-0.107421875,0.927734375,3.23486328125,-7.9345703125,-2.3193359375,0.0,0.0,0.0,0.02163398079574108,-0.028938865289092064,0.2603740692138672,-0.9648314714431763
3.546380043029785,3.468887660805515,2.594485989486836,30.30030717715859,-0.03857421875,-0.14599609375,0.91943359375,-4.69970703125,4.5166015625,-1.3427734375,0.0,0.0,0.0,0.023293647915124893,-0.0297506432980299,0.2605014145374298,-0.9647338390350342
3.564466953277588,3.6304504495368777,2.4255551341883224,30.357144596336852,-0.029296875,-0.11181640625,1.0927734375,0.0,-3.662109375,-1.220703125,0.0,0.0,0.0,0.02502554841339588,-0.028708670288324356,0.2609911859035492,-0.9645896553993225
3.5847766399383545,3.8633470936296184,2.3070820879398664,30.41840797809728,0.01416015625,-0.087890625,0.9462890625,-5.126953125,3.96728515625,-4.08935546875,0.0,0.0,0.0,0.027242012321949005,-0.02825678139925003,0.26148712635040283,-0.9644086360931396
3.6101796627044678,3.837588742722208,2.2434251517621706,30.513344192465873,-0.04296875,-0.10205078125,1.15576171875,11.16943359375,2.0751953125,-2.62451171875,0.0,0.0,0.0,0.027148278430104256,-0.027684954926371574,0.26231321692466736,-0.9642034769058228
3.6247661113739014,3.814564601916918,2.3608420800102135,30.55420921427006,-0.06640625,-0.06982421875,0.9296875,3.173828125,-0.79345703125,-2.74658203125,0.0,0.0,0.0,0.02667425200343132,-0.028629375621676445,0.2626242935657501,-0.9641044735908508
3.645442247390747,4.159733761152213,2.3375573247994055,30.635812899378788,-0.05517578125,-0.1689453125,0.88134765625,-5.0048828125,-6.103515625,-4.2724609375,0.0,0.0,0.0,0.029610997065901756,-0.029245605692267418,0.2632315456867218,-0.9638345241546631
3.6644654273986816,4.390886145685662,2.3772642026524515,30.66560959963297,-0.06591796875,-0.17431640625,1.06689453125,-5.7373046875,2.86865234375,-0.8544921875,0.0,0.0,0.0,0.031455617398023605,-0.03011852502822876,0.26340794563293457,-0.9637010097503662
3.6848344802856445,4.437994387278064,2.31313939851661,30.74925551130353,-0.03271484375,-0.13818359375,1.22607421875,13.671875,1.220703125,-3.23486328125,0.0,0.0,0.0,0.03197836875915527,-0.02971111610531807,0.2641228139400482,-0.9635007381439209
3.704113483428955,4.3247250914035105,2.1801346979221283,30.868186180226378,-0.0263671875,-0.080078125,0.9541015625,8.056640625,-0.30517578125,-6.28662109375,0.0,0.0,0.0,0.03130483254790306,-0.028364619240164757,0.2652001678943634,-0.9632676243782043
3.725083351135254,4.231517768668578,2.322239131481771,30.997006963067403,-0.0439453125,-0.0029296875,0.771484375,-10.498046875,11.1083984375,-7.32421875,0.0,0.0,0.0,0.030157696455717087,-0.029376907274127007,0.26625528931617737,-0.9629827737808228
3.744910717010498,4.352149581581581,2.7253368326152367,31.312339721573967,-0.07177734375,-0.0732421875,0.9375,-6.591796875,17.2119140625,-19.53125,0.0,0.0,0.0,0.030138477683067322,-0.03312596678733826,0.26872357726097107,-0.962175726890564
3.7641854286193848,4.536353380194478,3.078691546683969,31.867132082192008,-0.2666015625,-0.16845703125,1.01513671875,-1.46484375,-4.8828125,-33.50830078125,0.0,0.0,0.0,0.030673721805214882,-0.03667191416025162,0.27318620681762695,-0.9607723951339722
3.7862329483032227,4.659760384344622,3.2148528618920538,32.64064759060137,-0.2255859375,-0.1474609375,1.11376953125,2.38037109375,-1.15966796875,-42.90771484375,0.0,0.0,0.0,0.031123366206884384,-0.03831789642572403,0.27956995368003845,-0.9588554501533508
3.804713487625122,4.668676342532428,3.37652813530131,33.64579530433337,-0.14453125,-0.11328125,1.06494140625,3.11279296875,12.6953125,-52.55126953125,0.0,0.0,0.0,0.030451074242591858,-0.039960164576768875,0.28790000081062317,-0.9563418030738831
3.8244240283966064,4.634271399022604,3.4896650962606937,34.76730553586029,-0.2607421875,-0.08984375,0.982421875,6.65283203125,-5.859375,-54.26025390625,0.0,0.0,0.0,0.02947651408612728,-0.041107695549726486,0.29721102118492126,-0.9534709453582764
3.845022678375244,4.795933438940343,3.547368882246489,35.82642540441373,-0.16455078125,-0.1064453125,1.0009765625,-1.0986328125,-3.662109375,-53.03955078125,0.0,0.0,0.0,0.030281197279691696,-0.04228834807872772,0.30592721700668335,-0.9506331086158752
3.859309196472168,4.876977475423953,3.458431921846695,36.86734964901826,-0.0263671875,-0.1591796875,1.15234375,8.85009765625,4.150390625,-51.08642578125,0.0,0.0,0.0,0.030812175944447517,-0.04204914718866348,0.3145584464073181,-0.947805643081665
3.884531021118164,4.9576082854627765,3.4105804702952316,37.79025505495414,-0.1171875,-0.1025390625,0.88720703125,-0.06103515625,-1.89208984375,-41.19873046875,0.0,0.0,0.0,0.03127317503094673,-0.042128268629312515,0.32217296957969666,-0.9452257752418518
3.904604196548462,5.207515942570257,3.145918750806877,38.37606671968779,-0.20849609375,-0.2060546875,0.82177734375,-10.25390625,-18.00537109375,-24.5361328125,0.0,0.0,0.0,0.03387594595551491,-0.04082345962524414,0.3270286023616791,-0.9435243606567383
3.9244766235351562,5.399725576664055,3.0305557885083036,38.74960976539579,0.091796875,-0.2607421875,1.18994140625,4.2724609375,8.85009765625,-14.6484375,0.0,0.0,0.0,0.035658154636621475,-0.04053940996527672,0.3300871253013611,-0.9424052834510803
3.944169282913208,5.467403786715597,2.9325549536364917,38.88071866160877,-0.0830078125,-0.1259765625,0.923828125,7.87353515625,-9.46044921875,-3.11279296875,0.0,0.0,0.0,0.03645332530140877,-0.03997085243463516,0.33118700981140137,-0.9420130848884583
3.9645893573760986,5.646093915121001,2.8894562465302993,38.946824647490736,0.00244140625,-0.09521484375,0.84814453125,-5.18798828125,9.033203125,-2.197265625,0.0,0.0,0.0,0.03802449256181717,-0.04015522077679634,0.3316882252693176,-0.9417667984962463
3.9843196868896484,5.684129531061509,2.92737468203786,38.95374021402537,-0.11376953125,-0.11962890625,1.06396484375,3.5400390625,-5.79833984375,1.28173828125,0.0,0.0,0.0,0.038224104791879654,-0.040578968822956085,0.33171346783638,-0.9417316913604736
4.004510879516602,5.659989081213745,2.9592488270167823,38.9084321541661,-0.1142578125,-0.0615234375,1.04345703125,-2.25830078125,-10.009765625,-0.06103515625,0.0,0.0,0.0,0.03794889897108078,-0.040755800902843475,0.33133429288864136,-0.9418686032295227
4.024535179138184,5.506406301310484,2.8210224468018263,38.92529930632144,0.046875,-0.08642578125,1.126953125,8.48388671875,4.8828125,-2.197265625,0.0,0.0,0.0,0.037083275616168976,-0.039181917905807495,0.33159199357032776,-0.9418792724609375
4.04059624671936,5.292480080750631,2.6735787263019377,39.00624046308068,-0.0537109375,-0.04638671875,0.94140625,-0.91552734375,-3.7841796875,-3.60107421875,0.0,0.0,0.0,0.03572794422507286,-0.037377018481492996,0.33239611983299255,-0.941721498966217
4.066013336181641,5.051490516265071,2.62346370737085,39.08676839339513,0.00048828125,-0.03466796875,1.060546875,2.3193359375,0.732421875,-5.859375,0.0,0.0,0.0,0.03386814892292023,-0.03629012033343315,0.3331572711467743,-0.9415637850761414
4.081851005554199,4.884229428775214,2.61078324773331,39.17918768305457,-0.0302734375,-0.048828125,0.99755859375,3.60107421875,2.3193359375,-4.2724609375,0.0,0.0,0.0,0.032502055168151855,-0.035725899040699005,0.3339744806289673,-0.9413439035415649
4.104353904724121,4.787002966600552,2.644708583897352,39.187230230802264,-0.11572265625,-0.0185546875,0.9248046875,-4.08935546875,-5.4931640625,-1.77001953125,0.0,0.0,0.0,0.0316014289855957,-0.0357232391834259,0.3340567946434021,-0.9413455128669739
4.124601125717163,4.56381500952616,2.5637529129861294,39.284502369867,0.068359375,-0.05419921875,1.1103515625,9.3994140625,7.38525390625,-6.40869140625,0.0,0.0,0.0,0.029975976794958115,-0.03443334996700287,0.33495664596557617,-0.9411268830299377
4.144665002822876,4.46353502590568,2.625012879651974,39.391350434148094,-0.1025390625,0.01513671875,0.7880859375,-7.080078125,-5.615234375,-5.06591796875,0.0,0.0,0.0,0.028940098360180855,-0.03467002883553505,0.3358403742313385,-0.9408356547355652
4.164132118225098,4.496607655640528,2.597040480236421,39.47572376096526,-0.080078125,-0.0224609375,0.8974609375,-6.4697265625,-0.42724609375,-3.72314453125,0.0,0.0,0.0,0.02926858328282833,-0.03455899655818939,0.33653387427330017,-0.9405817985534668
4.184837341308594,4.269359151104564,2.6185566433390193,39.51623019783802,-0.04931640625,-0.04638671875,1.1396484375,6.89697265625,3.7841796875,-0.732421875,0.0,0.0,0.0,0.027327701449394226,-0.0340777225792408,0.3369262218475342,-0.940517246723175
4.204691171646118,4.106220509665633,2.6526281882399814,39.51152761259447,-0.1357421875,0.02197265625,1.0263671875,-0.48828125,-8.6669921875,-0.48828125,0.0,0.0,0.0,0.0258894432336092,-0.0338764488697052,0.3369234800338745,-0.9405661821365356
4.224289417266846,3.814573566540204,2.6140877786311267,39.535788444526354,-0.01416015625,-0.03076171875,1.06787109375,14.0380859375,-2.99072265625,-1.708984375,0.0,0.0,0.0,0.023602433502674103,-0.03270764276385307,0.3372208774089813,-0.9405611753463745
4.244597673416138,3.450911670127099,2.6439463774746605,39.581741957262196,-0.0263671875,0.02197265625,1.05908203125,9.033203125,5.0048828125,-5.31005859375,0.0,0.0,0.0,0.02051638439297676,-0.031890496611595154,0.3376907706260681,-0.9404930472373962
4.262704849243164,3.089043338701358,2.948537169407498,39.908108886372915,-0.09375,0.04736328125,0.98681640625,9.1552734375,12.51220703125,-18.798828125,0.0,0.0,0.0,0.016550298780202866,-0.03337002918124199,0.34037771821022034,-0.9395508170127869
4.284581661224365,2.9026425670532436,3.1420780500592143,40.2800604980043,-0.22705078125,0.05322265625,0.94677734375,6.4697265625,3.2958984375,-28.564453125,0.0,0.0,0.0,0.014333143830299377,-0.03444913029670715,0.3434239327907562,-0.9384390711784363
4.304304361343384,2.6603482229927997,3.416807254940756,41.07226340398282,-0.10302734375,0.06298828125,1.06201171875,7.32421875,11.77978515625,-45.22705078125,0.0,0.0,0.0,0.011273487471044064,-0.036050502210855484,0.3498994708061218,-0.9360254406929016
4.325605630874634,2.436012794137847,3.773319223953327,42.14790550013852,-0.146484375,0.09619140625,0.8681640625,0.48828125,21.97265625,-59.26513671875,0.0,0.0,0.0,0.007988822646439075,-0.03835273161530495,0.35864347219467163,-0.9326522946357727
4.3444743156433105,2.4999822114700705,4.009403431954348,43.881482643568624,-0.27001953125,0.08447265625,0.9130859375,0.30517578125,-7.2021484375,-74.70703125,0.0,0.0,0.0,0.007154680788516998,-0.04058613255620003,0.3726220428943634,-0.9270676970481873
4.36442494392395,2.3780547970488803,4.1221297277898845,45.10193499541236,-0.18603515625,0.03173828125,1.12646484375,11.16943359375,6.7138671875,-84.77783203125,0.0,0.0,0.0,0.005362269934266806,-0.04116050526499748,0.3824852406978607,-0.923028826713562
4.384299278259277,2.3011197596812685,4.370062179566762,46.95992403457424,-0.21875,0.130859375,1.02490234375,-0.30517578125,11.65771484375,-98.44970703125,0.0,0.0,0.0,0.003215997014194727,-0.042957283556461334,0.39735615253448486,-0.9166529178619385
4.404585123062134,2.3101012449964236,4.661355660402643,49.04603797691997,-0.24853515625,0.1494140625,1.0107421875,2.9296875,21.240234375,-107.48291015625,0.0,0.0,0.0,0.0014488565502688289,-0.04535076394677162,0.41388535499572754,-0.9091975092887878
4.425030708312988,2.2137112675516764,4.705649010283353,51.82569615777797,-0.423828125,0.125,0.99658203125,9.3994140625,-6.04248046875,-112.97607421875,0.0,0.0,0.0,-0.0005766706308349967,-0.04535313695669174,0.43584030866622925,-0.8988804221153259
4.444375038146973,2.16528031713782,4.965110821379212,53.53917546957531,-0.2724609375,0.126953125,0.9853515625,6.65283203125,20.751953125,-114.19677734375,0.0,0.0,0.0,-0.0026521896943449974,-0.04716816917061806,0.44916996359825134,-0.8921964168548584
4.464838027954102,2.0782745927258475,5.192568073571684,55.83384582313279,-0.45751953125,0.10986328125,1.01318359375,7.8125,1.77001953125,-114.68505859375,0.0,0.0,0.0,-0.005196247715502977,-0.04850224405527115,0.4669073820114136,-0.8829599022865295
4.484655141830444,2.08744006626177,5.227778125629923,58.1155729682131,-0.41357421875,0.1162109375,0.974609375,5.79833984375,-0.42724609375,-114.31884765625,0.0,0.0,0.0,-0.006240340881049633,-0.04869605973362923,0.48437950015068054,-0.8734793663024902
4.5052690505981445,2.256333142076437,5.435955461342742,60.384322753870386,-0.33447265625,0.12060546875,0.84521484375,-6.34765625,9.1552734375,-112.060546875,0.0,0.0,0.0,-0.006844036281108856,-0.05086958408355713,0.5014315843582153,-0.8636735081672668
4.524460077285767,2.4673543978049195,5.714077349251076,62.54897362638751,-0.412109375,0.02978515625,1.087890625,1.77001953125,2.3193359375,-102.96630859375,0.0,0.0,0.0,-0.007491316646337509,-0.053754549473524094,0.5174558758735657,-0.8539869785308838
4.539330959320068,2.3789348242347543,5.703913173992451,64.4114705904016,-0.431640625,-0.00048828125,1.1435546875,15.869140625,-7.14111328125,-87.2802734375,0.0,0.0,0.0,-0.008969067595899105,-0.05314086005091667,0.5313122272491455,-0.8454601764678955
4.564415216445923,2.430235094430251,5.534225234913124,65.99256376061118,-0.3798828125,0.09033203125,0.8701171875,2.01416015625,-21.484375,-74.951171875,0.0,0.0,0.0,-0.008519659750163555,-0.0520157516002655,0.5429686307907104,-0.8380972146987915
4.584437847137451,2.4939569174050615,5.3756696504072705,67.2688870598656,-0.20751953125,0.02978515625,0.9541015625,-0.9765625,-1.953125,-57.12890625,0.0,0.0,0.0,-0.007869277149438858,-0.05107508599758148,0.5523020625114441,-0.8320407867431641
4.599376916885376,2.5116202134855374,5.289750566403565,68.14624534932126,-0.2509765625,0.0234375,1.037109375,-2.3193359375,-16.845703125,-36.62109375,0.0,0.0,0.0,-0.007712351158261299,-0.05047963559627533,0.5586815476417542,-0.8278087377548218
4.6194748878479,2.422657853319768,5.1429296737786165,68.70462014415897,-0.09423828125,0.0498046875,1.05322265625,-0.8544921875,-6.04248046875,-22.88818359375,0.0,0.0,0.0,-0.007875680923461914,-0.04894883185625076,0.562802791595459,-0.8251030445098877
4.645354270935059,2.1954652709576337,5.046715787148409,69.03154031859246,-0.0556640625,0.02197265625,1.080078125,9.3994140625,-2.50244140625,-14.5263671875,0.0,0.0,0.0,-0.009172172285616398,-0.047114964574575424,0.5652847290039062,-0.8234981894493103
4.664899110794067,1.8718363939304432,4.812646484952541,69.2165496526406,-0.14111328125,0.07177734375,0.9375,5.9814453125,-14.0380859375,-8.9111328125,0.0,0.0,0.0,-0.01041122805327177,-0.043821074068546295,0.5668216347694397,-0.822608470916748
4.684613466262817,1.657430886189925,4.759263007060191,69.37058407880272,0.021484375,0.07861328125,1.017578125,1.52587890625,7.8125,-8.4228515625,0.0,0.0,0.0,-0.0117427296936512,-0.04236181080341339,0.5680243968963623,-0.8218370079994202
4.69968843460083,1.5299572514409787,4.769525366288136,69.54913205389603,-0.0791015625,0.06005859375,0.9423828125,-2.50244140625,-2.197265625,-10.80322265625,0.0,0.0,0.0,-0.012773025780916214,-0.04178359732031822,0.5693479180335999,-0.8209348917007446
4.724292993545532,1.482582205584124,4.766313469830937,69.73957821852349,-0.103515625,0.06689453125,0.9462890625,-5.31005859375,-0.91552734375,-9.33837890625,0.0,0.0,0.0,-0.013165432959794998,-0.04150339588522911,0.570729672908783,-0.8199828863143921
4.744287490844727,1.2416203887420674,4.757216511630126,69.9289657038296,-0.0654296875,-0.00537109375,1.1962890625,14.892578125,2.50244140625,-8.23974609375,0.0,0.0,0.0,-0.014910761266946793,-0.04021354019641876,0.5721726417541504,-0.8190110325813293
4.764511823654175,0.9559021565379153,4.742457326607375,70.10594956560298,-0.13623046875,0.10205078125,0.9169921875,-0.42724609375,-1.46484375,-8.7890625,0.0,0.0,0.0,-0.016938745975494385,-0.03865523636341095,0.5735393166542053,-0.8180902004241943
4.784509897232056,0.9846771031809444,4.697077976648633,70.25367289697202,-0.1328125,0.07470703125,0.84423828125,-7.14111328125,-9.46044921875,-8.056640625,0.0,0.0,0.0,-0.016555549576878548,-0.03845413401722908,0.5745958685874939,-0.8173657655715942
4.80054783821106,0.8877912966911365,4.665357724369447,70.3798401513205,-0.09033203125,0.0107421875,1.01318359375,-2.685546875,-6.04248046875,-6.53076171875,0.0,0.0,0.0,-0.017128951847553253,-0.03772331774234772,0.5755360126495361,-0.8167262673377991
4.824344635009766,0.7666539430578465,4.680242841005021,70.45868785509911,-0.09619140625,0.052734375,1.0966796875,-3.11279296875,0.244140625,-4.82177734375,0.0,0.0,0.0,-0.018092745915055275,-0.03720848634839058,0.5761336088180542,-0.816307783126831
4.84463906288147,0.6757128557451829,4.6992307668976565,70.51130763246489,-0.0615234375,0.05517578125,1.02490234375,-5.0048828125,5.4931640625,-3.0517578125,0.0,0.0,0.0,-0.018853047862648964,-0.036877814680337906,0.5765330195426941,-0.8160234689712524
4.86500883102417,0.4433756468341482,4.698158427197964,70.53589631347694,-0.13671875,0.01025390625,1.07958984375,8.11767578125,-13.3056640625,-1.8310546875,0.0,0.0,0.0,-0.020509779453277588,-0.03569676727056503,0.5767819881439209,-0.8158600330352783
4.8842785358428955,0.2668537833251057,4.529550084894322,70.58748473227804,-0.01904296875,0.0712890625,0.96435546875,-0.244140625,0.3662109375,-4.0283203125,0.0,0.0,0.0,-0.02093265764415264,-0.033598531037569046,0.5772404670715332,-0.8156142830848694
4.904415607452393,0.18349344559900246,4.4610778653517675,70.68949360753219,0.04150390625,0.08544921875,1.017578125,-1.77001953125,6.65283203125,-4.5166015625,0.0,0.0,0.0,-0.0212100762873888,-0.03267243131995201,0.5780049562454224,-0.8151030540466309
4.925252914428711,0.02256392345942719,4.344788772090423,70.78785516176954,-0.0556640625,0.1044921875,0.96044921875,-1.708984375,-5.92041015625,-6.40869140625,0.0,0.0,0.0,-0.02179475873708725,-0.031014811247587204,0.5787724256515503,-0.8146076202392578
4.939732789993286,-0.08916501134483558,4.2021471014638765,70.8887233954323,-0.03564453125,0.11083984375,0.96533203125,-4.08935546875,-2.86865234375,-5.615234375,0.0,0.0,0.0,-0.021894464269280434,-0.029417172074317932,0.5795453190803528,-0.8141146302223206
4.96454644203186,-0.284153638636543,4.186677576767444,71.00793751720569,-0.01025390625,0.04931640625,1.158203125,12.3291015625,2.86865234375,-4.94384765625,0.0,0.0,0.0,-0.023230958729982376,-0.02829691581428051,0.5804437398910522,-0.8134769201278687
4.984342336654663,-0.5702169554763393,4.058772466162023,71.14091447015667,-0.1181640625,0.1328125,0.912109375,2.0751953125,-5.9814453125,-7.4462890625,0.0,0.0,0.0,-0.02464406192302704,-0.02591106854379177,0.5814749002456665,-0.8127781748771667
5.004220962524414,-0.6017512451832007,3.9571938928255936,71.27652787612728,-0.072265625,0.140625,0.89501953125,-8.23974609375,-7.75146484375,-7.568359375,0.0,0.0,0.0,-0.02438214235007763,-0.025001538917422295,0.5824577808380127,-0.8121105432510376
5.024312973022461,-0.770344379643769,3.8404727900992457,71.4125032821239,-0.05712890625,0.0615234375,1.037109375,1.03759765625,-4.39453125,-6.8359375,0.0,0.0,0.0,-0.025011640042066574,-0.02328745648264885,0.5834717750549316,-0.8114141225814819
5.044298887252808,-0.9782434918696155,3.756888777018038,71.51484000645819,-0.08642578125,0.11669921875,1.05712890625,-1.3427734375,-2.44140625,-5.859375,0.0,0.0,0.0,-0.026077741757035255,-0.021613499149680138,0.5842465162277222,-0.8108692169189453
5.064557790756226,-1.0947467755944633,3.763308727951027,71.59082586097458,-0.0380859375,0.11572265625,1.02294921875,-4.0283203125,3.11279296875,-3.23486328125,0.0,0.0,0.0,-0.026948794722557068,-0.02104707807302475,0.5848051309585571,-0.8104528188705444
5.08000373840332,-1.3379063125236774,3.8028512543771695,71.62822797686957,-0.087890625,0.0654296875,1.11865234375,9.1552734375,-2.8076171875,-1.89208984375,0.0,0.0,0.0,-0.028876638039946556,-0.020076468586921692,0.585109531879425,-0.8101913332939148
5.1052751541137695,-1.6574825394955233,3.662982213666825,71.68487756584565,-0.10986328125,0.1083984375,0.9638671875,6.53076171875,-13.48876953125,-2.62451171875,0.0,0.0,0.0,-0.030431315302848816,-0.017440075054764748,0.5855726003646851,-0.80986088514328
5.124204397201538,-1.907257968409541,3.594148847871906,71.75582957094375,0.04736328125,0.12939453125,1.00439453125,3.41796875,3.72314453125,-4.8828125,0.0,0.0,0.0,-0.03185494244098663,-0.015657132491469383,0.5861135721206665,-0.809451162815094
5.144441604614258,-2.0535384223164113,3.52913163683232,71.83900078446699,-0.0146484375,0.1142578125,0.96875,-1.15966796875,1.15966796875,-4.82177734375,0.0,0.0,0.0,-0.03256664425134659,-0.01442567165941,0.5867224931716919,-0.8090043663978577
5.16434907913208,-2.2396593696519664,3.346138916136631,71.95752505713422,-0.0341796875,0.103515625,0.935546875,-2.01416015625,-5.4931640625,-6.53076171875,0.0,0.0,0.0,-0.032957710325717926,-0.012145638465881348,0.5875844955444336,-0.8084000945091248
5.185583114624023,-2.3908690857054706,3.2730943118315756,72.06942404630654,0.01025390625,0.1005859375,1.06298828125,1.0986328125,10.25390625,-6.4697265625,0.0,0.0,0.0,-0.033661048859357834,-0.010821685194969177,0.5883891582489014,-0.8078045845031738
5.199910402297974,-2.6603559069556164,3.3023087384590126,72.15446673166237,-0.10693359375,0.0869140625,1.099609375,9.70458984375,-6.9580078125,-4.33349609375,0.0,0.0,0.0,-0.035717569291591644,-0.009617549367249012,0.5890127420425415,-0.8072768449783325
5.224363565444946,-2.812056969742538,3.2575445324123953,72.24653768167414,-0.1162109375,0.1484375,0.87451171875,-2.86865234375,-6.34765625,-4.7607421875,0.0,0.0,0.0,-0.03656342253088951,-0.008492746390402317,0.5896721482276917,-0.8067700862884521
5.244398355484009,-2.792262654641018,3.219957147636169,72.32646455534163,-0.08544921875,0.1064453125,0.9267578125,-8.30078125,-8.72802734375,-3.47900390625,0.0,0.0,0.0,-0.03623681515455246,-0.008304426446557045,0.5902323126792908,-0.8063769340515137
5.264708995819092,-2.7082925224282928,3.2234648766617937,72.40445165528484,-0.0712890625,0.02001953125,1.041015625,2.86865234375,-5.859375,-2.685546875,0.0,0.0,0.0,-0.035669900476932526,-0.008737367577850819,0.5907748341560364,-0.8060002326965332
5.279357194900513,-2.769119412412076,3.1858821876406216,72.43955199742953,-0.07470703125,0.0869140625,1.02001953125,-1.220703125,-6.103515625,-0.91552734375,0.0,0.0,0.0,-0.035906825214624405,-0.008148178458213806,0.5910252332687378,-0.805812418460846
5.30522346496582,-2.8407969116660707,3.0823307568511162,72.44152592209967,-0.009765625,0.08251953125,1.0078125,-5.55419921875,1.220703125,-0.30517578125,0.0,0.0,0.0,-0.035877879709005356,-0.00704897241666913,0.5910406112670898,-0.8058127760887146
5.324824571609497,-2.779653911989763,2.943219867138643,72.4097450518916,-0.03759765625,0.0361328125,1.06298828125,-0.91552734375,3.72314453125,2.13623046875,0.0,0.0,0.0,-0.03472989425063133,-0.006394767668098211,0.5908083915710449,-0.8060387372970581
5.34450626373291,-2.7443678740770077,2.846575465147313,72.37982199313777,-0.068359375,0.0166015625,1.06787109375,6.4697265625,-8.11767578125,1.64794921875,0.0,0.0,0.0,-0.03398269787430763,-0.005905148107558489,0.5905921459197998,-0.8062328100204468
5.364159345626831,-2.5669492280742836,2.7899322794735744,72.36354565234564,-0.0068359375,-0.03125,0.90478515625,-4.57763671875,1.40380859375,0.732421875,0.0,0.0,0.0,-0.032441992312669754,-0.006425268482416868,0.5904660224914551,-0.8063846230506897
5.385464191436768,-2.2887336385082735,2.763806592454864,72.39796297557332,0.06591796875,-0.13623046875,0.99951171875,-5.0048828125,5.2490234375,-2.197265625,0.0,0.0,0.0,-0.030351951718330383,-0.007665724027901888,0.5906904339790344,-0.806290864944458
5.405039310455322,-2.081378059929972,2.753675074038208,72.46091682915333,0.021484375,-0.0771484375,1.0205078125,1.40380859375,1.708984375,-3.41796875,0.0,0.0,0.0,-0.028845496475696564,-0.008647392503917217,0.5911184549331665,-0.8060225248336792
5.42456316947937,-1.7950023152965005,2.7310169886837485,72.5106679270677,-0.08251953125,-0.033203125,0.88525390625,-5.79833984375,-7.568359375,-1.0986328125,0.0,0.0,0.0,-0.02671864628791809,-0.00995355099439621,0.59144526720047,-0.8058409690856934
5.444589614868164,-1.5703240963225773,2.8013480868976046,72.54386264643396,0.0576171875,-0.087890625,1.18017578125,-1.89208984375,14.5263671875,-2.3193359375,0.0,0.0,0.0,-0.025504617020487785,-0.01160063873976469,0.5916560292243958,-0.8057035803794861
5.464847803115845,-1.4141327177649008,2.8880556308636236,72.54429294835168,-0.14501953125,-0.17041015625,0.97998046875,-1.03759765625,-10.19287109375,-0.244140625,0.0,0.0,0.0,-0.024853747338056564,-0.013016915880143642,0.5916391015052795,-0.8057146072387695
5.487191677093506,-1.0491551561629224,2.7548893536065893,72.57218061073284,-0.1142578125,-0.17333984375,0.84033203125,-12.8173828125,-8.6669921875,-0.244140625,0.0,0.0,0.0,-0.021603725850582123,-0.013959245756268501,0.5917990803718567,-0.8056750297546387
5.504327774047852,-0.5105989022539426,2.6680556645843363,72.60911827376427,0.01171875,-0.2451171875,0.96533203125,-14.34326171875,-5.37109375,-1.40380859375,0.0,0.0,0.0,-0.017373928800225258,-0.01612412929534912,0.5919945240020752,-0.8055934309959412
5.524263381958008,-0.1547352942844208,2.2710428082277057,72.48541671770617,-0.05908203125,-0.306640625,1.02978515625,-5.55419921875,-23.3154296875,13.18359375,0.0,0.0,0.0,-0.012804953381419182,-0.015184860676527023,0.591111958026886,-0.8063450455665588
5.545747756958008,0.2289601606141394,1.9500853889396366,72.01262419316872,0.12060546875,-0.26123046875,1.0166015625,-11.41357421875,-6.8359375,30.57861328125,0.0,0.0,0.0,-0.008387674577534199,-0.014940252527594566,0.5877605676651001,-0.8088534474372864
5.564483404159546,0.4268914655199984,1.5769865189711014,71.27716991390925,0.13720703125,-0.26416015625,1.16064453125,2.3193359375,-13.97705078125,43.02978515625,0.0,0.0,0.0,-0.004990972112864256,-0.01335433404892683,0.5825695395469666,-0.8126558661460876
5.584262132644653,0.37374925872399356,1.2203708164605114,70.32691301544206,0.23974609375,-0.17529296875,1.095703125,9.8876953125,-11.53564453125,51.7578125,0.0,0.0,0.0,-0.003466931404545903,-0.010584354400634766,0.5758469104766846,-0.8174817562103271
5.604251384735107,0.31713197974433316,0.9573074679596454,69.1310903257454,0.23828125,-0.078125,0.86572265625,-0.67138671875,-2.50244140625,65.673828125,0.0,0.0,0.0,-0.002460714429616928,-0.008449375629425049,0.5673076510429382,-0.8234589099884033
5.62443470954895,0.4569096133136756,0.7144245536918169,67.67477788148278,0.21044921875,-0.1953125,1.04150390625,0.42724609375,-2.685546875,76.7822265625,0.0,0.0,0.0,-0.0001597176888026297,-0.007398682180792093,0.5568018555641174,-0.8306124806404114
5.644234657287598,0.6358073687976776,0.4965890636883357,65.98814462821818,0.13134765625,-0.21630859375,0.97802734375,-7.99560546875,-10.6201171875,87.95166015625,0.0,0.0,0.0,0.002293776022270322,-0.0066559892147779465,0.5445185899734497,-0.8387192487716675
5.664592504501343,0.8816682989044846,0.17410952607155863,64.12898079651904,0.15087890625,-0.2236328125,0.91162109375,-2.13623046875,-9.033203125,96.435546875,0.0,0.0,0.0,0.005713642109185457,-0.005372070241719484,0.5308471918106079,-0.8474313616752625
5.68498682975769,1.109448224174387,-0.11919472510337678,62.02981094757484,0.1533203125,-0.240234375,0.96435546875,-5.0048828125,-15.13671875,107.0556640625,0.0,0.0,0.0,0.008833392523229122,-0.004097136203199625,0.515245258808136,-0.8569874167442322
5.7042529582977295,1.2475055572073854,-0.5014459151575966,59.762208633698116,0.275390625,-0.28955078125,1.115234375,-0.06103515625,-10.55908203125,114.3798828125,0.0,0.0,0.0,0.01161898486316204,-0.0016295642126351595,0.4982088506221771,-0.8669776320457458
5.719726800918579,1.255056011169717,-0.4541463215467294,57.31088106133722,0.353515625,-0.24462890625,1.12255859375,7.01904296875,6.591796875,125.0,0.0,0.0,0.0,0.011511088348925114,-0.0017744505312293768,0.47954675555229187,-0.877439022064209
5.7454915046691895,1.4014284591869712,-0.6088512268254289,54.68934858995419,0.11962890625,-0.2060546875,0.81396484375,-2.13623046875,-23.193359375,132.99560546875,0.0,0.0,0.0,0.0133031802251935,-0.000898280821274966,0.45935916900634766,-0.8881505131721497
5.76431679725647,1.4668114055122703,-0.8833101589870793,51.92951161806757,0.326171875,-0.2939453125,1.076171875,8.48388671875,-4.638671875,140.44189453125,0.0,0.0,0.0,0.014882205054163933,0.0013257431564852595,0.4378580152988434,-0.8989199995994568
5.784467697143555,1.5585574946516436,-1.2566241799144697,49.01692771067738,0.21484375,-0.19580078125,0.87158203125,-2.685546875,-22.52197265625,149.169921875,0.0,0.0,0.0,0.01692293956875801,0.004335395991802216,0.4149000346660614,-0.9096993803977966
5.805142641067505,1.8816103946327314,-1.6103839028566425,45.94461641445185,0.287109375,-0.24560546875,0.92236328125,-4.7607421875,-10.8642578125,154.78515625,0.0,0.0,0.0,0.020599622279405594,0.006528932135552168,0.3904074728488922,-0.9203885197639465
5.824642181396484,1.9659354832388858,-1.8160194477028644,42.78235152685725,0.39892578125,-0.3408203125,1.19091796875,6.65283203125,7.01904296875,162.2314453125,0.0,0.0,0.0,0.021750500425696373,0.008496969938278198,0.3648870289325714,-0.9307590126991272
5.844421625137329,2.019582136857693,-1.856163030775968,39.48832204488935,0.3330078125,-0.25341796875,0.9462890625,6.2255859375,-11.65771484375,164.61181640625,0.0,0.0,0.0,0.022055985406041145,0.009290042333304882,0.33799269795417786,-0.9408443570137024
5.864668369293213,2.036937860982107,-1.9828555693602998,36.080098630188004,0.3701171875,-0.2724609375,1.02490234375,10.1318359375,-3.84521484375,173.27880859375,0.0,0.0,0.0,0.02225589007139206,0.01094593945890665,0.3098788559436798,-0.9504525065422058
5.884647607803345,2.2323004811515124,-2.4981564165275616,32.546510508365664,0.205078125,-0.224609375,0.7880859375,4.94384765625,-35.2783203125,179.26025390625,0.0,0.0,0.0,0.024801678955554962,0.015464331954717636,0.28050652146339417,-0.9594070315361023
5.90004563331604,2.4969927230477205,-2.884619618824284,28.891269887236227,0.39404296875,-0.29638671875,0.99609375,9.1552734375,-9.8876953125,186.82861328125,0.0,0.0,0.0,0.02737065963447094,0.01893514022231102,0.24985411763191223,-0.967711329460144
5.919358491897583,2.689818995157524,-2.7673435632278727,25.081926538052958,0.4365234375,-0.28759765625,1.02001953125,-2.01416015625,9.21630859375,195.25146484375,0.0,0.0,0.0,0.028146106749773026,0.01846972107887268,0.21756766736507416,-0.9754645228385925
5.944955587387085,2.8064402063672604,-3.0378406121449455,21.261444857880694,0.37353515625,-0.35791015625,1.0576171875,13.36669921875,-20.01953125,191.46728515625,0.0,0.0,0.0,0.028948111459612846,0.021528305485844612,0.18499623239040375,-0.98207688331604
5.959448575973511,2.900646230824896,-3.227164704757825,17.377999078844667,0.3798828125,-0.2861328125,0.921875,8.056640625,-22.216796875,194.3359375,0.0,0.0,0.0,0.02926238626241684,0.024004383012652397,0.1516672521829605,-0.9877067804336548
5.984333753585815,3.11745820630908,-3.7856750361618796,13.372727484451353,0.35009765625,-0.24853515625,0.82177734375,4.7607421875,-11.90185546875,202.45361328125,0.0,0.0,0.0,0.03084627538919449,0.02962796576321125,0.11722013354301453,-0.9921845197677612
6.004277944564819,3.474107632878697,-3.492200377103238,9.181330673854253,0.47265625,-0.33056640625,0.97265625,4.8828125,2.9296875,207.45849609375,0.0,0.0,0.0,0.032639022916555405,0.02793378010392189,0.08088327944278717,-0.9957972764968872
6.024254560470581,3.550734244516601,-3.793212149910989,5.022554846733136,0.44287109375,-0.42578125,1.15234375,19.22607421875,-32.1044921875,206.54296875,0.0,0.0,0.0,0.03238376975059509,0.03169159218668938,0.04479536414146423,-0.9979681372642517
6.044301748275757,3.508242357029482,-3.8106372431441606,0.8739325760609162,0.6025390625,-0.22509765625,0.96826171875,15.07568359375,-13.61083984375,209.04541015625,0.0,0.0,0.0,0.030846040695905685,0.03299809247255325,0.008636342361569405,-0.998941957950592
6.059637784957886,3.7328144946278585,-4.1097978212434265,-3.418518003884433,0.3779296875,-0.15283203125,0.6865234375,-1.77001953125,-16.90673828125,218.07861328125,0.0,0.0,0.0,0.031464796513319016,0.03679293394088745,-0.02862546406686306,-0.9984171390533447
6.08423638343811,4.0642233840065165,-4.065750358172838,-7.654995983994321,0.7001953125,-0.37841796875,1.15625,14.5263671875,-6.8359375,207.275390625,0.0,0.0,0.0,0.03299181908369064,0.037737082690000534,-0.06541375815868378,-0.9965984225273132
6.1042797565460205,4.192629659742287,-4.004092959874663,-11.691595094789545,0.615234375,-0.330078125,1.08935546875,14.95361328125,-18.4326171875,199.52392578125,0.0,0.0,0.0,0.03281117603182793,0.03845365345478058,-0.10044992715120316,-0.9936571717262268
6.1241350173950195,4.305217644247131,-4.04559446993213,-15.65766225712063,0.705078125,-0.26171875,0.98486328125,4.94384765625,4.57763671875,195.9228515625,0.0,0.0,0.0,0.03238341584801674,0.04005665332078934,-0.13471969962120056,-0.9895440936088562
6.144356727600098,4.46797891773442,-3.854970293499421,-19.548228508366396,0.48583984375,-0.19140625,0.76904296875,-1.5869140625,-2.5634765625,196.59423828125,0.0,0.0,0.0,0.03268742561340332,0.03973497077822685,-0.16824719309806824,-0.9844011664390564
6.165183067321777,4.84869238141046,-4.239648681988655,-23.455819006118418,0.47265625,-0.27978515625,0.82373046875,2.50244140625,-32.8369140625,191.162109375,0.0,0.0,0.0,0.03387688472867012,0.044777099043130875,-0.20141136646270752,-0.9778960943222046
6.184416770935059,5.092217653625387,-4.188469647650926,-27.211504389182064,0.83837890625,-0.31494140625,1.1669921875,4.69970703125,0.18310546875,184.87548828125,0.0,0.0,0.0,0.03455996885895729,0.045925747603178024,-0.23327267169952393,-0.9707112908363342
6.206420421600342,5.233618791143931,-3.989327798436388,-31.690851729903148,0.685546875,-0.234375,1.0263671875,4.57763671875,-3.41796875,176.69677734375,0.0,0.0,0.0,0.03440086171030998,0.045907437801361084,-0.27106431126594543,-0.9608502984046936
6.22466516494751,5.329852741454825,-4.017211618836142,-34.284114048311494,0.63818359375,-0.2421875,0.98046875,13.48876953125,-12.02392578125,171.32568359375,0.0,0.0,0.0,0.0340828113257885,0.047151967883110046,-0.292684942483902,-0.954437255859375
6.239506006240845,5.388537726803575,-3.6607094682205035,-37.69213597243232,0.583984375,-0.19287109375,0.93017578125,7.14111328125,6.4697265625,171.69189453125,0.0,0.0,0.0,0.034157644957304,0.0453711673617363,-0.3210841119289398,-0.9453462958335876
6.264434099197388,5.7027260017373385,-3.599302652487504,-41.17867775125161,0.42724609375,-0.15576171875,0.638671875,-10.31494140625,-9.27734375,173.64501953125,0.0,0.0,0.0,0.03551436588168144,0.04684741422533989,-0.3495963513851166,-0.935054361820221
6.2848591804504395,6.058195086241012,-3.539896868737906,-44.56071422067513,0.72314453125,-0.2578125,1.05029296875,0.79345703125,-0.67138671875,163.75732421875,0.0,0.0,0.0,0.037180572748184204,0.048565905541181564,-0.37691831588745117,-0.924224853515625
6.300510883331299,6.107186752497045,-3.340149053677941,-47.60499783564151,0.765625,-0.26611328125,1.14697265625,12.87841796875,-4.45556640625,145.751953125,0.0,0.0,0.0,0.036972835659980774,0.04811723530292511,-0.4014205038547516,-0.9138814210891724
6.319438934326172,5.974212787753828,-3.1928833449832963,-50.33730914517298,0.7236328125,-0.216796875,1.076171875,14.16015625,7.01904296875,132.32421875,0.0,0.0,0.0,0.03531334176659584,0.04733378440141678,-0.42322754859924316,-0.9040968418121338
6.3403706550598145,5.8645195227966,-3.0705529494010753,-52.8017506807403,0.56689453125,-0.14697265625,0.93017578125,12.20703125,-14.6484375,117.3095703125,0.0,0.0,0.0,0.03390594199299812,0.04670463874936104,-0.44267961382865906,-0.8948206305503845
6.3641579151153564,5.735781982886084,-3.0266312044998966,-54.841333959365315,0.77392578125,-0.099609375,1.07177734375,9.033203125,10.7421875,90.576171875,0.0,0.0,0.0,0.03224971517920494,0.046446073800325394,-0.4586098790168762,-0.8868370056152344
6.385578870773315,5.645986766528396,-2.867352473715669,-56.39840876935854,0.5224609375,-0.033203125,0.818359375,5.126953125,-5.9814453125,72.81494140625,0.0,0.0,0.0,0.03158299997448921,0.045288920402526855,-0.47073134779930115,-0.880547285079956
6.404356241226196,5.738233593911295,-3.0772234828992393,-57.67575659698847,0.4990234375,-0.07275390625,0.80859375,-0.6103515625,-18.24951171875,57.12890625,0.0,0.0,0.0,0.030896726995706558,0.04762561246752739,-0.48037728667259216,-0.8752227425575256
6.424310922622681,5.607747098686433,-3.5262516448801016,-58.55329247136254,0.73486328125,-0.10205078125,1.1318359375,10.8642578125,-3.72314453125,35.09521484375,0.0,0.0,0.0,0.027620702981948853,0.05071594566106796,-0.48689743876457214,-0.8715479373931885
6.444376230239868,5.392326774245639,-3.381810432850669,-59.046500431329164,0.73046875,-0.03173828125,1.083984375,12.87841796875,8.056640625,20.08056640625,0.0,0.0,0.0,0.02638937160372734,0.04881767928600311,-0.4908091127872467,-0.8694980144500732
6.464540958404541,5.324785594864322,-3.634110577158358,-59.2660158810642,0.53662109375,0.0234375,0.8974609375,-1.46484375,-13.0615234375,4.08935546875,0.0,0.0,0.0,0.024694200605154037,0.05048711970448494,-0.49238041043281555,-0.8685636520385742
6.484211206436157,5.166557005664983,-3.7884229066423405,-59.10016522763795,0.6650390625,-0.0078125,1.0380859375,12.26806640625,9.82666015625,-15.2587890625,0.0,0.0,0.0,0.022902101278305054,0.0509418286383152,-0.4911177158355713,-0.8693007826805115
6.505825757980347,4.834440764820406,-3.942401837517462,-58.41858748055155,0.443359375,0.08642578125,0.8271484375,3.72314453125,-7.38525390625,-35.09521484375,0.0,0.0,0.0,0.020020266994833946,0.050566330552101135,-0.48601219058036804,-0.8722582459449768
6.525317430496216,4.750228374335557,-4.172663736137871,-57.764603697712,0.490234375,0.12744140625,0.83447265625,-3.7841796875,0.3662109375,-49.31640625,0.0,0.0,0.0,0.018693769350647926,0.05185316503047943,-0.4809560179710388,-0.8750104308128357
6.5449059009552,4.603560734080111,-4.123411668919732,-56.34215533135431,0.64599609375,0.10400390625,1.0947265625,0.79345703125,21.240234375,-80.6884765625,0.0,0.0,0.0,0.018411632627248764,0.05063740909099579,-0.4701457917690277,-0.8809426426887512
6.56423020362854,4.455387890886324,-4.041012693659521,-54.461353460364585,0.36083984375,0.1171875,0.92822265625,-2.3193359375,17.9443359375,-98.7548828125,0.0,0.0,0.0,0.018420744687318802,0.049101196229457855,-0.45572537183761597,-0.8885742425918579
6.5842673778533936,4.17450063013778,-3.8570103856271394,-52.336228892574326,0.0556640625,0.25390625,0.9931640625,-0.30517578125,20.6298828125,-105.3466796875,0.0,0.0,0.0,0.017838692292571068,0.0462360754609108,-0.4393641948699951,-0.8969409465789795
6.600092887878418,3.691612659120226,-3.6288116310228977,-50.130672017117995,-0.15087890625,0.275390625,1.134765625,16.7236328125,13.85498046875,-109.4970703125,0.0,0.0,0.0,0.015755126252770424,0.04230430722236633,-0.42229554057121277,-0.9053335189819336
6.624935150146484,3.1850292677680163,-3.3062510382705796,-47.968456107039984,-0.17578125,0.3193359375,1.0068359375,8.23974609375,15.93017578125,-105.712890625,0.0,0.0,0.0,0.01365897711366415,0.03763939067721367,-0.4054265320301056,-0.9132502675056458
6.645570516586304,2.9080151511656935,-2.999184302763612,-45.856257672253975,-0.20068359375,0.38427734375,0.9951171875,-0.06103515625,17.02880859375,-104.1259765625,0.0,0.0,0.0,0.013169903308153152,0.03397641330957413,-0.38870570063591003,-0.9206411838531494
6.664533376693726,2.6194808533110865,-2.698394724547298,-43.73866680311824,-0.23876953125,0.326171875,1.0517578125,6.8359375,9.70458984375,-104.4921875,0.0,0.0,0.0,0.012438207864761353,0.030357377603650093,-0.3717910945415497,-0.9277365207672119
6.688408613204956,2.255238817705354,-2.7128442031798716,-41.63398157641925,-0.26123046875,0.33544921875,1.00927734375,6.89697265625,-1.40380859375,-104.736328125,0.0,0.0,0.0,0.009978621266782284,0.02911403216421604,-0.35478031635284424,-0.9344430565834045
6.705532789230347,1.9446643531727619,-2.6616190650652456,-39.53256459523811,-0.1533203125,0.33056640625,0.91796875,2.74658203125,4.21142578125,-103.02734375,0.0,0.0,0.0,0.008112258277833462,0.02759065292775631,-0.3376733362674713,-0.940824031829834
6.724304914474487,1.6511454046062208,-2.5580386059717672,-37.466531409052216,-0.162109375,0.3193359375,0.9853515625,1.8310546875,1.64794921875,-102.9052734375,0.0,0.0,0.0,0.006473750341683626,0.02576286718249321,-0.32074493169784546,-0.9467931389808655
6.744421720504761,1.4178077864251908,-2.469807502934012,-35.44100807483367,-0.22412109375,0.35302734375,1.0234375,2.44140625,2.44140625,-98.7548828125,0.0,0.0,0.0,0.005223412998020649,0.024292295798659325,-0.3040260076522827,-0.9523396492004395
6.766007661819458,1.1385139874656705,-2.465149527363475,-33.466134008405355,-0.20947265625,0.33935546875,1.0390625,0.9765625,1.52587890625,-95.8251953125,0.0,0.0,0.0,0.0033194045536220074,0.02345879375934601,-0.2876277267932892,-0.9574492573738098
6.784310817718506,0.9055089141198555,-2.391409310980136,-31.56165528665777,-0.1728515625,0.32763671875,1.01416015625,2.50244140625,0.91552734375,-93.56689453125,0.0,0.0,0.0,0.001927582430653274,0.022228863090276718,-0.2717318534851074,-0.9621143937110901
6.804318904876709,0.7224886592240747,-2.2785487592387264,-29.772326724127435,-0.20849609375,0.33544921875,1.00146484375,-0.3662109375,0.54931640625,-87.95166015625,0.0,0.0,0.0,0.0009842818835750222,0.020834486931562424,-0.2567223608493805,-0.9662601351737976
6.824269533157349,0.5298878367177347,-2.16318259528898,-28.08462454625772,-0.21337890625,0.31396484375,1.03076171875,2.3193359375,3.72314453125,-81.23779296875,0.0,0.0,0.0,-9.489951480645686e-05,0.019433721899986267,-0.24250787496566772,-0.969954788684845
6.844672679901123,0.185911932874782,-2.051890639179146,-26.544017322353398,-0.21923828125,0.28466796875,1.0205078125,8.97216796875,-0.6103515625,-73.91357421875,0.0,0.0,0.0,-0.0025317578110843897,0.017799314111471176,-0.2295088917016983,-0.9731405377388
6.864189624786377,-0.04399041364874231,-1.9976779336328738,-25.138707608170566,-0.19482421875,0.3515625,0.9208984375,-1.03759765625,0.06103515625,-68.66455078125,0.0,0.0,0.0,-0.004168235696852207,0.016930824145674706,-0.21759465336799622,-0.9758834838867188
6.884484767913818,-0.14704632888819794,-1.862110204552345,-23.820984824809397,-0.1806640625,0.369140625,1.0224609375,-5.4931640625,1.46484375,-63.4765625,0.0,0.0,0.0,-0.004609004128724337,0.015634622424840927,-0.2063763588666916,-0.9783368706703186
6.904348134994507,-0.2632492577123372,-1.7709696543715758,-22.617679662876984,-0.1796875,0.310546875,1.05615234375,-0.1220703125,-0.6103515625,-57.12890625,0.0,0.0,0.0,-0.005282892845571041,0.014703485183417797,-0.19610831141471863,-0.9804577827453613
6.9244067668914795,-0.4987586626060197,-1.725297993660699,-21.544093453661453,-0.138671875,0.27294921875,0.97412109375,5.06591796875,-2.8076171875,-50.537109375,0.0,0.0,0.0,-0.007089171092957258,0.01397666148841381,-0.18694347143173218,-0.9822457432746887
6.9442291259765625,-0.7404412244880715,-1.6951353446773936,-20.639829341517835,-0.10400390625,0.30615234375,0.98046875,2.5634765625,-3.72314453125,-42.17529296875,0.0,0.0,0.0,-0.009006199426949024,0.013395288027822971,-0.17921486496925354,-0.9836775660514832
6.965192556381226,-0.9354353879682663,-1.645546783920926,-19.914758657344084,-0.076171875,0.3134765625,1.0576171875,0.1220703125,-4.638671875,-32.04345703125,0.0,0.0,0.0,-0.010522246360778809,0.01273144967854023,-0.17300741374492645,-0.9847820997238159
6.984772205352783,-1.101216138677229,-1.6809418914169898,-19.3967383276701,-0.0361328125,0.3037109375,1.04638671875,-0.06103515625,-2.99072265625,-22.0947265625,0.0,0.0,0.0,-0.011942369863390923,0.012839452363550663,-0.16857436299324036,-0.9855329990386963
7.004283428192139,-1.2745606835617462,-1.6937892638023722,-19.05612874659261,-0.01123046875,0.29052734375,0.98876953125,-0.06103515625,-1.28173828125,-12.6953125,0.0,0.0,0.0,-0.013414258137345314,0.012734856456518173,-0.1656644642353058,-0.9860087633132935
7.0242600440979,-1.4776672441460652,-1.7052329255916112,-18.889332111966315,-0.0263671875,0.28955078125,0.96142578125,1.40380859375,-3.11279296875,-5.859375,0.0,0.0,0.0,-0.015160118229687214,0.012561758980154991,-0.16425247490406036,-0.9862218499183655
7.046184301376343,-1.6842783321048354,-1.6633845699903547,-18.82334565439482,0.01025390625,0.2978515625,1.0087890625,1.52587890625,0.79345703125,-2.50244140625,0.0,0.0,0.0,-0.016871578991413116,0.011915124952793121,-0.16370254755020142,-0.9862934350967407
7.065442323684692,-1.813070726972123,-1.6235927416595066,-18.784198425166892,-0.00732421875,0.21240234375,0.96630859375,-7.01904296875,3.0517578125,-1.8310546875,0.0,0.0,0.0,-0.017919501289725304,0.011394740082323551,-0.16337426006793976,-0.9863356351852417
7.084625244140625,-1.831096876852256,-1.4337898954744916,-18.72070327909516,-0.0283203125,0.06494140625,1.02197265625,-3.173828125,2.9296875,-4.08935546875,0.0,0.0,0.0,-0.017799369990825653,0.009745062328875065,-0.16280698776245117,-0.9864493012428284
7.107485294342041,-1.8292064085560433,-1.103306603450076,-18.661707520139178,-0.0830078125,0.0322265625,1.01025390625,-3.47900390625,1.46484375,-2.01416015625,0.0,0.0,0.0,-0.01731106825172901,0.006911506410688162,-0.16225869953632355,-0.9865722060203552
7.1247172355651855,-1.6247284740524328,-0.961308464709392,-18.657204717928845,-0.0966796875,-0.08544921875,0.92138671875,-8.4228515625,-0.48828125,-0.30517578125,0.0,0.0,0.0,-0.015349633991718292,0.005979009438306093,-0.16219180822372437,-0.9866217374801636
7.1443681716918945,-1.2627454167929764,-0.876036381046986,-18.62907629137944,-0.0439453125,-0.123046875,1.0166015625,-9.521484375,-0.244140625,-1.52587890625,0.0,0.0,0.0,-0.012110963463783264,0.005760058294981718,-0.16192278265953064,-0.9867123365402222
7.166269302368164,-0.7658049185275022,-0.7704678032965053,-18.619333026528416,-0.06640625,-0.19482421875,0.99755859375,-10.6201171875,0.79345703125,0.18310546875,0.0,0.0,0.0,-0.007682332303375006,0.005553777329623699,-0.1618073731660843,-0.9867768883705139
7.184699296951294,-0.5263760522672902,-0.7364051696579758,-18.636205301325642,-0.08251953125,-0.1845703125,1.037109375,-6.103515625,-5.2490234375,0.06103515625,0.0,0.0,0.0,-0.005573282949626446,0.005597697105258703,-0.16193968057632446,-0.9867690801620483
7.20452880859375,-0.29295439074295737,-0.7671296550613673,-18.64585123598099,-0.03369140625,-0.134765625,1.0078125,-5.7373046875,-2.9296875,0.732421875,0.0,0.0,0.0,-0.0036071641370654106,0.0061918287537992,-0.16201138496398926,-0.9867629408836365
7.225214719772339,0.13933995451371947,-0.7193439440806656,-18.662544218312505,-0.01513671875,-0.26611328125,0.92041015625,-12.5732421875,-0.79345703125,0.18310546875,0.0,0.0,0.0,0.00018202072533313185,0.006391504313796759,-0.16213159263134003,-0.9867483973503113
7.244215726852417,0.5044306011031864,-0.727662260716095,-18.641790688519418,-0.02880859375,-0.34033203125,1.04638671875,-6.89697265625,-6.103515625,-2.62451171875,0.0,0.0,0.0,0.0033153039403259754,0.006979051977396011,-0.16193129122257233,-0.986771821975708
7.270397663116455,0.7791778419530054,-0.771818633287434,-18.622394658823875,-0.02001953125,-0.30810546875,1.0361328125,-5.31005859375,-6.591796875,-3.90625,0.0,0.0,0.0,0.005620084702968597,0.007746560964733362,-0.16174407303333282,-0.9867863059043884
7.279305934906006,1.067594639209547,-0.8127532910046427,-18.588499845067687,-0.05126953125,-0.28515625,0.92529296875,-3.5400390625,-6.8359375,-2.13623046875,0.0,0.0,0.0,0.00804841797798872,0.008503739722073078,-0.1614285111427307,-0.9868149161338806
7.301003694534302,1.369750575424981,-0.9479759354495271,-18.51398931141202,-0.03515625,-0.3134765625,0.9892578125,-7.8125,-1.89208984375,-2.0751953125,0.0,0.0,0.0,0.010466319508850574,0.010086975060403347,-0.1607484668493271,-0.9868883490562439
7.324308156967163,1.673338183323473,-1.0346396167944703,-18.42971160724323,-0.0107421875,-0.29931640625,0.96826171875,-4.8828125,-3.72314453125,-3.7841796875,0.0,0.0,0.0,0.012967385351657867,0.011249586939811707,-0.15998339653015137,-0.9869704246520996
7.346017599105835,1.9739679991462322,-1.212006609491596,-18.318818363426196,-0.03173828125,-0.35009765625,1.06982421875,-1.28173828125,-4.7607421875,-3.60107421875,0.0,0.0,0.0,0.01532133761793375,0.013181943446397781,-0.1589694321155548,-0.9870766401290894
7.3649022579193115,2.1052339897101224,-1.2202896012424116,-18.26021704789478,0.01123046875,-0.32421875,1.04150390625,0.18310546875,-1.0986328125,-6.103515625,0.0,0.0,0.0,0.016447385773062706,0.013426970690488815,-0.1584480106830597,-0.9871390461921692
7.388299226760864,2.353974538243177,-0.9051114824875254,-18.210421553750802,0.029296875,-0.27197265625,0.90771484375,-3.7841796875,23.3154296875,-1.0986328125,0.0,0.0,0.0,0.019031740725040436,0.011047779582440853,-0.1580493450164795,-0.9871859550476074
7.4042394161224365,2.603772912323938,-0.6721020335517733,-18.166083380753662,-0.10546875,-0.30126953125,0.96728515625,-4.08935546875,-9.46044921875,-3.84521484375,0.0,0.0,0.0,0.02150929532945156,0.009376810863614082,-0.15769074857234955,-0.9872097373008728
7.424273490905762,2.823638409253941,-0.8538965362958012,-18.116436443224135,-0.0791015625,-0.328125,1.05859375,-3.173828125,-9.46044921875,-3.23486328125,0.0,0.0,0.0,0.023157648742198944,0.011235332116484642,-0.1572044938802719,-0.9872305989265442
7.444398641586304,3.034872894950575,-0.773746507541523,-18.024469653597205,0.046875,-0.31494140625,1.103515625,-1.52587890625,8.36181640625,-5.79833984375,0.0,0.0,0.0,0.025096334517002106,0.010814523324370384,-0.15641026198863983,-0.9873141050338745
7.46425724029541,3.218902310296225,-0.7381429725540679,-17.91123877753673,-0.10400390625,-0.27685546875,0.8876953125,0.30517578125,-8.23974609375,-6.103515625,0.0,0.0,0.0,0.026741210371255875,0.010732551105320454,-0.1554259955883026,-0.9874272346496582
7.484290361404419,3.3353525533333,-0.8866367812779928,-17.8213005540933,-0.0791015625,-0.2421875,0.919921875,1.15966796875,-3.5400390625,-3.84521484375,0.0,0.0,0.0,0.0275522843003273,0.012148311361670494,-0.1546013206243515,-0.9875180125236511
7.501633882522583,3.5945151167661478,-0.8318113864188295,-17.718852839184983,0.01123046875,-0.150390625,0.9755859375,-2.0751953125,2.62451171875,-5.37109375,0.0,0.0,0.0,0.029870523139834404,0.011998826637864113,-0.15370596945285797,-0.9875921010971069
7.5241851806640625,3.6509896821447523,-0.6613774626160897,-17.665613222152025,-0.10400390625,-0.12255859375,1.12548828125,7.9345703125,-1.64794921875,-0.91552734375,0.0,0.0,0.0,0.030591407790780067,0.010591616854071617,-0.15328948199748993,-0.9876509308815002
7.544958114624023,3.477714399647287,-0.5461803458483009,-17.61678761487019,-0.01904296875,-0.05126953125,1.08056640625,7.8125,-2.01416015625,-3.90625,0.0,0.0,0.0,0.029256371781229973,0.00935448333621025,-0.15291543304920197,-0.9877618551254272
7.564097881317139,3.2078041066686005,-0.5108295812209892,-17.5118520035567,-0.01611328125,-0.021484375,0.943359375,4.94384765625,-5.55419921875,-6.7138671875,0.0,0.0,0.0,0.026984913274645805,0.008664843626320362,-0.15204113721847534,-0.9879677891731262
7.5846335887908936,2.9169157414278666,-0.4850581035437675,-17.363338077791234,0.04150390625,0.06494140625,0.9638671875,5.2490234375,4.5166015625,-7.8125,0.0,0.0,0.0,0.024521565064787865,0.008024889975786209,-0.15078780055046082,-0.9882294535636902
7.599815368652344,2.635083780139746,-0.47242540186956444,-17.200337320796173,-0.01171875,0.0908203125,0.97705078125,1.220703125,-0.732421875,-5.55419921875,0.0,0.0,0.0,0.022118348628282547,0.00751360971480608,-0.14940370619297028,-0.9885004162788391
7.624297857284546,2.3224220524854804,-0.6989479853628027,-17.269981344668206,-0.0341796875,0.06591796875,1.04833984375,7.8125,-18.06640625,7.99560546875,0.0,0.0,0.0,0.019119905307888985,0.009071655571460724,-0.14998330175876617,-0.9884620308876038
7.645586967468262,1.8170467508427166,-0.858023891545193,-17.76844342765386,0.11474609375,0.13232421875,1.10400390625,15.869140625,0.9765625,26.3671875,0.0,0.0,0.0,0.01450915914028883,0.009845552034676075,-0.15429726243019104,-0.9878689050674438
7.665423154830933,1.4708039712472603,-0.99335752656409,-18.271973511003665,0.0,0.20458984375,1.017578125,11.04736328125,-9.521484375,39.55078125,0.0,0.0,0.0,0.01129527110606432,0.010595714673399925,-0.15864932537078857,-0.9872135519981384
7.6843743324279785,1.196105608938689,-1.2510014401236682,-19.2167543053038,0.0361328125,0.154296875,0.94384765625,1.28173828125,-16.17431640625,49.9267578125,0.0,0.0,0.0,0.008468701504170895,0.012505197897553444,-0.1667814999818802,-0.9858782291412354
7.699718475341797,1.040054676145821,-1.5021823939028276,-20.441670185770132,0.0693359375,0.15576171875,0.921875,2.5634765625,-14.09912109375,66.5283203125,0.0,0.0,0.0,0.006605335511267185,0.014510429464280605,-0.1773029863834381,-0.9840272068977356
7.724370956420898,0.7819272598982,-1.752924828192931,-21.93069752860981,0.0810546875,0.12646484375,0.98046875,4.39453125,-10.3759765625,78.2470703125,0.0,0.0,0.0,0.0037886123172938824,0.01631472259759903,-0.19008615612983704,-0.9816244840621948
7.744248867034912,0.7045034904789618,-2.0043766416613638,-23.54707033342979,0.18798828125,0.17919921875,0.9345703125,-6.28662109375,-3.0517578125,81.35986328125,0.0,0.0,0.0,0.0024488698691129684,0.018376553431153297,-0.20390357077121735,-0.9788153767585754
7.76467490196228,0.7234318122989183,-2.1972624644829932,-25.14905022212126,0.2607421875,0.1396484375,1.07666015625,-2.50244140625,-2.44140625,79.65087890625,0.0,0.0,0.0,0.0019863524939864874,0.02008744515478611,-0.21754679083824158,-0.975841224193573
7.785251617431641,0.555254145438957,-2.3248967153991407,-27.078558172082353,0.19384765625,0.08349609375,1.13623046875,11.65771484375,-1.0986328125,76.2939453125,0.0,0.0,0.0,-3.9549315260956064e-05,0.02085729129612446,-0.2339654117822647,-0.972021222114563
7.8070502281188965,0.3482405298864058,-2.505867700100506,-28.207325479602414,0.0908203125,0.119140625,0.93701171875,7.01904296875,-9.21630859375,74.951171875,0.0,0.0,0.0,-0.0023815780878067017,0.021947208791971207,-0.24355316162109375,-0.9696363210678101
7.824698448181152,0.24538769938294563,-2.642570521243726,-29.694254246819604,0.1669921875,0.15673828125,0.95947265625,-1.03759765625,-2.13623046875,73.91357421875,0.0,0.0,0.0,-0.0038392129354178905,0.022837389260530472,-0.25612446665763855,-0.9663664102554321
7.845874071121216,0.18361976407800804,-2.7795809143430086,-31.171945183184352,0.19140625,0.10986328125,1.03515625,0.30517578125,1.52587890625,73.6083984375,0.0,0.0,0.0,-0.004973656497895718,0.023792559280991554,-0.26856717467308044,-0.9629542827606201
7.864168882369995,0.06544672588471673,-2.9571248516283197,-32.61596328694094,0.16162109375,0.10498046875,0.9638671875,3.41796875,-1.89208984375,71.47216796875,0.0,0.0,0.0,-0.006697498727589846,0.02492508292198181,-0.2806927263736725,-0.9594506621360779
7.8844804763793945,0.038614301049895196,-3.106373236172973,-34.03770131362494,0.1494140625,0.14208984375,0.896484375,-6.7138671875,0.06103515625,70.86181640625,0.0,0.0,0.0,-0.007611133623868227,0.02601652406156063,-0.292570024728775,-0.9558598399162292
7.905726909637451,-0.0202054821508896,-3.232615195715495,-35.76369694707633,0.15771484375,0.07958984375,1.1650390625,7.32421875,-3.0517578125,67.07763671875,0.0,0.0,0.0,-0.008828582242131233,0.026789436116814613,-0.30693766474723816,-0.9513115882873535
7.920530319213867,-0.15362657582327052,-3.303581288078751,-36.759005773308935,0.1142578125,0.11376953125,1.0546875,3.0517578125,3.41796875,68.359375,0.0,0.0,0.0,-0.010360578075051308,0.02693221904337406,-0.31521493196487427,-0.9485815167427063
7.9446845054626465,-0.2621569877340905,-3.3559334074064293,-38.14195515569644,0.03173828125,0.103515625,0.89794921875,1.77001953125,-7.14111328125,69.7021484375,0.0,0.0,0.0,-0.011728761717677116,0.026927459985017776,-0.32666152715682983,-0.9446849822998047
7.964308500289917,-0.4153206448183208,-3.484480982680654,-39.530679463027184,0.04638671875,0.09326171875,0.9296875,0.3662109375,-8.30078125,69.3359375,0.0,0.0,0.0,-0.013690570369362831,0.027386698871850967,-0.33811384439468384,-0.9406070113182068
7.984737873077393,-0.41609739207342467,-3.673426853568244,-40.89874244811864,0.12548828125,0.1142578125,1.00634765625,-5.55419921875,-5.55419921875,69.2138671875,0.0,0.0,0.0,-0.014598509296774864,0.028763191774487495,-0.34930679202079773,-0.9364531636238098
8.001006841659546,-0.4133349540801247,-3.8797024084840372,-42.277279528302316,0.13916015625,0.080078125,1.10595703125,-4.150390625,-0.79345703125,69.82421875,0.0,0.0,0.0,-0.015569599345326424,0.030272306874394417,-0.3605307638645172,-0.932125985622406
8.024431228637695,-0.43980617930172894,-4.066831662495815,-43.67345215692296,0.146484375,0.04296875,1.0341796875,2.74658203125,-2.0751953125,69.4580078125,0.0,0.0,0.0,-0.01675841398537159,0.031509462743997574,-0.3718523383140564,-0.9276056289672852
8.045884609222412,-0.5400939002458791,-4.30842142985469,-45.0196312159137,0.07470703125,0.08984375,0.9873046875,3.41796875,-17.08984375,65.61279296875,0.0,0.0,0.0,-0.018741590902209282,0.0329219214618206,-0.38273054361343384,-0.9230830073356628
8.064536809921265,-0.4934372515514922,-4.699048486224182,-46.28267321232704,0.140625,0.10107421875,1.01025390625,-11.29150390625,-9.3994140625,61.4013671875,0.0,0.0,0.0,-0.02006732113659382,0.03600567206740379,-0.39282891154289246,-0.9186873435974121
8.085777759552002,-0.3897626639135149,-4.824981806593584,-47.47502275083075,0.28076171875,-0.00537109375,1.0859375,4.150390625,7.26318359375,59.14306640625,0.0,0.0,0.0,-0.020055308938026428,0.03716413304209709,-0.4023191034793854,-0.914525032043457
8.105878591537476,-0.4055970167611614,-4.942610897592721,-48.710511764132264,0.10546875,0.017578125,0.919921875,5.37109375,1.52587890625,63.5986328125,0.0,0.0,0.0,-0.02100338228046894,0.0378231517970562,-0.4121460020542145,-0.9100901484489441
8.128196954727173,-0.5420092880603916,-5.085606457395638,-49.99000768625617,0.09228515625,0.03125,0.91259765625,2.8076171875,-1.3427734375,65.24658203125,0.0,0.0,0.0,-0.023028749972581863,0.0382135808467865,-0.42230865359306335,-0.9053534865379333
8.144696712493896,-0.5985462322760251,-5.1245816512338465,-51.27415838229944,0.07568359375,0.03515625,0.98486328125,-4.0283203125,-5.43212890625,64.697265625,0.0,0.0,0.0,-0.02404678799211979,0.038046129047870636,-0.4324413239955902,-0.9005380272865295
8.166833639144897,-0.5394220871079848,-5.267604958680268,-52.55538575737794,0.1279296875,0.01416015625,1.0908203125,-1.953125,-1.15966796875,64.697265625,0.0,0.0,0.0,-0.024560296908020973,0.039121273905038834,-0.44244351983070374,-0.8956060409545898
8.185737371444702,-0.31227752951345233,-5.413805157864391,-53.86042317190311,0.16796875,-0.12255859375,1.07763671875,3.23486328125,-3.23486328125,63.232421875,0.0,0.0,0.0,-0.0238160640001297,0.04087245464324951,-0.45251256227493286,-0.8905025124549866
8.204584836959839,0.026744679582349353,-5.477418978472951,-55.11311060153471,0.2080078125,-0.056640625,0.8466796875,-14.0380859375,7.8125,62.1337890625,0.0,0.0,0.0,-0.021898096427321434,0.04246857762336731,-0.46208566427230835,-0.8855471014976501
8.224789381027222,0.7330558156437307,-5.567066491989837,-56.488847304158675,0.107421875,-0.08984375,0.8193359375,-27.03857421875,-2.197265625,72.20458984375,0.0,0.0,0.0,-0.017352281138300896,0.04580354318022728,-0.4723922312259674,-0.8800264596939087
8.244304895401001,1.548759161400437,-5.576338046901307,-58.01304499858204,0.15234375,-0.26220703125,1.0146484375,-20.1416015625,-0.244140625,76.0498046875,0.0,0.0,0.0,-0.01177973672747612,0.049083832651376724,-0.4837159812450409,-0.8737682104110718
8.264535903930664,2.1339914339934034,-5.598777352758914,-59.556087184925474,0.14306640625,-0.33544921875,1.11572265625,-8.48388671875,-1.0986328125,76.11083984375,0.0,0.0,0.0,-0.008107956498861313,0.05162002146244049,-0.4951733648777008,-0.8672214150428772
8.286212921142578,2.510600807751913,-5.679280523637623,-61.08887042713555,0.11083984375,-0.314453125,1.0498046875,0.3662109375,-8.4228515625,76.0498046875,0.0,0.0,0.0,-0.006326667498797178,0.05377582833170891,-0.5065258741378784,-0.8605229258537292
8.304738521575928,2.8060632653024404,-5.77235465768374,-62.6301982359973,0.1240234375,-0.27099609375,1.02392578125,1.28173828125,-15.7470703125,75.74462890625,0.0,0.0,0.0,-0.005270709749311209,0.05571374669671059,-0.5178760886192322,-0.8536232709884644
8.32425308227539,3.1079772634108678,-5.9357733368786425,-64.29957843141845,0.11669921875,-0.29443359375,0.99560546875,3.0517578125,-9.70458984375,84.89990234375,0.0,0.0,0.0,-0.00461210822686553,0.058232277631759644,-0.5300365090370178,-0.8459604382514954
8.352614164352417,3.335119473127873,-6.176916153733704,-67.0489344780237,0.14697265625,-0.388671875,1.26220703125,21.17919921875,-41.6259765625,89.35546875,0.0,0.0,0.0,-0.005519420374184847,0.06094463914632797,-0.5499502420425415,-0.832952618598938
8.364258527755737,3.2522912631670096,-6.550399435286464,-67.99413703650508,0.1796875,-0.43505859375,1.2998046875,26.85546875,-36.56005859375,92.1630859375,0.0,0.0,0.0,-0.008443819358944893,0.0631885752081871,-0.556668221950531,-0.828285276889801
8.38433313369751,3.174977790630696,-6.6119923736743464,-69.84014592386276,0.42919921875,-0.20703125,0.81884765625,15.93017578125,6.4697265625,95.0927734375,0.0,0.0,0.0,-0.010321084409952164,0.06309915333986282,-0.5699511766433716,-0.8191872239112854
8.404610633850098,3.6211588309447214,-6.313158790881595,-71.93059362123687,0.10009765625,-0.16650390625,0.48681640625,-12.6953125,9.21630859375,105.95703125,0.0,0.0,0.0,-0.006789573468267918,0.06307335197925568,-0.5847031474113464,-0.8087632060050964
8.425233125686646,4.175194748112183,-6.550527074446579,-74.19174140634793,0.0546875,-0.38720703125,0.85302734375,-8.4228515625,-28.1982421875,111.63330078125,0.0,0.0,0.0,-0.005428897216916084,0.06747590750455856,-0.6001055836677551,-0.7970514297485352
8.444185256958008,4.702030717570539,-6.924780886715081,-76.52110912088908,0.41162109375,-0.474609375,1.0830078125,-5.67626953125,-17.76123046875,114.44091796875,0.0,0.0,0.0,-0.005215044133365154,0.07273679971694946,-0.6156427264213562,-0.7846440672874451
8.464299440383911,5.0316385714424285,-7.029221309313746,-78.78089086816614,0.625,-0.3828125,1.15771484375,5.43212890625,-9.033203125,110.90087890625,0.0,0.0,0.0,-0.0050053722225129604,0.07513534277677536,-0.630717933177948,-0.7723500728607178
8.484862565994263,5.309974329649149,-7.037143048090491,-81.05751586193644,0.43896484375,-0.48291015625,1.119140625,8.9111328125,-8.23974609375,113.83056640625,0.0,0.0,0.0,-0.0046967691741883755,0.07664206624031067,-0.6457476615905762,-0.7596800923347473
8.50572395324707,5.469764043960659,-7.095774245699527,-83.38677429345087,0.30712890625,-0.37646484375,0.86572265625,7.75146484375,-9.46044921875,120.05615234375,0.0,0.0,0.0,-0.005553170572966337,0.07783238589763641,-0.6609084010124207,-0.7463988661766052
8.524274349212646,5.795610598033988,-6.7189834450411885,-85.93556866526785,0.27099609375,-0.30419921875,0.75927734375,4.08935546875,-5.615234375,127.86865234375,0.0,0.0,0.0,-0.0029611692298203707,0.07722359150648117,-0.6773778796195984,-0.7315648198127747
8.546340465545654,6.484308817330128,-7.134308038562623,-89.54313115089602,0.2939453125,-0.40771484375,0.88720703125,-5.67626953125,-9.09423828125,145.93505859375,0.0,0.0,0.0,-0.003676616121083498,0.08385363966226578,-0.6992943286895752,-0.7098891735076904
8.564354658126831,6.826427443327367,-7.027997851678667,-91.75174112091133,0.63818359375,-0.44140625,1.166015625,8.11767578125,-3.35693359375,149.2919921875,0.0,0.0,0.0,-0.002547334646806121,0.0852539911866188,-0.7126719951629639,-0.6962929964065552
8.584542036056519,7.117896374647552,-6.996465429601657,-94.75866360111775,0.46142578125,-0.44287109375,1.11181640625,13.18359375,-24.35302734375,148.25439453125,0.0,0.0,0.0,-0.002857968909665942,0.086831234395504,-0.7305004596710205,-0.6773635149002075
8.604736328125,7.355024320931116,-6.452936904698614,-97.92873881002826,0.54150390625,-0.337890625,0.95556640625,5.2490234375,24.96337890625,165.22216796875,0.0,0.0,0.0,-0.0003233434399589896,0.08517980575561523,-0.7491849660873413,-0.6568608283996582
8.624249458312988,7.637064176102099,-6.4446907319362925,-101.30314595814887,0.31884765625,-0.4111328125,0.93408203125,10.07080078125,-27.34375,170.10498046875,0.0,0.0,0.0,-0.0012138388119637966,0.08697858452796936,-0.7679944634437561,-0.6345217227935791
8.644476890563965,7.957522137807111,-6.555023473354563,-104.81856236168439,0.5126953125,-0.4228515625,0.92138671875,8.6669921875,-26.123046875,175.29296875,0.0,0.0,0.0,-0.002935584634542465,0.08968320488929749,-0.7867658138275146,-0.6106945872306824
8.664567470550537,8.450987937414899,-6.45119648712073,-108.47333511485569,0.5498046875,-0.39453125,0.767578125,-5.9814453125,-13.916015625,178.466796875,0.0,0.0,0.0,-0.002539196750149131,0.09248916059732437,-0.8055272698402405,-0.5852906107902527
8.684600591659546,8.704383686754142,-5.928704944861326,-112.10068465850938,0.6533203125,-0.4453125,1.1015625,19.71435546875,19.287109375,188.720703125,0.0,0.0,0.0,-0.00045156467240303755,0.09166374057531357,-0.8238381147384644,-0.5593641996383667
8.704330444335938,8.732992787866385,-5.795311777257799,-115.66657616001129,0.52734375,-0.50927734375,1.12939453125,27.7099609375,-53.8330078125,179.62646484375,0.0,0.0,0.0,-0.0021864548325538635,0.09120193868875504,-0.8409174084663391,-0.5334186553955078
8.724265575408936,8.773777554947824,-5.893202902216069,-119.5403452685407,0.8486328125,-0.26708984375,0.97900390625,15.07568359375,-14.83154296875,191.0400390625,0.0,0.0,0.0,-0.005824714433401823,0.09180686622858047,-0.8583629131317139,-0.5047285556793213
8.744563341140747,8.932243920107643,-5.7015273035380005,-123.36698607179703,0.515625,-0.18359375,0.74755859375,3.7841796875,-10.498046875,197.08251953125,0.0,0.0,0.0,-0.0067594172433018684,0.09198656678199768,-0.8747444748878479,-0.4757257103919983
8.7652006149292,9.327668330595424,-5.327560359214639,-127.45843330917475,0.61474609375,-0.28857421875,0.79736328125,-5.126953125,0.9765625,196.47216796875,0.0,0.0,0.0,-0.005586909595876932,0.09333472698926926,-0.8911048173904419,-0.4440602958202362
8.780077695846558,9.547629450173806,-4.729884229005851,-131.52592024294407,0.796875,-0.44384765625,1.12158203125,8.23974609375,-2.8076171875,198.66943359375,0.0,0.0,0.0,-0.0033617813605815172,0.09270290285348892,-0.9065079689025879,-0.41187146306037903
8.804190874099731,9.643299909878175,-4.336760311607896,-135.50111766064816,0.7197265625,-0.34716796875,1.00341796875,12.02392578125,7.87353515625,204.58984375,0.0,0.0,0.0,-0.0030917515978217125,0.09201597422361374,-0.920404314994812,-0.37997299432754517
8.824398279190063,9.757025120879826,-4.077557620813674,-139.4548682843584,0.6689453125,-0.34716796875,0.86181640625,16.4794921875,-7.50732421875,197.81494140625,0.0,0.0,0.0,-0.003803554456681013,0.09200666099786758,-0.9330166578292847,-0.34785085916519165
8.844170331954956,9.71690032082694,-3.847446840128652,-143.4568127228523,0.71435546875,-0.2568359375,0.90966796875,22.15576171875,-19.8974609375,191.22314453125,0.0,0.0,0.0,-0.005223394371569157,0.09086563438177109,-0.9447445273399353,-0.3149189054965973
8.86079216003418,9.373825041459076,-3.294609834603939,-147.25599616564517,1.076171875,-0.20947265625,1.11962890625,30.21240234375,19.775390625,193.66455078125,0.0,0.0,0.0,-0.00446652714163065,0.08644111454486847,-0.9551861882209778,-0.2830677032470703
8.884620189666748,9.101031554876998,-3.0259652610558208,-150.91542027764123,0.818359375,-0.22021484375,0.931640625,26.06201171875,-29.4189453125,186.6455078125,0.0,0.0,0.0,-0.0055626025423407555,0.08337831497192383,-0.9640489816665649,-0.2522434592247009
8.907053709030151,9.042341446886372,-2.679845638308836,-154.58884627743583,0.884765625,-0.1376953125,0.85791015625,12.8173828125,-17.88330078125,185.36376953125,0.0,0.0,0.0,-0.005407693795859814,0.08200327306985855,-0.9718062877655029,-0.22099493443965912
8.925727844238281,8.968452460445175,-2.717984560860541,-157.98671512535543,0.63818359375,-0.24951171875,0.775390625,22.76611328125,-22.8271484375,163.6962890625,0.0,0.0,0.0,-0.00828610360622406,0.08123904466629028,-0.9779709577560425,-0.1921050101518631
8.944633483886719,8.875907666059733,-2.0361190920553516,-161.08523044233172,0.96923828125,-0.17919921875,0.8603515625,2.5634765625,37.353515625,148.37646484375,0.0,0.0,0.0,-0.004760987590998411,0.07922639697790146,-0.9830694198608398,-0.16515164077281952
8.965181112289429,8.53067063181956,-1.1710809697585258,-163.57346835696737,1.05029296875,-0.32470703125,1.04931640625,21.54541015625,16.90673828125,120.66650390625,0.0,0.0,0.0,0.0005379729554988444,0.07506458461284637,-0.9868418574333191,-0.14320723712444305
8.984038829803467,8.328357013509198,-1.3154921929886345,-165.82468504702524,0.77490234375,-0.1494140625,0.8681640625,2.685546875,-16.6015625,108.58154296875,0.0,0.0,0.0,-0.0024026203900575638,0.07346773147583008,-0.9895707368850708,-0.12388109415769577
9.004069566726685,8.429074983010207,-1.5444492053124532,-167.7378893354375,1.06201171875,-0.16943359375,1.0478515625,-5.4931640625,-17.822265625,88.7451171875,0.0,0.0,0.0,-0.0055157579481601715,0.07449979335069656,-0.9913957118988037,-0.10748931020498276
9.024158716201782,8.851404362412312,-1.6499046580548056,-169.5578615416791,0.52783203125,-0.0322265625,0.4970703125,-40.22216796875,-14.22119140625,87.09716796875,0.0,0.0,0.0,-0.00727383466437459,0.07814441621303558,-0.992677628993988,-0.0918244943022728
9.044770240783691,9.227191125262658,-1.0845257176666567,-170.85143106858783,1.02978515625,-0.31591796875,1.24609375,-2.5634765625,16.7236328125,50.96435546875,0.0,0.0,0.0,-0.002988855354487896,0.08092797547578812,-0.9934797286987305,-0.0802483931183815
9.064731121063232,9.22846410176922,-0.05880914271321305,-171.47139367917154,0.92333984375,-0.1259765625,1.00732421875,-1.28173828125,64.453125,29.84619140625,0.0,0.0,0.0,0.005471670534461737,0.08026183396577835,-0.9939963817596436,-0.07415762543678284
9.084340333938599,9.382824669464215,0.04322846402515573,-171.60687731154792,0.4462890625,-0.05029296875,1.01953125,-9.3994140625,2.9296875,-3.47900390625,0.0,0.0,0.0,0.0063601597212255,0.08154232054948807,-0.9939796924591064,-0.0729023888707161
9.10472846031189,9.293251861141375,-0.048460312223159475,-170.837497482681,0.66552734375,-0.03515625,1.22412109375,0.42724609375,-2.99072265625,-53.03955078125,0.0,0.0,0.0,0.006050335243344307,0.08078489452600479,-0.993526041507721,-0.07964436709880829
9.12471079826355,9.315284343856543,-0.035928826081730224,-169.3695395658835,0.35107421875,0.0732421875,0.80419921875,-7.9345703125,29.84619140625,-77.392578125,0.0,0.0,0.0,0.007210976909846067,0.08088146895170212,-0.9924095869064331,-0.0923546627163887
9.144294023513794,9.40353038793311,-0.005178196778593756,-167.5969415517251,0.0693359375,-0.0166015625,1.02392578125,-5.0048828125,22.216796875,-88.5009765625,0.0,0.0,0.0,0.008810028433799744,0.08149439841508865,-0.9908022880554199,-0.10766610503196716
9.164587020874023,9.155299969153688,0.035624242333429965,-165.7333107763088,-0.0361328125,-0.05029296875,1.20703125,8.11767578125,16.6015625,-92.22412109375,0.0,0.0,0.0,0.010218224488198757,0.0791538655757904,-0.9890977144241333,-0.1237582340836525
9.18423318862915,8.937899316740415,0.09259749489777772,-163.94302257220008,-0.13623046875,0.03759765625,0.99658203125,6.2255859375,6.65283203125,-82.763671875,0.0,0.0,0.0,0.01168027427047491,0.07704257220029831,-0.9871968030929565,-0.13917842507362366
9.204390287399292,8.68669776567204,0.1489426668782285,-162.4465691061853,-0.1591796875,0.033203125,1.052734375,14.2822265625,15.19775390625,-65.7958984375,0.0,0.0,0.0,0.012836532667279243,0.07464853674173355,-0.985466480255127,-0.15204858779907227
9.224809646606445,8.344113406150772,0.05727419109938491,-161.37386057627813,-0.21728515625,0.0888671875,0.8916015625,3.41796875,2.01416015625,-47.91259765625,0.0,0.0,0.0,0.012265261262655258,0.07171216607093811,-0.9842096567153931,-0.16136421263217926
9.244227647781372,8.243637908365299,0.4186402768375057,-160.61151584225632,-0.2177734375,0.16064453125,0.77197265625,-10.6201171875,12.451171875,-29.47998046875,0.0,0.0,0.0,0.01569519378244877,0.07023682445287704,-0.9832084774971008,-0.16769486665725708
9.268915176391602,8.003227202411898,0.5382535377905309,-160.11731067467088,-0.22900390625,0.1826171875,1.1787109375,10.498046875,8.4228515625,-22.4609375,0.0,0.0,0.0,0.01666278950870037,0.0679270550608635,-0.9826294779777527,-0.17189422249794006
9.284443140029907,7.57863617662087,0.6489842444496602,-159.71700694779477,-0.15625,0.25048828125,1.12109375,16.9677734375,5.79833984375,-21.78955078125,0.0,0.0,0.0,0.017199300229549408,0.06405922770500183,-0.9822741150856018,-0.17532357573509216
9.305017948150635,7.222455471783046,0.8044422848060594,-159.32203076847128,-0.130859375,0.3291015625,0.9921875,9.1552734375,6.4697265625,-20.99609375,0.0,0.0,0.0,0.018196266144514084,0.06070446968078613,-0.9818650484085083,-0.17867588996887207
9.325300216674805,6.906947689679001,0.8469559435211576,-158.97635489457693,-0.16845703125,0.33251953125,0.9677734375,11.04736328125,0.06103515625,-20.1416015625,0.0,0.0,0.0,0.018243204802274704,0.05787946283817291,-0.9814863204956055,-0.18166443705558777
9.34215760231018,6.639471932252601,0.8954607453554146,-158.60096769779304,-0.11474609375,0.34619140625,0.94970703125,3.5400390625,4.7607421875,-17.51708984375,0.0,0.0,0.0,0.018416302278637886,0.05545105040073395,-0.9810195565223694,-0.18489643931388855
9.364354610443115,6.621410350766148,0.9321846448101634,-158.23163204861376,-0.11328125,0.35595703125,0.8134765625,-14.16015625,2.5634765625,-18.06640625,0.0,0.0,0.0,0.018879437819123268,0.05517631396651268,-0.9804282784461975,-0.18804170191287994
9.384770393371582,6.5979486509671545,1.0162953295094028,-157.87177670200248,-0.1220703125,0.31005859375,1.04443359375,-4.39453125,3.23486328125,-15.80810546875,0.0,0.0,0.0,0.019732559099793434,0.054775170981884,-0.979846179485321,-0.19108086824417114
9.404663801193237,6.348710779285158,0.918068564786451,-157.51764505391563,-0.150390625,0.32275390625,1.1923828125,11.53564453125,-9.033203125,-17.822265625,0.0,0.0,0.0,0.01864015869796276,0.052751149982213974,-0.9793655276298523,-0.1941988468170166
9.424440622329712,6.097279989992764,1.0471597804299269,-157.12932147884374,-0.04736328125,0.37109375,1.099609375,4.5166015625,5.9814453125,-19.71435546875,0.0,0.0,0.0,0.019487854093313217,0.05031660944223404,-0.9788174629211426,-0.19749675691127777
9.445670366287231,5.934723622180576,1.00389928321777,-156.8176053055027,-0.15966796875,0.34814453125,0.96240234375,1.89208984375,2.74658203125,-15.80810546875,0.0,0.0,0.0,0.01897142268717289,0.04895152524113655,-0.9783462882041931,-0.20020613074302673
9.46457839012146,5.669419438023417,0.91411473903066,-156.48934641399188,-0.119140625,0.3408203125,1.005859375,3.173828125,-5.79833984375,-15.80810546875,0.0,0.0,0.0,0.01787545718252659,0.04679284617304802,-0.9778779149055481,-0.20309080183506012
9.484314441680908,5.476812799184112,0.9644958151742608,-156.13555627536357,-0.05126953125,0.34814453125,1.03173828125,3.90625,6.89697265625,-16.54052734375,0.0,0.0,0.0,0.01810299977660179,0.04500385373830795,-0.9773241281509399,-0.20611752569675446
9.50424313545227,5.350607551908378,0.9616134753445154,-155.80916885568533,-0.130859375,0.361328125,0.9365234375,-8.97216796875,-0.30517578125,-14.7705078125,0.0,0.0,0.0,0.017976462841033936,0.0438816212117672,-0.9767820239067078,-0.2089216262102127
9.524226427078247,5.274164928491242,0.9512666992472981,-155.50986996625537,-0.0986328125,0.31494140625,0.9736328125,-0.48828125,-0.6103515625,-14.892578125,0.0,0.0,0.0,0.017861805856227875,0.04320244491100311,-0.9762619137763977,-0.21148835122585297
9.54418134689331,5.072872850348619,0.9846583201607269,-155.21270209584645,-0.1064453125,0.3203125,1.1171875,6.591796875,-2.9296875,-16.357421875,0.0,0.0,0.0,0.017882103100419044,0.04137939214706421,-0.9757848381996155,-0.21403752267360687
9.564671039581299,4.745296123981161,1.0187579328703096,-154.90033022434508,-0.07080078125,0.34521484375,1.041015625,5.2490234375,7.9345703125,-15.68603515625,0.0,0.0,0.0,0.017665481194853783,0.03847787529230118,-0.9753120541572571,-0.21673455834388733
9.584710597991943,4.598389000217942,1.1981646975300364,-154.4926635535437,-0.099609375,0.38427734375,0.93994140625,-5.06591796875,9.58251953125,-23.13232421875,0.0,0.0,0.0,0.019045501947402954,0.036819472908973694,-0.974582314491272,-0.22016100585460663
9.6068754196167,4.426858617610003,1.4298162194814252,-153.83897346883847,-0.14892578125,0.34033203125,1.021484375,7.2021484375,13.00048828125,-37.353515625,0.0,0.0,0.0,0.020884618163108826,0.03479523956775665,-0.9733595848083496,-0.2256641685962677
9.624292612075806,4.109358981589254,1.4205216126815072,-152.86645015367705,-0.1962890625,0.38330078125,0.99072265625,6.65283203125,2.8076171875,-56.0302734375,0.0,0.0,0.0,0.020452188327908516,0.03194417059421539,-0.9715018272399902,-0.2339775562286377
9.644200086593628,3.875836948300633,1.578098132258521,-151.46680778895802,-0.09716796875,0.40771484375,0.99169921875,5.9814453125,17.51708984375,-76.2939453125,0.0,0.0,0.0,0.02167150191962719,0.0293788593262434,-0.9686282277107239,-0.24581846594810486
9.665332794189453,3.6515203024658973,1.7004542477718352,-149.7346444946861,-0.2333984375,0.396484375,1.00244140625,4.94384765625,4.5166015625,-91.6748046875,0.0,0.0,0.0,0.022633232176303864,0.026880204677581787,-0.9648510813713074,-0.260437548160553
9.684266805648804,3.5077377768045475,1.8455790123267986,-147.67073891242669,-0.1572265625,0.40869140625,1.01220703125,1.0986328125,15.13671875,-109.375,0.0,0.0,0.0,0.023980624973773956,0.02491069957613945,-0.9600285291671753,-0.27775827050209045
9.70478105545044,3.3874598530679156,1.9397041417314518,-145.31553942244454,-0.27685546875,0.36572265625,0.98974609375,3.5400390625,-0.67138671875,-121.7041015625,0.0,0.0,0.0,0.02495880052447319,0.02316603623330593,-0.9541367888450623,-0.297428160905838
9.72519063949585,3.2392887174214207,1.7866769550284896,-142.7709524471563,-0.24072265625,0.3486328125,1.03466796875,6.34765625,-1.40380859375,-131.4697265625,0.0,0.0,0.0,0.023790430277585983,0.021807854995131493,-0.9473344087600708,-0.318615585565567
9.744204759597778,3.184083713454793,1.75251021436597,-140.1120554259187,-0.24853515625,0.33056640625,0.98876953125,-1.3427734375,-1.5869140625,-132.4462890625,0.0,0.0,0.0,0.0238458551466465,0.020899087190628052,-0.9396988153457642,-0.3405301570892334
9.764600276947021,3.0856515094482115,1.6007244145446577,-137.495737803967,-0.27783203125,0.259765625,1.01904296875,4.33349609375,-3.90625,-130.18798828125,0.0,0.0,0.0,0.022772157564759254,0.020029326900839806,-0.9317019581794739,-0.3619554936885834
9.78504729270935,2.93109756202234,1.6053717179446167,-135.12077174652683,-0.26123046875,0.2451171875,0.93408203125,3.47900390625,-0.18310546875,-112.6708984375,0.0,0.0,0.0,0.022705676034092903,0.018291357904672623,-0.9240261316299438,-0.3812160789966583
9.805387020111084,2.888513466981426,1.5514008437836453,-133.06992548596045,-0.31982421875,0.28955078125,0.99609375,-2.62451171875,-1.953125,-96.00830078125,0.0,0.0,0.0,0.022449800744652748,0.017728907987475395,-0.9170636534690857,-0.39771339297294617
9.820148229598999,2.805274378453304,1.4709066375282218,-131.36336174069777,-0.30419921875,0.2744140625,1.1083984375,1.40380859375,-1.3427734375,-77.69775390625,0.0,0.0,0.0,0.021772760897874832,0.017020199447870255,-0.911052942276001,-0.4113621711730957
9.844673156738281,2.5998071337370994,1.4569734785082191,-130.02047824798154,-0.24072265625,0.24951171875,0.98486328125,6.2255859375,-3.5400390625,-61.09619140625,0.0,0.0,0.0,0.02110384777188301,0.015190440230071545,-0.9061986804008484,-0.4220520853996277
9.864392042160034,2.4282780317896306,1.3985019365710323,-128.96891598374472,-0.2529296875,0.298828125,0.908203125,1.64794921875,-7.01904296875,-49.13330078125,0.0,0.0,0.0,0.020137853920459747,0.013865369372069836,-0.9023100733757019,-0.4303937256336212
9.884349346160889,2.289745787165905,1.357413759680057,-128.1312752443127,-0.23876953125,0.3173828125,0.9873046875,-1.15966796875,-2.8076171875,-38.51318359375,0.0,0.0,0.0,0.019388053566217422,0.012787645682692528,-0.8991565704345703,-0.43701040744781494
9.905650854110718,2.1388521808049252,1.4011689119985107,-127.44171300608656,-0.228515625,0.3046875,1.0556640625,0.732421875,-0.6103515625,-31.982421875,0.0,0.0,0.0,0.019224317744374275,0.011321122758090496,-0.896525502204895,-0.4424300789833069
