time,imu.ypr.x,imu.ypr.y,imu.ypr.z,imu.linear_acceleration.x,imu.linear_acceleration.y,imu.linear_acceleration.z,imu.angular_velocity.x,imu.angular_velocity.y,imu.angular_velocity.z,imu.compass.x,imu.compass.y,imu.compass.z,imu.orientation.x,imu.orientation.y,imu.orientation.z,imu.orientation.w
0.09968447685241699,-1.9670855163403866,2.3637231391794895,169.34508748865485,-0.04150390625,0.03466796875,1.00439453125,0.0,-0.06103515625,-0.18310546875,0.0,0.0,0.0,0.022127199918031693,-0.015172646380960941,-0.9953547716140747,0.09246175736188889
0.11563277244567871,-1.9601970571190173,2.337565862535868,169.3485162436182,-0.041015625,0.03466796875,1.00341796875,0.1220703125,-0.18310546875,0.06103515625,0.0,0.0,0.0,0.021893998607993126,-0.015134730376303196,-0.9953627586364746,0.09243767708539963
0.13486695289611816,-1.8343068523187502,2.4018957857902214,169.3559201686785,-0.0419921875,0.0322265625,1.00537109375,-0.18310546875,-1.15966796875,-0.18310546875,0.0,0.0,0.0,0.022350283339619637,-0.013990391045808792,-0.9953739643096924,0.09238725900650024
0.15941119194030762,-1.858602688970132,2.310360365298061,169.3575594140793,-0.041015625,0.03271484375,1.00439453125,-0.1220703125,-1.0986328125,-0.30517578125,0.0,0.0,0.0,0.021574610844254494,-0.014276067726314068,-0.9953874945640564,0.0923827588558197
0.17911243438720703,-1.9270968931840775,2.2803448855470285,169.35780530088942,-0.04052734375,0.03369140625,1.0048828125,-0.06103515625,-0.3662109375,-0.18310546875,0.0,0.0,0.0,0.02136908657848835,-0.014895450323820114,-0.9953837394714355,0.09237261116504669
0.2003769874572754,-1.9573332868660778,2.301297771486512,169.35914401796674,-0.04052734375,0.03369140625,1.00439453125,-0.1220703125,-0.18310546875,-0.06103515625,0.0,0.0,0.0,0.02157527394592762,-0.015141332522034645,-0.9953775405883789,0.09235189855098724
0.2154700756072998,-1.9639263404058442,2.278080677837169,169.3629825842803,-0.0400390625,0.0341796875,1.00439453125,-0.244140625,-0.6103515625,0.06103515625,0.0,0.0,0.0,0.021378418430685997,-0.015218165703117847,-0.9953835010528564,0.09232112765312195
0.2391219139099121,-1.921014182841358,2.277469162463041,169.36841941485963,-0.0400390625,0.03369140625,1.00439453125,0.1220703125,-0.91552734375,-0.18310546875,0.0,0.0,0.0,0.021337827667593956,-0.014846923761069775,-0.9953936338424683,0.0922819972038269
0.2550194263458252,-1.9171564066207702,2.2706116525363487,169.37227164155152,-0.04052734375,0.03369140625,1.00390625,0.18310546875,-0.79345703125,-0.30517578125,0.0,0.0,0.0,0.021274661645293236,-0.014819691888988018,-0.9953982830047607,0.09225040674209595
0.2789745330810547,-1.9746123848057406,2.256353205757124,169.37146567922946,-0.03955078125,0.03466796875,1.00439453125,-0.3662109375,-0.67138671875,-0.1220703125,0.0,0.0,0.0,0.02119717188179493,-0.01533018983900547,-0.995392382144928,0.09224910289049149
0.30826735496520996,-1.9481229902137271,2.27030728223146,169.3743890001942,-0.0400390625,0.0341796875,1.00439453125,-0.30517578125,-0.48828125,-0.1220703125,0.0,0.0,0.0,0.0212966687977314,-0.015089323744177818,-0.9953959584236145,0.0922262892127037
0.3197190761566162,-1.9274633755217312,2.4011752008327854,169.37777677402255,-0.0419921875,0.03369140625,1.00341796875,0.1220703125,-0.3662109375,-0.06103515625,0.0,0.0,0.0,0.02241629920899868,-0.01480442751199007,-0.9953799843788147,0.09217940270900726
0.341264009475708,-1.928884481755917,2.2998461428444728,169.38082303839238,-0.04052734375,0.033203125,1.00537109375,-0.06103515625,-0.48828125,-0.06103515625,0.0,0.0,0.0,0.021536918357014656,-0.01489946898072958,-0.995398998260498,0.09216921031475067
0.35952091217041016,-1.825601776221569,2.292606782654494,169.3863964727551,-0.0400390625,0.0322265625,1.0048828125,-0.244140625,-1.15966796875,-0.18310546875,0.0,0.0,0.0,0.021390272304415703,-0.0140092046931386,-0.9954176545143127,0.09214124083518982
0.37558984756469727,-2.001818735817194,2.2704803848382373,169.38242130265814,-0.0400390625,0.03466796875,1.0048828125,-0.3662109375,-0.42724609375,-0.06103515625,0.0,0.0,0.0,0.02134029194712639,-0.015557102859020233,-0.9953952431678772,0.09214648604393005
0.3990318775177002,-1.8930970652694004,2.3932803559258966,169.39012575604193,-0.0419921875,0.033203125,1.00439453125,-0.1220703125,-0.1220703125,-0.06103515625,0.0,0.0,0.0,0.022318517789244652,-0.014514713548123837,-0.9953956604003906,0.09208012372255325
0.4188578128814697,-1.8601825971025205,2.283267566181559,169.39587677532307,-0.04052734375,0.03271484375,1.00439453125,-0.06103515625,-0.67138671875,-0.1220703125,0.0,0.0,0.0,0.021335771307349205,-0.014318922534584999,-0.9954224824905396,0.0920538604259491
0.4388999938964844,-2.012418549078819,2.259170658789754,169.39415556765223,-0.04052734375,0.03515625,1.00390625,-0.1220703125,-0.732421875,-0.18310546875,0.0,0.0,0.0,0.02124897763133049,-0.015660515055060387,-0.9954050779342651,0.09204449504613876
0.4590127468109131,-1.8850440587945438,2.360967798179624,169.4005896058504,-0.04150390625,0.033203125,1.00634765625,0.1220703125,-0.8544921875,-0.06103515625,0.0,0.0,0.0,0.022030059248209,-0.014472932554781437,-0.9954105019569397,0.09199593961238861
0.47886109352111816,-1.9541715496105967,2.2673286794230996,169.4013819077941,-0.04052734375,0.0341796875,1.0048828125,0.0,-0.732421875,-0.244140625,0.0,0.0,0.0,0.021272093057632446,-0.01514928787946701,-0.9954174160957336,0.09199116379022598
0.5046942234039307,-1.9364525447997025,2.299759057932555,169.40617670059146,-0.0400390625,0.0341796875,1.0029296875,-0.244140625,-0.91552734375,-0.18310546875,0.0,0.0,0.0,0.021538937464356422,-0.014970045536756516,-0.99541836977005,0.09194754809141159
0.5199930667877197,-1.9013139962843373,2.404117304817768,169.41091685187544,-0.0419921875,0.033203125,1.00390625,-0.244140625,-0.3662109375,-0.18310546875,0.0,0.0,0.0,0.022416602820158005,-0.014581384137272835,-0.9954094886779785,0.091896191239357
0.5390899181365967,-1.9201081155592736,2.227830976113385,169.41449587100053,-0.03955078125,0.0341796875,1.00537109375,0.244140625,-0.6103515625,-0.18310546875,0.0,0.0,0.0,0.02089996077120304,-0.014887720346450806,-0.9954385161399841,0.09188991785049438
0.5556530952453613,-1.8905861169757745,2.1960848971814007,169.42031519217338,-0.03857421875,0.03369140625,1.00634765625,-0.06103515625,-0.91552734375,-0.30517578125,0.0,0.0,0.0,0.020599784329533577,-0.01465794537216425,-0.9954518675804138,0.09184981137514114
0.5745735168457031,-1.9987084384238993,2.2729906928016286,169.4174191919653,-0.0400390625,0.03515625,1.00439453125,-0.30517578125,-0.67138671875,-0.1220703125,0.0,0.0,0.0,0.021354852244257927,-0.015534576959908009,-0.9954233169555664,0.09184253960847855
0.6009788513183594,-2.022044420053483,2.356115162217742,169.42020590914666,-0.04150390625,0.03515625,1.00439453125,-0.06103515625,-0.18310546875,-0.1220703125,0.0,0.0,0.0,0.022095197811722755,-0.015670694410800934,-0.9954090118408203,0.09179998934268951
0.6197681427001953,-1.985912932787527,2.3110278028460183,169.42407179621688,-0.04052734375,0.03515625,1.00244140625,0.06103515625,-0.30517578125,0.06103515625,0.0,0.0,0.0,0.021674098446965218,-0.015393968671560287,-0.9954243302345276,0.0917808935046196
0.639171838760376,-1.9219706227685716,2.3812391593059874,169.4301779853349,-0.0419921875,0.03369140625,1.0048828125,-0.06103515625,-1.15966796875,-0.244140625,0.0,0.0,0.0,0.022231964394450188,-0.0147830406203866,-0.9954261183738708,0.0917285606265068
0.6593279838562012,-1.9481686671038017,2.30435940378197,169.4322953439776,-0.04052734375,0.0341796875,1.00537109375,-0.18310546875,-1.0986328125,-0.3662109375,0.0,0.0,0.0,0.02158486470580101,-0.015073023736476898,-0.99543696641922,0.0917176753282547
0.674626350402832,-1.9477257720248087,2.2967738383784364,169.43476787245714,-0.03955078125,0.03369140625,1.00341796875,0.06103515625,-0.3662109375,-0.18310546875,0.0,0.0,0.0,0.021518291905522346,-0.01507575809955597,-0.9954402446746826,0.09169749915599823
0.7005634307861328,-1.906788179460691,2.257606118582998,169.4387840236891,-0.0400390625,0.0341796875,1.00390625,-0.1220703125,-0.48828125,-0.1220703125,0.0,0.0,0.0,0.021144788712263107,-0.014752449467778206,-0.9954550266265869,0.09167662262916565
0.7190923690795898,-1.8606893117615708,2.3457230293955673,169.4431553447579,-0.041015625,0.03271484375,1.00439453125,-0.06103515625,-0.732421875,0.0,0.0,0.0,0.0,0.021872783079743385,-0.014281824231147766,-0.9954501986503601,0.09163323044776917
0.7406628131866455,-1.9377690637622225,2.212285465562436,169.44412523162003,-0.0390625,0.03369140625,1.00537109375,0.0,-0.42724609375,-0.06103515625,0.0,0.0,0.0,0.020775198936462402,-0.015059063211083412,-0.9954622983932495,0.09163186699151993
0.759209156036377,-1.969523466987258,2.3155502418502127,169.4442754957818,-0.041015625,0.0341796875,1.00390625,0.06103515625,-0.79345703125,-0.18310546875,0.0,0.0,0.0,0.021697567775845528,-0.015251772478222847,-0.9954419136047363,0.0916077122092247
0.7809462547302246,-1.9598850028513122,2.3481078326329596,169.44624259026276,-0.041015625,0.0341796875,1.00244140625,-0.244140625,-0.54931640625,-0.1220703125,0.0,0.0,0.0,0.021972406655550003,-0.015142195858061314,-0.9954395294189453,0.0915871262550354
0.7947077751159668,-1.9402268646463694,2.3698163082493755,169.4507641754933,-0.04150390625,0.03369140625,1.00537109375,-0.3662109375,-0.3662109375,-0.06103515625,0.0,0.0,0.0,0.02214466966688633,-0.014954819343984127,-0.9954421520233154,0.09154804795980453
0.8194737434387207,-1.9323708664403854,2.2247501339108866,169.45484862861696,-0.0390625,0.03369140625,1.00390625,0.30517578125,-0.42724609375,-0.1220703125,0.0,0.0,0.0,0.02087775059044361,-0.015004085376858711,-0.9954696893692017,0.09153764694929123
0.8363306522369385,-1.918565346580497,2.3739626599623964,169.45915164779407,-0.04150390625,0.03369140625,1.00341796875,0.06103515625,-0.91552734375,-0.30517578125,0.0,0.0,0.0,0.02216229774057865,-0.014764934778213501,-0.9954509735107422,0.09147863835096359
0.8593149185180664,-1.9143903934503268,2.266188251275119,169.46167881778698,-0.0400390625,0.03369140625,1.00439453125,-0.30517578125,-0.9765625,-0.30517578125,0.0,0.0,0.0,0.02122245915234089,-0.01481581386178732,-0.9954710006713867,0.09147494286298752
0.8791117668151855,-1.939635199509517,2.364300503607767,169.46484802556188,-0.04248046875,0.03466796875,1.00341796875,-0.30517578125,-0.48828125,-0.18310546875,0.0,0.0,0.0,0.022094447165727615,-0.014956836588680744,-0.9954543709754944,0.09142669290304184
0.899057149887085,-2.053923047344048,2.517458317678606,169.46297655372928,-0.0439453125,0.03564453125,1.00537109375,-0.1220703125,-0.18310546875,-0.18310546875,0.0,0.0,0.0,0.023516224697232246,-0.015826096758246422,-0.9954113364219666,0.09139438718557358
0.9188141822814941,-1.9693245377276813,2.320302132521838,169.4701482523578,-0.0390625,0.03466796875,1.00537109375,-0.18310546875,-0.42724609375,-0.1220703125,0.0,0.0,0.0,0.021735239773988724,-0.01525112520903349,-0.9954618811607361,0.09138219803571701
0.939185380935669,-1.9198460070498744,2.253719527501849,169.4768008566094,-0.03955078125,0.0341796875,1.00390625,-0.18310546875,-0.9765625,-0.1220703125,0.0,0.0,0.0,0.02111653983592987,-0.014876018278300762,-0.9954843521118164,0.09134456515312195
0.9590516090393066,-1.9142093934373214,2.311367177870403,169.480120328546,-0.041015625,0.033203125,1.005859375,0.1220703125,-0.91552734375,-0.1220703125,0.0,0.0,0.0,0.021612387150526047,-0.014781394973397255,-0.9954784512519836,0.09130748361349106
0.9904673099517822,-1.924698643011757,2.3030211135914707,169.4805574606529,-0.04052734375,0.03369140625,1.0029296875,-0.1220703125,-0.67138671875,0.0,0.0,0.0,0.0,0.021548187360167503,-0.014879299327731133,-0.9954788684844971,0.09130300581455231
0.9959104061126709,-2.038966427165601,2.31601277372307,169.47794832838994,-0.04052734375,0.03564453125,1.005859375,-0.18310546875,-0.42724609375,-0.18310546875,0.0,0.0,0.0,0.021752431988716125,-0.015861032530665398,-0.9954593777656555,0.09130194783210754
1.0306057929992676,-1.8662036222992984,2.3888567412212556,169.48886297068364,-0.0419921875,0.033203125,1.00341796875,-0.06103515625,-0.54931640625,-0.1220703125,0.0,0.0,0.0,0.022246165201067924,-0.014303861185908318,-0.9954787492752075,0.09122826904058456
1.0361135005950928,-1.8951166668296084,2.4475812136011443,169.48981919716744,-0.04296875,0.033203125,1.00390625,0.0,-0.30517578125,0.0,0.0,0.0,0.0,0.022779177874326706,-0.014508119784295559,-0.9954658150672913,0.0912049412727356
1.058995008468628,-1.9530270660377964,2.303388663146182,169.4907344425162,-0.0400390625,0.0341796875,1.00390625,0.0,-0.91552734375,-0.30517578125,0.0,0.0,0.0,0.02157260850071907,-0.015127013437449932,-0.9954831004142761,0.09120924770832062
1.083071231842041,-1.9890031665001344,2.365003799648867,169.49114425386642,-0.041015625,0.03515625,1.00537109375,-0.30517578125,-0.67138671875,-0.06103515625,0.0,0.0,0.0,0.02213641069829464,-0.015390210784971714,-0.9954686760902405,0.09118855744600296
1.0990817546844482,-1.9981726954608765,2.3255912602603663,169.4939036502911,-0.041015625,0.03515625,1.00439453125,-0.18310546875,-0.244140625,0.0,0.0,0.0,0.0,0.021800976246595383,-0.015502001158893108,-0.9954760670661926,0.09116945415735245
1.1191105842590332,-1.8957823968302732,2.309555683636469,169.50158078291818,-0.04052734375,0.033203125,1.00537109375,0.1220703125,-0.30517578125,-0.06103515625,0.0,0.0,0.0,0.021579226478934288,-0.014626813121140003,-0.9954982399940491,0.09112472832202911
1.138829231262207,-1.9176402828347834,2.3190560498851336,169.5047909718281,-0.041015625,0.0341796875,1.00634765625,-0.06103515625,-1.03759765625,-0.1220703125,0.0,0.0,0.0,0.02167872153222561,-0.01480969600379467,-0.9954964518547058,0.09109125286340714
1.1599817276000977,-1.9522486379158264,2.3143316934136,169.50668976441736,-0.04052734375,0.03466796875,1.0029296875,-0.18310546875,-1.15966796875,-0.30517578125,0.0,0.0,0.0,0.021664943546056747,-0.015114489942789078,-0.9954941868782043,0.09106902778148651
1.1790363788604736,-1.9673072840450005,2.4102962781391026,169.50923059478862,-0.0419921875,0.03466796875,1.0029296875,0.06103515625,-0.30517578125,-0.18310546875,0.0,0.0,0.0,0.022510187700390816,-0.015168963000178337,-0.9954783320426941,0.09102816879749298
1.1997809410095215,-1.8642356740446884,2.2748218238294267,169.5173858406576,-0.0400390625,0.03271484375,1.00537109375,-0.06103515625,-0.244140625,-0.18310546875,0.0,0.0,0.0,0.021250426769256592,-0.014383502304553986,-0.9955203533172607,0.09099891036748886
1.2190864086151123,-1.898015655245456,2.3381069415841798,169.52040478427074,-0.041015625,0.033203125,1.0029296875,-0.1220703125,-0.732421875,-0.1220703125,0.0,0.0,0.0,0.021826617419719696,-0.014626927673816681,-0.9955083131790161,0.09095623344182968
1.2342183589935303,-1.8903581594122252,2.3247039759984993,169.52432531285433,-0.041015625,0.03271484375,1.00341796875,-0.06103515625,-1.03759765625,-0.30517578125,0.0,0.0,0.0,0.021703612059354782,-0.01457186322659254,-0.9955145716667175,0.09092580527067184
1.2589294910430908,-1.8729667902380802,2.2632401708746124,169.527767728196,-0.0400390625,0.03271484375,1.0048828125,0.1220703125,-0.8544921875,-0.244140625,0.0,0.0,0.0,0.02115544117987156,-0.014470534399151802,-0.995529294013977,0.09090890735387802
1.2794413566589355,-1.8692678159156952,2.2566298284185096,169.53040418121566,-0.0400390625,0.03271484375,1.00439453125,-0.1220703125,-0.3662109375,0.0,0.0,0.0,0.0,0.021094748750329018,-0.01444416493177414,-0.9955329298973083,0.09088767319917679
1.3009190559387207,-1.8673920752148805,2.3095307107573158,169.53354606823385,-0.04052734375,0.03271484375,1.00341796875,-0.30517578125,-0.42724609375,0.06103515625,0.0,0.0,0.0,0.021552423015236855,-0.014386208727955818,-0.9955271482467651,0.09085240215063095
1.3202428817749023,-1.9216365838294756,2.35668036037156,169.5348164834195,-0.04150390625,0.03369140625,1.00439453125,0.06103515625,-0.54931640625,0.0,0.0,0.0,0.0,0.02200484834611416,-0.014820048585534096,-0.9955136179924011,0.09082351624965668
1.3395850658416748,-1.911184900295475,2.2379400829718272,169.5370158043322,-0.0390625,0.033203125,1.001953125,0.244140625,-0.91552734375,-0.18310546875,0.0,0.0,0.0,0.02096477709710598,-0.014824464917182922,-0.9955357909202576,0.09082554280757904
1.3609449863433838,-1.8695271496607442,2.3006909518674385,169.54174229523787,-0.0400390625,0.03271484375,1.00439453125,-0.244140625,-1.15966796875,-0.18310546875,0.0,0.0,0.0,0.021476292982697487,-0.014413352124392986,-0.9955348372459412,0.09078224003314972
1.379218339920044,-1.9465627188752024,2.3309074953121636,169.54069044610569,-0.041015625,0.0341796875,1.00537109375,-0.18310546875,-0.79345703125,-0.18310546875,0.0,0.0,0.0,0.021799946203827858,-0.015058291144669056,-0.99551922082901,0.09077198058366776
1.3998539447784424,-2.043177879119148,2.378180942105114,169.5382452383828,-0.04150390625,0.03515625,1.00341796875,0.0,-0.06103515625,0.06103515625,0.0,0.0,0.0,0.022287465631961823,-0.015859423205256462,-0.9954964518547058,0.09076672047376633
1.4211421012878418,-2.004304284344844,2.286050441381516,169.54155104994112,-0.0400390625,0.03466796875,1.00439453125,-0.1220703125,-0.30517578125,-0.06103515625,0.0,0.0,0.0,0.021455897018313408,-0.015595890581607819,-0.9955193400382996,0.09076101332902908
1.4343302249908447,-1.9010926554665466,2.369251750425792,169.55010244678198,-0.0419921875,0.033203125,1.0068359375,-0.1220703125,-0.9765625,-0.1220703125,0.0,0.0,0.0,0.022095821797847748,-0.014634482562541962,-0.9955262541770935,0.09069265425205231
1.459667682647705,-1.8446977044804553,2.298103590832473,169.55566222076635,-0.04052734375,0.03271484375,1.00439453125,0.06103515625,-1.03759765625,-0.244140625,0.0,0.0,0.0,0.021432416513562202,-0.014202308841049671,-0.9955494403839111,0.09066629409790039
1.4797546863555908,-2.032285221496859,2.3343548198523156,169.55146848461598,-0.041015625,0.0361328125,1.0048828125,0.1220703125,-0.54931640625,-0.30517578125,0.0,0.0,0.0,0.021896304562687874,-0.01580231450498104,-0.9955156445503235,0.0906614139676094
1.4992153644561768,-2.027776656314416,2.405393482975503,169.5551021452544,-0.0419921875,0.03564453125,1.001953125,-0.42724609375,-0.3662109375,-0.1220703125,0.0,0.0,0.0,0.022509343922138214,-0.015707209706306458,-0.9955073595046997,0.0906185656785965
1.5193071365356445,-1.8569529848421622,2.332673526099435,169.567136938572,-0.04150390625,0.03271484375,1.00537109375,-0.30517578125,-0.54931640625,-0.18310546875,0.0,0.0,0.0,0.021741002798080444,-0.014283405616879463,-0.995551347732544,0.0905589908361435
1.540191888809204,-1.9566492007320186,2.313214103710657,169.56708229705862,-0.0390625,0.0341796875,1.00244140625,0.1220703125,-0.30517578125,-0.1220703125,0.0,0.0,0.0,0.02165074087679386,-0.015165028162300587,-0.9955416321754456,0.09054361283779144
1.5567059516906738,-1.8680473464883787,2.2752493509827874,169.57531950519765,-0.0400390625,0.03271484375,1.00341796875,0.0,-0.79345703125,-0.244140625,0.0,0.0,0.0,0.02124987728893757,-0.014427020214498043,-0.9955657124519348,0.09049481153488159
1.5790538787841797,-1.9825296412708433,2.3537732611060735,169.57261475028633,-0.04150390625,0.03515625,1.00244140625,-0.244140625,-0.67138671875,-0.1220703125,0.0,0.0,0.0,0.0220227912068367,-0.015358640812337399,-0.9955359101295471,0.09048401564359665
1.594247579574585,-2.008369527561471,2.3867161172466913,169.574650146659,-0.04150390625,0.03515625,1.00390625,-0.30517578125,-0.30517578125,0.0,0.0,0.0,0.0,0.022329093888401985,-0.015557310543954372,-0.9955285787582397,0.09045570343732834
1.6192989349365234,-1.9362922487976189,2.3857110122216416,169.5799367130766,-0.04150390625,0.03466796875,1.00439453125,0.1220703125,-0.42724609375,-0.06103515625,0.0,0.0,0.0,0.022262772545218468,-0.014932951889932156,-0.995542585849762,0.09042404592037201
1.6348628997802734,-1.8807425337213166,2.3519929296102275,169.58567407197938,-0.041015625,0.033203125,1.00439453125,0.0,-1.03759765625,-0.1220703125,0.0,0.0,0.0,0.021925291046500206,-0.014478253200650215,-0.9955598711967468,0.0903903916478157
1.6552848815917969,-1.9016390706001476,2.3708658095040303,169.58780509100043,-0.041015625,0.03369140625,1.0048828125,-0.244140625,-1.15966796875,-0.18310546875,0.0,0.0,0.0,0.02210545539855957,-0.01464521698653698,-0.9955557584762573,0.09036476165056229
1.6743593215942383,-1.9787173284969184,2.3780377215759554,169.58796901554052,-0.0419921875,0.0341796875,1.00390625,-0.06103515625,-0.3662109375,-0.06103515625,0.0,0.0,0.0,0.02222852036356926,-0.015309189446270466,-0.9955444931983948,0.0903473049402237
1.798872709274292,-2.0421744816413914,2.354703234050253,169.60190260144734,-0.04150390625,0.03564453125,1.00390625,-0.3662109375,-0.48828125,0.0,0.0,0.0,0.0,0.022073904052376747,-0.015881719067692757,-0.995550811290741,0.09021786600351334
1.8192474842071533,-1.976040961559331,2.3643937783786204,169.60672471500138,-0.04150390625,0.03466796875,1.005859375,0.0,-0.244140625,-0.1220703125,0.0,0.0,0.0,0.022105375304818153,-0.015300397761166096,-0.995561957359314,0.09018713235855103
1.8390893936157227,-1.8439530004175124,2.416134382332171,169.61638260248776,-0.04248046875,0.0322265625,1.00537109375,0.244140625,-0.67138671875,-0.1220703125,0.0,0.0,0.0,0.022449711337685585,-0.014113678596913815,-0.9955778121948242,0.09012056887149811
1.8590099811553955,-1.8541957228515928,2.2852939979309372,169.61897807437236,-0.03955078125,0.03271484375,1.00537109375,-0.18310546875,-1.220703125,-0.244140625,0.0,0.0,0.0,0.021320749074220657,-0.014306815341114998,-0.9956002831459045,0.09011644870042801
1.8790912628173828,-2.046160110465505,2.3009848634451604,169.6149892438971,-0.0400390625,0.03515625,1.001953125,-0.06103515625,-0.79345703125,-0.244140625,0.0,0.0,0.0,0.02160855196416378,-0.01596144214272499,-0.9955692887306213,0.09011266380548477
1.8999714851379395,-2.089491897777124,2.3203396985622726,169.6185819234005,-0.04052734375,0.0361328125,1.0048828125,0.0,-0.48828125,-0.18310546875,0.0,0.0,0.0,0.02181025967001915,-0.01632324792444706,-0.9955627918243408,0.09006989002227783
1.9194161891937256,-1.938553468299716,2.343727760384277,169.62686011267456,-0.04150390625,0.033203125,1.00439453125,-0.06103515625,-0.244140625,0.06103515625,0.0,0.0,0.0,0.021893702447414398,-0.014994949102401733,-0.995586097240448,0.0900227352976799
1.9393219947814941,-1.9312178451311226,2.3722305666775636,169.62993369780108,-0.04150390625,0.03369140625,1.00390625,-0.30517578125,-0.91552734375,-0.244140625,0.0,0.0,0.0,0.022135159000754356,-0.01490924321115017,-0.9955848455429077,0.08999289572238922
1.9590904712677002,-1.9808278569504523,2.3385041597730987,169.63080796201484,-0.04052734375,0.03466796875,1.001953125,-0.06103515625,-0.9765625,-0.30517578125,0.0,0.0,0.0,0.021881001070141792,-0.015367119573056698,-0.9955845475196838,0.08998130261898041
1.9798576831817627,-1.899366752040649,2.3023541029303365,169.6388812456138,-0.04052734375,0.03369140625,1.0048828125,0.244140625,-0.91552734375,-0.244140625,0.0,0.0,0.0,0.0215019341558218,-0.01468949019908905,-0.9956074357032776,0.08993249386548996
2.0010828971862793,-1.9235912985925685,2.279563682660708,169.63975550982755,-0.0400390625,0.03369140625,1.00439453125,-0.30517578125,-0.79345703125,-0.1220703125,0.0,0.0,0.0,0.021322835236787796,-0.014918145723640919,-0.9956085681915283,0.0899239256978035
2.0192549228668213,-1.8744967526121632,2.2558114863785774,169.64446834035485,-0.0400390625,0.033203125,1.00537109375,-0.1220703125,-0.54931640625,-0.06103515625,0.0,0.0,0.0,0.0210773516446352,-0.014511234126985073,-0.995622456073761,0.08989593386650085
2.0392377376556396,-1.8191950587800971,2.396498655685442,169.65017837850098,-0.0419921875,0.0322265625,1.00390625,0.18310546875,-0.79345703125,-0.1220703125,0.0,0.0,0.0,0.0222555473446846,-0.01392070297151804,-0.9956106543540955,0.0898347720503807
2.0594146251678467,-1.911269850773277,2.2475096048858383,169.6490582274771,-0.0390625,0.033203125,1.0029296875,0.18310546875,-0.8544921875,-0.18310546875,0.0,0.0,0.0,0.021033478900790215,-0.014838138595223427,-0.9956225752830505,0.08985055238008499
2.074305295944214,-1.9002166837054923,2.312755840706031,169.65469996373153,-0.0400390625,0.033203125,1.00390625,-0.3662109375,-0.54931640625,-0.3662109375,0.0,0.0,0.0,0.0215909406542778,-0.01469163317233324,-0.9956180453300476,0.08979317545890808
2.0997121334075928,-1.9905211760431698,2.33423934696666,169.65505513356837,-0.041015625,0.03515625,1.00390625,-0.48828125,-0.3662109375,-0.1220703125,0.0,0.0,0.0,0.021848293021321297,-0.015459336340427399,-0.9956029057502747,0.08976948261260986
2.119297504425049,-1.9795309747817962,2.317339751412756,169.65868879420682,-0.04052734375,0.0341796875,1.0048828125,0.30517578125,-0.3662109375,-0.18310546875,0.0,0.0,0.0,0.021692374721169472,-0.015377880074083805,-0.9956099987030029,0.08974277973175049
2.139028787612915,-1.9848252251622023,2.3473456262102683,169.66168041706328,-0.04150390625,0.03466796875,1.00537109375,0.06103515625,-0.9765625,-0.18310546875,0.0,0.0,0.0,0.021956803277134895,-0.015400771982967854,-0.9956066608428955,0.08971075713634491
2.1598141193389893,-1.896114514778665,2.383802614678858,169.6684423043416,-0.0419921875,0.03369140625,1.00634765625,-0.18310546875,-1.03759765625,-0.18310546875,0.0,0.0,0.0,0.022203216329216957,-0.014602567069232464,-0.9956176280975342,0.08966315537691116
2.1792540550231934,-1.9558513492595966,2.289006419188251,169.6687428326651,-0.0400390625,0.03466796875,1.0048828125,-0.244140625,-0.30517578125,-0.1220703125,0.0,0.0,0.0,0.02142634056508541,-0.015196382999420166,-0.9956255555152893,0.08966457843780518
2.199019193649292,-2.008191729199639,2.34027019056037,169.66952147423046,-0.041015625,0.03515625,1.0048828125,0.0,-0.1220703125,0.06103515625,0.0,0.0,0.0,0.021912559866905212,-0.015610866248607635,-0.9956108331680298,0.08963943272829056
2.219947338104248,-1.8632491385964447,2.33479515361037,169.678100191828,-0.041015625,0.03271484375,1.00390625,-0.06103515625,-0.79345703125,0.0,0.0,0.0,0.0,0.021750517189502716,-0.0143574895337224,-0.9956374168395996,0.08959336578845978
2.2394094467163086,-1.8426857868830635,2.3516866383146344,169.68228026760005,-0.041015625,0.03271484375,1.00537109375,-0.18310546875,-1.220703125,-0.18310546875,0.0,0.0,0.0,0.021880676969885826,-0.014166315086185932,-0.9956404566764832,0.08955835551023483
2.256136417388916,-2.0410564650516245,2.2970521685871144,169.6757096256185,-0.0400390625,0.0361328125,1.0029296875,0.1220703125,-0.48828125,-0.1220703125,0.0,0.0,0.0,0.021561935544013977,-0.01593164913356304,-0.9956181645393372,0.08958664536476135
2.279242515563965,-1.9596282304272021,2.3557967046476898,169.6808595882527,-0.04150390625,0.03369140625,1.00439453125,-0.18310546875,-0.8544921875,-0.18310546875,0.0,0.0,0.0,0.022007955238223076,-0.015178868547081947,-0.9956237077713013,0.0895475521683693
2.299015998840332,-1.889958379902368,2.369907448586113,169.6871433622891,-0.04150390625,0.033203125,1.00390625,-0.54931640625,-0.54931640625,-0.06103515625,0.0,0.0,0.0,0.02207530476152897,-0.014563637785613537,-0.9956353306770325,0.08950412273406982
2.319152593612671,-1.907550385883382,2.3672556276408554,169.68924706055347,-0.04150390625,0.03369140625,1.00537109375,-0.06103515625,-0.244140625,0.06103515625,0.0,0.0,0.0,0.02206573821604252,-0.014718979597091675,-0.9956350922584534,0.089482881128788
2.339423656463623,-1.87112989623817,2.2683493658171936,169.69314026838038,-0.03955078125,0.033203125,1.00537109375,0.244140625,-0.732421875,-0.244140625,0.0,0.0,0.0,0.021177491173148155,-0.014481074176728725,-0.9956588745117188,0.08947163075208664
2.3601584434509277,-1.9673926614096258,2.3022497291020825,169.6933588344338,-0.04052734375,0.03369140625,1.00390625,-0.06103515625,-1.0986328125,-0.30517578125,0.0,0.0,0.0,0.021547144278883934,-0.01529084611684084,-0.9956412315368652,0.08944637328386307
2.3793983459472656,-1.8677357191074968,2.320629768158587,169.7009949859259,-0.04052734375,0.03271484375,1.00244140625,-0.244140625,-0.67138671875,-0.18310546875,0.0,0.0,0.0,0.02162807807326317,-0.01441194862127304,-0.9956570267677307,0.08939583599567413
2.3990585803985596,-1.942763853036206,2.3217787340430296,169.70141845765443,-0.041015625,0.03466796875,1.00634765625,0.1220703125,-0.18310546875,-0.06103515625,0.0,0.0,0.0,0.021696530282497406,-0.015063023194670677,-0.9956474900245667,0.08937778323888779
2.41931414604187,-2.019483526001551,2.345784287654686,169.70227906148986,-0.041015625,0.03515625,1.00537109375,0.18310546875,-0.3662109375,-0.06103515625,0.0,0.0,0.0,0.02196480520069599,-0.015710905194282532,-0.9956340193748474,0.08935173600912094
2.4472625255584717,-1.9932427929840082,2.2727949651932255,169.7076885713125,-0.0400390625,0.03515625,1.00439453125,-0.1220703125,-0.67138671875,0.0,0.0,0.0,0.0,0.021309472620487213,-0.015541281551122665,-0.9956536293029785,0.08932188898324966
2.4640517234802246,-1.9763478931851586,2.2734538650047202,169.71066653379063,-0.0400390625,0.03466796875,1.005859375,-0.1220703125,-1.15966796875,-0.30517578125,0.0,0.0,0.0,0.0213016290217638,-0.015394523739814758,-0.9956580400466919,0.08929900825023651
2.4826242923736572,-1.9172387957776336,2.268833882361441,169.7159121190732,-0.04052734375,0.03369140625,1.005859375,0.0,-0.79345703125,-0.244140625,0.0,0.0,0.0,0.021214742213487625,-0.014885533601045609,-0.9956706762313843,0.08926521986722946
2.4989826679229736,-1.944825502948492,2.3449010588176384,169.7163219304234,-0.041015625,0.0341796875,1.005859375,-0.18310546875,-0.30517578125,0.0,0.0,0.0,0.0,0.02189706452190876,-0.015065611340105534,-0.9956551194190979,0.08924403786659241
2.5147464275360107,-1.9508883630539362,2.308493589220532,169.71954577971164,-0.04052734375,0.0341796875,1.00390625,-0.18310546875,-0.67138671875,-0.18310546875,0.0,0.0,0.0,0.021585045382380486,-0.015147469006478786,-0.9956628084182739,0.08922090381383896
2.5395467281341553,-1.9264019214360288,2.360948801715995,169.7233843460252,-0.04150390625,0.03369140625,1.00390625,0.1220703125,-0.9765625,-0.18310546875,0.0,0.0,0.0,0.022021226584911346,-0.014894293621182442,-0.9956604242324829,0.08918369561433792
2.5591518878936768,-1.8961439699694607,2.253283462612026,169.72551536504622,-0.03955078125,0.033203125,1.00390625,0.1220703125,-0.8544921875,-0.1220703125,0.0,0.0,0.0,0.021061968058347702,-0.014716213569045067,-0.9956833124160767,0.0891880914568901
2.5790634155273438,-1.9440054533612674,2.2572039911956137,169.7280288746608,-0.03955078125,0.0341796875,1.0048828125,-0.42724609375,-0.67138671875,-0.30517578125,0.0,0.0,0.0,0.021132949739694595,-0.015129471197724342,-0.9956784248352051,0.08915680646896362
2.599776029586792,-1.8939384591977813,2.294779636584204,169.73339740334842,-0.04052734375,0.03271484375,1.0048828125,-0.42724609375,-0.48828125,-0.06103515625,0.0,0.0,0.0,0.02141977846622467,-0.014665987342596054,-0.9956831932067871,0.08911345154047012
2.6193344593048096,-1.8025133889493987,2.304425784682966,169.74203076245934,-0.04052734375,0.03173828125,1.00537109375,0.18310546875,-0.6103515625,-0.1220703125,0.0,0.0,0.0,0.021431440487504005,-0.013865654356777668,-0.9956996440887451,0.08905398100614548
2.6393675804138184,-1.959068154915261,2.2971433089238515,169.73948993208808,-0.0400390625,0.03466796875,1.005859375,0.0,-0.79345703125,-0.1220703125,0.0,0.0,0.0,0.021490152925252914,-0.01523118931800127,-0.9956789612770081,0.08904796093702316
2.659351348876953,-1.973658506199466,2.2633620470626146,169.74058276235527,-0.0400390625,0.03466796875,1.00439453125,-0.244140625,-0.9765625,-0.244140625,0.0,0.0,0.0,0.021207837387919426,-0.015384615398943424,-0.9956833124160767,0.0890413373708725
2.679262399673462,-2.0007890847998144,2.228648891266494,169.74254985683623,-0.0390625,0.03466796875,1.00341796875,-0.30517578125,-0.3662109375,-0.1220703125,0.0,0.0,0.0,0.02092704549431801,-0.015647893771529198,-0.9956865906715393,0.08902488648891449
2.699355363845825,-1.947923847510739,2.3351063541044286,169.74779544211881,-0.041015625,0.0341796875,1.00439453125,-0.1220703125,-0.18310546875,0.0,0.0,0.0,0.0,0.02181023359298706,-0.015106210485100746,-0.9956808090209961,0.08897162228822708
2.7189338207244873,-1.919077183881425,2.413306043685551,169.75243997075444,-0.04248046875,0.03369140625,1.005859375,0.1220703125,-0.8544921875,0.0,0.0,0.0,0.0,0.022466666996479034,-0.014795288443565369,-0.9956750273704529,0.08892407268285751
2.7393035888671875,-1.9590875782657133,2.2650967016683863,169.7523306877277,-0.0390625,0.0341796875,1.00439453125,-0.1220703125,-0.9765625,0.06103515625,0.0,0.0,0.0,0.021210022270679474,-0.015258829109370708,-0.9956940412521362,0.08894156664609909
2.7589805126190186,-2.0400584036591565,2.2323339917671277,169.7526038952945,-0.03955078125,0.03564453125,1.00537109375,0.1220703125,-0.8544921875,-0.244140625,0.0,0.0,0.0,0.020988168194890022,-0.0159880630671978,-0.9956883788108826,0.08892972022294998
2.779216766357422,-2.069080304329364,2.3162789376572888,169.75448902750543,-0.04052734375,0.0361328125,1.00537109375,-0.06103515625,-0.54931640625,-0.1220703125,0.0,0.0,0.0,0.021739767864346504,-0.016174931079149246,-0.9956724643707275,0.08889355510473251
2.801272392272949,-1.9735505038332153,2.250322362163414,169.76245302807766,-0.03955078125,0.03466796875,1.0048828125,-0.3662109375,-0.8544921875,-0.244140625,0.0,0.0,0.0,0.02109152264893055,-0.015397912822663784,-0.99570232629776,0.08885345607995987
2.81990909576416,-2.03326727463346,2.243630057437271,169.76387370742503,-0.03955078125,0.0361328125,1.00390625,-0.06103515625,-0.48828125,-0.1220703125,0.0,0.0,0.0,0.021079476922750473,-0.015922289341688156,-0.9956963658332825,0.08883122354745865
2.836970806121826,-1.9739564732020078,2.3221255795868196,169.7695700851928,-0.041015625,0.0341796875,1.00439453125,0.1220703125,-0.30517578125,-0.18310546875,0.0,0.0,0.0,0.021714746952056885,-0.015346688218414783,-0.9956963658332825,0.08877967298030853
2.859044075012207,-1.9156112897644666,2.298279895090424,169.7724934061576,-0.04052734375,0.03369140625,1.00390625,0.0,-1.15966796875,-0.18310546875,0.0,0.0,0.0,0.021461978554725647,-0.01485888659954071,-0.9957101345062256,0.08876916021108627
2.8789494037628174,-1.9180998264998783,2.305468455748451,169.7747473685837,-0.041015625,0.0341796875,1.00390625,-0.244140625,-0.54931640625,-0.18310546875,0.0,0.0,0.0,0.021526070311665535,-0.01487532164901495,-0.9957104325294495,0.08874789625406265
2.899158477783203,-1.8907513221763241,2.3176806205410223,169.7785039726272,-0.04052734375,0.03271484375,1.00439453125,0.1220703125,-0.1220703125,0.06103515625,0.0,0.0,0.0,0.021610518917441368,-0.014628864824771881,-0.9957147836685181,0.08871842175722122
2.920534372329712,-1.959074131330785,2.3494350237660577,169.77910502927415,-0.041015625,0.0341796875,1.00439453125,0.0,-0.1220703125,0.1220703125,0.0,0.0,0.0,0.02193923480808735,-0.01519787684082985,-0.9957011938095093,0.08869514614343643
2.939412832260132,-1.8071696569726434,2.3226724216072436,169.78817552049193,-0.041015625,0.0322265625,1.00439453125,0.06103515625,-1.0986328125,-0.18310546875,0.0,0.0,0.0,0.021588001400232315,-0.013900524005293846,-0.9957320094108582,0.0886494591832161
2.959822654724121,-2.008982750482891,2.295768519909975,169.7824381615891,-0.04052734375,0.03515625,1.00439453125,0.0,-1.03759765625,-0.1220703125,0.0,0.0,0.0,0.021511118859052658,-0.015674030408263206,-0.9957058429718018,0.08866558223962784
2.9797744750976562,-2.0373688032300525,2.2546755405422396,169.78235619931908,-0.03955078125,0.03564453125,1.0029296875,0.1220703125,-0.18310546875,-0.18310546875,0.0,0.0,0.0,0.02117605321109295,-0.015952711924910545,-0.9957084059715271,0.08866804093122482
3.0005905628204346,-1.894814217515424,2.3263957284785466,169.79172721886033,-0.041015625,0.033203125,1.00439453125,0.0,-0.18310546875,-0.06103515625,0.0,0.0,0.0,0.021687693893909454,-0.014659871347248554,-0.9957231879234314,0.08860144764184952
3.0198609828948975,-1.8931331372059546,2.275857878149153,169.79590729463237,-0.0400390625,0.03369140625,1.00634765625,-0.1220703125,-0.8544921875,-0.1220703125,0.0,0.0,0.0,0.021246742457151413,-0.01468540821224451,-0.9957348108291626,0.0885734111070633
3.0389554500579834,-1.990969834094275,2.2945779325602773,169.79538820025547,-0.04052734375,0.0341796875,1.0048828125,-0.06103515625,-0.9765625,-0.244140625,0.0,0.0,0.0,0.021485082805156708,-0.015520870685577393,-0.9957184791564941,0.08855660259723663
3.0603487491607666,-2.0007954881021615,2.3852956513427404,169.79768314381658,-0.0419921875,0.03564453125,1.00390625,0.1220703125,-0.67138671875,-0.1220703125,0.0,0.0,0.0,0.022280577570199966,-0.015536032617092133,-0.9957041144371033,0.08851968497037888
3.0823683738708496,-2.1198569978362967,2.395997703998504,169.79648103052267,-0.04150390625,0.03662109375,1.0029296875,-0.30517578125,-0.42724609375,-0.1220703125,0.0,0.0,0.0,0.022465696558356285,-0.016561996191740036,-0.9956846833229065,0.08850497752428055
3.099170207977295,-1.9608472057506379,2.2423617766857644,169.80579740855057,-0.0390625,0.0341796875,1.001953125,-0.3662109375,-0.42724609375,0.0,0.0,0.0,0.0,0.021006714552640915,-0.015301699750125408,-0.9957388639450073,0.0884803980588913
3.1220486164093018,-1.977653953420512,2.2710374721424165,169.80985454091754,-0.0390625,0.03466796875,1.00439453125,0.18310546875,-0.67138671875,-0.1220703125,0.0,0.0,0.0,0.02126830816268921,-0.01542618591338396,-0.9957351684570312,0.08843730390071869
3.1391968727111816,-1.9160405244651195,2.376355360606017,169.8153323526319,-0.0419921875,0.033203125,1.00439453125,0.30517578125,-0.9765625,-0.18310546875,0.0,0.0,0.0,0.022135140374302864,-0.014809951186180115,-0.9957304000854492,0.08838418871164322
3.1543500423431396,-1.9294650478353679,2.4076333581364437,169.81839227738007,-0.04248046875,0.0341796875,1.0029296875,-0.3662109375,-1.0986328125,-0.18310546875,0.0,0.0,0.0,0.022416867315769196,-0.01490288507193327,-0.9957257509231567,0.08834996819496155
3.1790359020233154,-2.0230108918210394,2.3427081412072415,169.81552359792866,-0.041015625,0.03564453125,1.0029296875,-0.3662109375,-0.42724609375,0.0,0.0,0.0,0.0,0.02192525938153267,-0.01576564647257328,-0.9957218766212463,0.08836757391691208
3.2028627395629883,-1.9201326615516034,2.220461415442353,169.82426624006627,-0.03955078125,0.03369140625,1.00537109375,0.1220703125,-0.54931640625,-0.18310546875,0.0,0.0,0.0,0.020782573148608208,-0.014968295581638813,-0.9957618713378906,0.08833089470863342
3.219661235809326,-1.931083375781838,2.3510260309558473,169.8269026930859,-0.041015625,0.03369140625,1.00439453125,-0.3662109375,-0.42724609375,-0.1220703125,0.0,0.0,0.0,0.021925151348114014,-0.014962567016482353,-0.9957415461540222,0.08828485757112503
3.239100694656372,-1.8671402119892364,2.340793126918699,169.83324110863566,-0.041015625,0.03271484375,1.00732421875,0.0,-1.03759765625,-0.18310546875,0.0,0.0,0.0,0.021786170080304146,-0.014416081830859184,-0.9957563877105713,0.08824364095926285
3.259265422821045,-1.9160804383830818,2.3044861891684385,169.833896806796,-0.04052734375,0.03369140625,1.00537109375,0.244140625,-0.67138671875,-0.18310546875,0.0,0.0,0.0,0.021508298814296722,-0.014869645237922668,-0.9957565069198608,0.08823442459106445
3.2790684700012207,-1.976420037058267,2.3243123073382814,169.83190239155834,-0.041015625,0.03466796875,1.0029296875,0.0,-0.48828125,0.0,0.0,0.0,0.0,0.021727293729782104,-0.01537820789963007,-0.9957438111305237,0.08823719620704651
3.304466485977173,-2.0666457687770774,2.2711757834731094,169.83026314615756,-0.0400390625,0.0361328125,1.00537109375,-0.42724609375,-0.42724609375,0.06103515625,0.0,0.0,0.0,0.0213352981954813,-0.01620316132903099,-0.9957386255264282,0.08824340254068375
3.319387435913086,-2.0386148858667568,2.3451868595457213,169.8351945427383,-0.041015625,0.03564453125,1.00439453125,-0.244140625,-0.6103515625,0.0,0.0,0.0,0.0,0.021956101059913635,-0.015903078019618988,-0.9957343935966492,0.08819318562746048
3.335502862930298,-1.9946858838895851,2.370493991081088,169.84080895823604,-0.0419921875,0.03466796875,1.0068359375,0.3662109375,-0.732421875,-0.30517578125,0.0,0.0,0.0,0.02214142121374607,-0.015502803958952427,-0.9957406520843506,0.08814866840839386
3.3651509284973145,-1.9519536591210465,2.30944661405316,169.84530322270993,-0.04052734375,0.0341796875,1.00390625,0.0,-1.03759765625,-0.244140625,0.0,0.0,0.0,0.021577510982751846,-0.015179671347141266,-0.9957597255706787,0.0881277322769165
3.379154682159424,-1.9448790772447941,2.275985944196091,169.84982480794048,-0.0400390625,0.0341796875,1.00537109375,-0.3662109375,-0.732421875,-0.1220703125,0.0,0.0,0.0,0.021280726417899132,-0.015144962817430496,-0.9957696199417114,0.08809526264667511
3.3990776538848877,-1.968927746425586,2.3868601915494962,169.85254322323013,-0.0419921875,0.03466796875,1.00390625,-0.18310546875,-0.18310546875,-0.1220703125,0.0,0.0,0.0,0.022262249141931534,-0.015268570743501186,-0.9957503080368042,0.08804891258478165
3.4177541732788086,-2.014949561053132,2.358130921796542,169.85384095917243,-0.04150390625,0.03515625,1.0048828125,-0.06103515625,-0.18310546875,0.1220703125,0.0,0.0,0.0,0.022047802805900574,-0.015690984204411507,-0.9957498908042908,0.08803349733352661
3.4390604496002197,-1.883340780370272,2.379877817227039,169.86180495974466,-0.0419921875,0.033203125,1.00634765625,0.0,-1.15966796875,-0.244140625,0.0,0.0,0.0,0.022134633734822273,-0.014532049186527729,-0.995769739151001,0.08798613399267197
3.4600772857666016,-1.9196024681172812,2.25015246120781,169.8626655635801,-0.0400390625,0.03369140625,1.00390625,-0.244140625,-1.0986328125,-0.18310546875,0.0,0.0,0.0,0.021035145968198776,-0.014947687275707722,-0.9957868456840515,0.08799250423908234
3.478978395462036,-2.0061078811725506,2.278959210919162,169.86426382784586,-0.0400390625,0.03515625,1.00341796875,0.06103515625,-0.8544921875,-0.30517578125,0.0,0.0,0.0,0.021351654082536697,-0.01567741297185421,-0.9957720041275024,0.08795788884162903
3.494964838027954,-1.9544142347695437,2.2733151267872045,169.86875809231975,-0.04052734375,0.0341796875,1.00439453125,-0.06103515625,-0.06103515625,0.0,0.0,0.0,0.0,0.021262334659695625,-0.015233402140438557,-0.9957833290100098,0.08792948722839355
3.5191571712493896,-1.8850457663418363,2.4095131542620782,169.87472767765433,-0.0419921875,0.03271484375,1.0048828125,-0.1220703125,-0.8544921875,-0.06103515625,0.0,0.0,0.0,0.02239181101322174,-0.014526458457112312,-0.995774507522583,0.08786880224943161
3.5392136573791504,-1.8729663633512572,2.307514310848281,169.8778968854292,-0.04052734375,0.03271484375,1.00439453125,-0.06103515625,-1.15966796875,-0.244140625,0.0,0.0,0.0,0.021495847031474113,-0.014500904828310013,-0.9957953691482544,0.08785972744226456
3.5588502883911133,-1.8683730611344236,2.331338864446932,169.8792629232632,-0.041015625,0.03271484375,1.005859375,0.06103515625,-0.54931640625,-0.1220703125,0.0,0.0,0.0,0.021699173375964165,-0.01444284338504076,-0.9957931041717529,0.08784496784210205
3.5791022777557373,-1.9818222898049238,2.3084662684638517,169.87658548910858,-0.04052734375,0.03466796875,1.00439453125,-0.18310546875,-0.244140625,0.0,0.0,0.0,0.0,0.02158774621784687,-0.015445869415998459,-0.9957799315452576,0.08785046637058258
3.599349021911621,-1.9545222371357944,2.371842099668519,169.87991862142354,-0.041015625,0.03466796875,1.00341796875,-0.244140625,-0.48828125,0.1220703125,0.0,0.0,0.0,0.022117065265774727,-0.01516031101346016,-0.9957756996154785,0.08781624585390091
3.61954927444458,-1.8779103530932886,2.2788618807234893,169.88583356524478,-0.0400390625,0.03271484375,1.00390625,0.18310546875,-0.67138671875,-0.18310546875,0.0,0.0,0.0,0.02124965377151966,-0.014567471109330654,-0.9958054423332214,0.08779437839984894
3.6400413513183594,-1.887437186324987,2.2458451731624707,169.89047809388038,-0.0400390625,0.033203125,1.005859375,0.244140625,-0.732421875,-0.3662109375,0.0,0.0,0.0,0.020969457924365997,-0.01467659417539835,-0.9958130121231079,0.0877574011683464
3.659090280532837,-1.8993810527492236,2.3693766148215563,169.8930462450083,-0.0419921875,0.033203125,1.00634765625,-0.18310546875,-1.03759765625,-0.18310546875,0.0,0.0,0.0,0.022051699459552765,-0.014685575850307941,-0.9957934021949768,0.08771318197250366
3.6813080310821533,-1.9227925933465002,2.3268691459653934,169.8947537923008,-0.041015625,0.0341796875,1.0029296875,-0.30517578125,-0.732421875,-0.18310546875,0.0,0.0,0.0,0.02170003578066826,-0.014922131784260273,-0.995798647403717,0.0877007469534874
3.6990489959716797,-1.9131131480755343,2.3152817300384667,169.89704873586194,-0.04052734375,0.03369140625,1.00537109375,-0.1220703125,-0.06103515625,-0.06103515625,0.0,0.0,0.0,0.021591639146208763,-0.014847386628389359,-0.9958035349845886,0.08768447488546371
3.719193935394287,-1.8979902554794799,2.2842869719151837,169.89995839644837,-0.0400390625,0.03369140625,1.00390625,0.0,-0.3662109375,-0.06103515625,0.0,0.0,0.0,0.021310361102223396,-0.014740407466888428,-0.9958128333091736,0.08766698092222214
3.740381956100464,-2.032169962054615,2.298231016549176,169.89803228310242,-0.04052734375,0.03564453125,1.0048828125,-0.1220703125,-1.03759765625,-0.18310546875,0.0,0.0,0.0,0.021534431725740433,-0.01589532010257244,-0.9957911968231201,0.08765632659196854
3.754253387451172,-1.9396076653094254,2.3298981214188825,169.90517666097426,-0.041015625,0.0341796875,1.005859375,0.06103515625,-0.91552734375,-0.244140625,0.0,0.0,0.0,0.021737851202487946,-0.015067894011735916,-0.9958040118217468,0.08760654926300049
3.7791755199432373,-1.933534133033403,2.3718062411753764,169.9088513027477,-0.041015625,0.03369140625,1.00390625,0.0,-0.3662109375,-0.18310546875,0.0,0.0,0.0,0.022096889093518257,-0.014983532018959522,-0.9958006739616394,0.0875689759850502
3.7993593215942383,-1.947947753172834,2.346730055411321,169.91169266144243,-0.0419921875,0.03564453125,1.005859375,-0.3662109375,-0.30517578125,-0.18310546875,0.0,0.0,0.0,0.02188962697982788,-0.015128646045923233,-0.9958050847053528,0.0875454843044281
3.8155860900878906,-1.970945000108267,2.4398940491337067,169.90971190658314,-0.04296875,0.03369140625,1.00439453125,-0.06103515625,-0.8544921875,0.244140625,0.0,0.0,0.0,0.02271699719130993,-0.015256352722644806,-0.9957848787307739,0.08754289895296097
3.8393988609313965,-1.8576908587159353,2.273159953426998,169.90434337789551,-0.03564453125,0.03173828125,1.0048828125,0.0,-0.30517578125,0.6103515625,0.0,0.0,0.0,0.021182287484407425,-0.014399581588804722,-0.9958231449127197,0.08763820677995682
3.854811429977417,-1.9780355902403866,2.129514031549048,169.89427567905892,-0.03369140625,0.03759765625,1.0009765625,0.6103515625,1.40380859375,-0.42724609375,0.0,0.0,0.0,0.02002744749188423,-0.015554309822618961,-0.9958218336105347,0.08772701770067215
3.8749237060546875,-2.1244204179755113,2.0296455668260607,169.94848006031214,-0.033203125,0.0439453125,0.99658203125,-0.06103515625,2.197265625,-4.69970703125,0.0,0.0,0.0,0.01926369033753872,-0.0169125497341156,-0.995856761932373,0.08724775910377502
3.9022083282470703,-2.162820808706381,2.3195213565223405,170.07755697524703,-0.083984375,0.03759765625,1.0029296875,-0.79345703125,1.220703125,-4.8828125,0.0,0.0,0.0,0.02179267257452011,-0.017048398032784462,-0.9959049820899963,0.08606777340173721
3.92039155960083,-2.0708975615354106,2.4948617040266767,170.18517343580976,-0.04541015625,0.03125,1.0166015625,0.48828125,-0.18310546875,-5.67626953125,0.0,0.0,0.0,0.023232242092490196,-0.016138460487127304,-0.9959691762924194,0.08511966466903687
3.940659284591675,-2.0105652199362183,2.300501200674559,170.2975163872781,-0.02392578125,0.03076171875,1.00634765625,-0.244140625,0.48828125,-5.06591796875,0.0,0.0,0.0,0.021482747048139572,-0.01578081026673317,-0.9960933327674866,0.0841880664229393
3.959348201751709,-1.8781775842445654,2.2270301364332012,170.36126937299102,-0.0390625,0.0283203125,0.99755859375,-1.15966796875,-0.30517578125,-3.35693359375,0.0,0.0,0.0,0.020738668739795685,-0.014695968478918076,-0.9961692690849304,0.08367009460926056
3.9790449142456055,-1.6505448815677886,2.2267144536275,170.41305586727805,-0.0380859375,0.02392578125,1.01025390625,-0.732421875,-0.244140625,-1.3427734375,0.0,0.0,0.0,0.020563924685120583,-0.01272660680115223,-0.9962343573570251,0.08326096832752228
3.9992616176605225,-1.4428654026124403,2.1872649885287987,170.42458522659703,-0.0380859375,0.02294921875,1.00927734375,0.06103515625,-0.48828125,0.42724609375,0.0,0.0,0.0,0.020068932324647903,-0.010951928794384003,-0.9962703585624695,0.0832027718424797
4.015646696090698,-1.6494601621502258,2.129739854678482,170.4083976782641,-0.03564453125,0.03369140625,0.99609375,0.18310546875,-0.42724609375,0.18310546875,0.0,0.0,0.0,0.019720610231161118,-0.01278730295598507,-0.9962460994720459,0.08331511169672012
4.039688587188721,-1.3587101082401842,2.164878616637259,170.4116351879307,-0.05419921875,-0.09375,0.9521484375,-6.89697265625,5.126953125,0.30517578125,0.0,0.0,0.0,0.019814355298876762,-0.010234377346932888,-0.9962722659111023,0.08333264291286469
4.059167861938477,-1.10678829237949,2.146625789854046,170.48504606113,-0.05224609375,-0.11181640625,1.08447265625,1.46484375,-0.48828125,-2.62451171875,0.0,0.0,0.0,0.019467249512672424,-0.008069929666817188,-0.9963484406471252,0.08273950964212418
4.083259582519531,-0.957360401925713,2.1923786657830227,170.6037137677698,-0.060546875,-0.00439453125,1.00244140625,0.1220703125,0.42724609375,-3.11279296875,0.0,0.0,0.0,0.019750157371163368,-0.006757965311408043,-0.9964359998703003,0.08172907680273056
4.10006308555603,-0.7065178093147337,2.2417165372526098,170.66641490435052,-0.0673828125,-0.10400390625,0.86376953125,-12.75634765625,-0.79345703125,-2.685546875,0.0,0.0,0.0,0.0199977308511734,-0.004552372731268406,-0.9964848756790161,0.0812235102057457
4.118934154510498,-0.4750125494611183,2.2852850333076518,170.79885227235707,-0.015625,-0.03466796875,1.197265625,18.6767578125,-11.90185546875,-13.24462890625,0.0,0.0,0.0,0.020209550857543945,-0.0025316006503999233,-0.9965779185295105,0.08010988682508469
4.1392223834991455,-0.5464409068929663,2.3700385028408126,170.915115752409,-0.041015625,-0.025390625,0.8876953125,-9.94873046875,1.953125,-8.11767578125,0.0,0.0,0.0,0.020993398502469063,-0.003114714752882719,-0.9966422319412231,0.0790814459323883
4.159434795379639,-0.12988922719845647,2.3539928943765718,171.09548738801072,-0.04931640625,-0.224609375,0.99609375,-9.46044921875,1.52587890625,-7.8125,0.0,0.0,0.0,0.020566992461681366,0.0004647267051041126,-0.9967732429504395,0.07758873701095581
4.180343866348267,-0.08918800987243149,2.245658623620765,171.389335786483,-0.01513671875,0.0048828125,1.1904296875,12.02392578125,-8.9111328125,-17.15087890625,0.0,0.0,0.0,0.019598929211497307,0.0006951202522031963,-0.996987521648407,0.07504187524318695
4.199333190917969,0.05383048509206919,2.423500527908618,171.58955595181274,-0.0849609375,-0.181640625,0.8134765625,-3.47900390625,7.01904296875,-9.94873046875,0.0,0.0,0.0,0.021056080237030983,0.002019115025177598,-0.9970839619636536,0.07332266122102737
4.219282627105713,0.08301491291502172,2.2433709371356336,171.85355642361208,-0.05615234375,0.04736328125,1.08349609375,2.50244140625,-3.173828125,-6.53076171875,0.0,0.0,0.0,0.019474953413009644,0.0021129699889570475,-0.9972817301750183,0.07103174924850464
4.239082336425781,0.3734165538062199,2.391872269739816,171.948646317237,-0.0439453125,-0.2509765625,0.84619140625,-5.67626953125,6.40869140625,-2.38037109375,0.0,0.0,0.0,0.02059117890894413,0.004715164192020893,-0.9973053932189941,0.07025565207004547
4.2596259117126465,0.871666927608029,2.3135660718963242,172.02681100209864,-0.02978515625,-0.34326171875,0.9658203125,-19.8974609375,9.521484375,0.1220703125,0.0,0.0,0.0,0.019610140472650528,0.008990214206278324,-0.9973375201225281,0.06966006010770798
4.27985954284668,1.232173063181176,2.249389827898296,172.05559341926107,-0.0390625,-0.3701171875,1.06494140625,0.1220703125,-2.3193359375,-0.54931640625,0.0,0.0,0.0,0.01883537322282791,0.012084261514246464,-0.9973333477973938,0.06946570426225662
4.294410467147827,1.4672909061363464,2.2105841081288684,172.03487062531926,-0.04931640625,-0.337890625,1.0234375,1.708984375,-6.2255859375,-1.64794921875,0.0,0.0,0.0,0.018352510407567024,0.01411050371825695,-0.9973006844520569,0.06968063861131668
4.31479024887085,1.6814031426293772,2.158973918099783,172.0087793026898,-0.029296875,-0.27734375,0.9609375,-3.5400390625,-5.43212890625,-1.40380859375,0.0,0.0,0.0,0.017769474536180496,0.01594681479036808,-0.9972658157348633,0.06993591785430908
4.3397510051727295,1.9075969165471027,2.141873472295598,172.03186534208444,-0.02685546875,-0.2861328125,0.99658203125,-4.69970703125,-2.0751953125,-1.77001953125,0.0,0.0,0.0,0.017486173659563065,0.017901429906487465,-0.99724942445755,0.06976770609617233
4.364907503128052,2.1940317850055773,2.0593993649545173,172.11556248017376,-0.083984375,-0.30322265625,1.04345703125,-5.2490234375,-4.638671875,-3.0517578125,0.0,0.0,0.0,0.016608836129307747,0.020332250744104385,-0.9972662925720215,0.06906997412443161
4.38109564781189,2.360680716791072,2.057908035837927,172.14852497310827,-0.07275390625,-0.3056640625,1.072265625,1.28173828125,-4.638671875,-1.220703125,0.0,0.0,0.0,0.0165016558021307,0.021776901558041573,-0.9972558617591858,0.06880691647529602
4.399393081665039,2.4722815255174377,1.9613067494157328,172.18492988138442,-0.04052734375,-0.26904296875,0.984375,-1.40380859375,-3.7841796875,-0.48828125,0.0,0.0,0.0,0.015601120889186859,0.022685792297124863,-0.9972718954086304,0.06848905980587006
4.423068046569824,2.6957029896840785,1.8633242706773148,172.2645835474851,0.03564453125,-0.26220703125,1.03076171875,1.40380859375,3.41796875,-2.99072265625,0.0,0.0,0.0,0.014631896279752254,0.02456207200884819,-0.9972887635231018,0.06780698150396347
4.434738397598267,2.7916037548295236,1.8262920522145636,172.36112144121407,0.05517578125,-0.23583984375,1.02490234375,2.685546875,-0.732421875,-8.9111328125,0.0,0.0,0.0,0.014274213463068008,0.025363005697727203,-0.9973304271697998,0.06697151064872742
4.459304332733154,2.9596784886042586,1.8918785168327878,172.46980341128733,-0.0166015625,-0.20947265625,0.90185546875,0.3662109375,2.685546875,-6.65283203125,0.0,0.0,0.0,0.014772270806133747,0.026849664747714996,-0.9973449110984802,0.06606060266494751
4.479401111602783,3.138088152366869,2.011613653973815,172.5758079472059,-0.03857421875,-0.22021484375,0.92138671875,-0.1220703125,4.69970703125,-4.94384765625,0.0,0.0,0.0,0.015737850219011307,0.028455959632992744,-0.9973430633544922,0.06518843024969101
4.499298810958862,3.3440772662243448,2.0523644835528154,172.673998746714,-0.087890625,-0.1982421875,1.0322265625,-0.79345703125,1.77001953125,-3.11279296875,0.0,0.0,0.0,0.016001254320144653,0.030257856473326683,-0.9973388314247131,0.06437191367149353
4.519288539886475,3.4845608105165784,2.0245984839162445,172.79871800095844,-0.02978515625,-0.17138671875,1.16015625,3.173828125,0.67138671875,-7.99560546875,0.0,0.0,0.0,0.015714894980192184,0.03144809976220131,-0.9973751902580261,0.06329896301031113
4.549253702163696,3.7251348006798257,2.3180870167966376,173.22371969187333,-0.18701171875,-0.11865234375,0.84423828125,-2.0751953125,7.75146484375,-16.11328125,0.0,0.0,0.0,0.018261240795254707,0.033633578568696976,-0.9974817037582397,0.05971270799636841
4.560797929763794,3.7379307332030214,2.471830092701982,173.53590031807792,-0.20166015625,-0.12939453125,1.04638671875,5.31005859375,-0.91552734375,-23.74267578125,0.0,0.0,0.0,0.019685011357069016,0.03376978263258934,-0.9976065158843994,0.05703919753432274
4.579033374786377,3.692433135594274,2.6592859151334514,173.97381106652412,-0.10693359375,-0.076171875,1.09814453125,6.34765625,7.87353515625,-32.04345703125,0.0,0.0,0.0,0.02146744914352894,0.033382873982191086,-0.9977911710739136,0.05326934531331062
4.599369049072266,3.691856838383054,2.9715015460575507,174.68401413642206,-0.193359375,-0.04052734375,0.86669921875,-3.0517578125,10.498046875,-36.68212890625,0.0,0.0,0.0,0.024393701925873756,0.03336826339364052,-0.9980313777923584,0.0471687912940979
4.6192052364349365,3.676081662721263,3.184374636824753,175.5012872517491,-0.23681640625,-0.08740234375,0.95654296875,8.056640625,-4.57763671875,-43.9453125,0.0,0.0,0.0,0.026491254568099976,0.033127252012491226,-0.9982947707176208,0.04010375589132309
4.639526844024658,3.6447865897179113,3.3093583474561123,176.48401486953054,-0.1533203125,-0.01025390625,0.93359375,0.1220703125,5.43212890625,-52.8564453125,0.0,0.0,0.0,0.027872201055288315,0.032658569514751434,-0.9985790848731995,0.03156747296452522
4.6595306396484375,3.683021561804819,3.467366663054718,177.646444764375,-0.18408203125,-0.001953125,1.01611328125,-3.11279296875,-3.35693359375,-61.03515625,0.0,0.0,0.0,0.029572203755378723,0.03273442015051842,-0.9987953305244446,0.021489202976226807
4.683184623718262,3.645012839734168,3.4387334428369667,179.24793287944624,-0.169921875,-0.06591796875,1.09716796875,8.97216796875,-3.11279296875,-67.19970703125,0.0,0.0,0.0,0.029779650270938873,0.03198518976569176,-0.9990164041519165,0.007510969880968332
4.700040340423584,3.5432018265225462,3.5044392223222545,-179.74097691487276,-0.12451171875,-0.01171875,1.0048828125,3.60107421875,3.35693359375,-68.17626953125,0.0,0.0,0.0,0.030632387846708298,0.030831728130578995,-0.9990541934967041,-0.0013129018479958177
4.720006465911865,3.5450654009489018,3.724701510554353,-178.32334383187995,-0.09912109375,0.01904296875,0.92333984375,-6.16455078125,14.22119140625,-72.8759765625,0.0,0.0,0.0,0.032931722700595856,0.03043668530881405,-0.9989014267921448,-0.013611266389489174
4.739302158355713,3.5328790628091298,4.046557099718279,-176.80969194953508,-0.1455078125,-0.0517578125,1.00244140625,2.685546875,11.90185546875,-75.8056640625,0.0,0.0,0.0,0.036132629960775375,0.029811808839440346,-0.9985449314117432,-0.02671865187585354
4.754176616668701,3.5381412966778014,4.182709236859667,-175.24116632739833,-0.2197265625,-0.0078125,1.013671875,2.685546875,-3.41796875,-79.89501953125,0.0,0.0,0.0,0.03772489354014397,0.029309695586562157,-0.9980431795120239,-0.040343690663576126
4.7794294357299805,3.432976447140292,4.248797720381887,-173.6016887001635,-0.14501953125,-0.00537109375,1.13671875,6.65283203125,5.2490234375,-82.6416015625,0.0,0.0,0.0,0.03866536542773247,0.027818866074085236,-0.997369647026062,-0.054634757339954376
4.799904823303223,3.2695716417671417,4.423050360260898,-171.92730880626988,-0.193359375,-0.02978515625,1.0400390625,11.71875,2.38037109375,-83.3740234375,0.0,0.0,0.0,0.04048403352499008,0.025721430778503418,-0.9964484572410583,-0.06921004503965378
4.816547870635986,3.16213532744378,4.418155675946938,-170.26418506412847,-0.26123046875,0.0234375,0.9326171875,5.126953125,-1.0986328125,-83.984375,0.0,0.0,0.0,0.04073209688067436,0.0242016464471817,-0.995363712310791,-0.08370377868413925
4.834786891937256,3.2067953731055545,4.604494335562287,-168.58201875458104,-0.20458984375,0.02685546875,0.90283203125,-0.3662109375,8.48388671875,-84.41162109375,0.0,0.0,0.0,0.04273726046085358,0.02382517419755459,-0.9939594268798828,-0.0982382744550705
4.859780788421631,3.086252992981996,4.873421508187315,-166.87440316018615,-0.21533203125,-0.04052734375,1.12890625,13.97705078125,4.57763671875,-86.181640625,0.0,0.0,0.0,0.04529691860079765,0.021871265023946762,-0.9923198819160461,-0.11301000416278839
4.879962682723999,3.0248549284288706,5.027737252765882,-165.16375496179978,-0.244140625,0.0458984375,0.95703125,2.50244140625,3.84521484375,-85.8154296875,0.0,0.0,0.0,0.04688335582613945,0.02048676460981369,-0.9904804229736328,-0.12779207527637482
4.89911150932312,3.1217343316163313,5.1269709367828815,-163.47485408573073,-0.2900390625,0.017578125,0.939453125,-1.220703125,-4.82177734375,-82.8857421875,0.0,0.0,0.0,0.04815622791647911,0.020503953099250793,-0.988437831401825,-0.1423071175813675
4.919349193572998,3.1997604917038527,5.007281689975341,-161.89938899139725,-0.2919921875,-0.0576171875,0.9912109375,4.69970703125,-13.0615234375,-76.0498046875,0.0,0.0,0.0,0.047509822994470596,0.02067694440484047,-0.9864152073860168,-0.155885711312294
4.939144134521484,3.226778585626308,5.053420898479246,-160.4948835319892,-0.1240234375,-0.0107421875,0.9326171875,-2.0751953125,5.859375,-66.95556640625,0.0,0.0,0.0,0.04819547384977341,0.02025659568607807,-0.9844103455543518,-0.1679384410381317
4.959165811538696,3.350289536717883,5.125533181962594,-159.31648465486523,-0.19287109375,-0.0341796875,0.884765625,-5.2490234375,-7.9345703125,-53.5888671875,0.0,0.0,0.0,0.04921117424964905,0.02070540562272072,-0.9825851917266846,-0.17797723412513733
4.9795143604278564,3.4339480415497263,5.120138613178754,-158.44967900767725,-0.12841796875,-0.05712890625,1.0283203125,1.8310546875,-5.7373046875,-37.65869140625,0.0,0.0,0.0,0.049455560743808746,0.02105775475502014,-0.9811975359916687,-0.1853702813386917
4.999332904815674,3.300211870383819,4.942226699451908,-157.90971157265272,-0.07763671875,0.0078125,1.14404296875,0.18310546875,-7.9345703125,-23.98681640625,0.0,0.0,0.0,0.04781113192439079,0.019979333505034447,-0.9803951382637024,-0.19010639190673828
5.019422292709351,3.1871566582510638,4.852772138779073,-157.57542845429396,-0.0166015625,0.01171875,1.1103515625,2.44140625,7.8125,-13.12255859375,0.0,0.0,0.0,0.046914245933294296,0.01902557536959648,-0.9798839688301086,-0.1930403858423233
5.042426824569702,2.956955377559539,4.820512728442281,-157.4144272351784,-0.13232421875,0.01611328125,0.98681640625,5.43212890625,-8.85009765625,-6.53076171875,0.0,0.0,0.0,0.04627460986375809,0.017047038301825523,-0.9796580672264099,-0.19452029466629028
5.059097528457642,2.744086128773745,4.738420257921074,-157.2998166609056,-0.03515625,0.04345703125,0.95751953125,1.953125,-1.46484375,-7.4462890625,0.0,0.0,0.0,0.04522695764899254,0.015322758816182613,-0.9795188307762146,-0.19560837745666504
5.075515985488892,2.479684810247497,4.673403687211723,-157.12699921452594,-0.0517578125,0.00732421875,1.01318359375,5.37109375,4.21142578125,-7.14111328125,0.0,0.0,0.0,0.04423974081873894,0.013107974082231522,-0.9792757034301758,-0.19720587134361267
5.0948216915130615,2.312981450392053,4.63433500515925,-157.0441900010287,-0.12939453125,0.046875,0.88916015625,-2.685546875,-9.33837890625,-5.859375,0.0,0.0,0.0,0.04362751916050911,0.01171963382512331,-0.9791631102561951,-0.19798704981803894
5.119137763977051,2.286892048753309,4.657929039873412,-156.92138319975186,-0.005859375,0.05078125,1.03125,-4.21142578125,8.4228515625,-8.23974609375,0.0,0.0,0.0,0.04379623010754585,0.011408676393330097,-0.9789456725120544,-0.19904068112373352
5.1393256187438965,2.094235677599109,4.608356380651106,-156.76964371715087,-0.0859375,0.00537109375,1.21044921875,5.2490234375,-2.13623046875,-7.62939453125,0.0,0.0,0.0,0.043051157146692276,0.009792583994567394,-0.9787144660949707,-0.20042139291763306
5.159282922744751,1.919678667415209,4.608211666018066,-156.65205518039994,-0.11181640625,0.0537109375,0.93017578125,-1.64794921875,-4.5166015625,-5.37109375,0.0,0.0,0.0,0.04275307059288025,0.008258087560534477,-0.9785220623016357,-0.20149098336696625
5.179549217224121,1.8056211250217546,4.508300939499589,-156.5552577394825,-0.07275390625,0.0322265625,0.833984375,-3.90625,-8.72802734375,-6.103515625,0.0,0.0,0.0,0.04170582443475723,0.007425692863762379,-0.9783903956413269,-0.20238035917282104
5.199252367019653,1.863230355576227,4.539963562057653,-156.44343388239105,-0.00244140625,0.0458984375,0.9072265625,-12.39013671875,11.71875,-5.55419921875,0.0,0.0,0.0,0.04208547994494438,0.007820232771337032,-0.9781787991523743,-0.20330744981765747
5.21915864944458,1.8508032532682122,4.5839892539002625,-156.37431236799054,-0.1298828125,-0.017578125,1.03564453125,0.244140625,-3.35693359375,-3.41796875,0.0,0.0,0.0,0.04244373366236687,0.007609960623085499,-0.9780431985855103,-0.2038928121328354
5.23939061164856,1.6468562592508642,4.4808819988502195,-156.31743055258266,-0.0771484375,0.0341796875,1.15234375,1.15966796875,-9.09423828125,-4.33349609375,0.0,0.0,0.0,0.04120394587516785,0.006033336743712425,-0.9779859185218811,-0.20447345077991486
5.259319067001343,1.5340181190676687,4.3538972562354585,-156.2145132621689,0.03564453125,0.0751953125,1.12451171875,-2.3193359375,5.4931640625,-6.591796875,0.0,0.0,0.0,0.0399237759411335,0.005262219347059727,-0.977846086025238,-0.20541560649871826
5.279375791549683,1.4144673970342314,4.316738038942827,-156.1098064621926,-0.072265625,0.03125,1.01953125,1.46484375,-2.197265625,-4.45556640625,0.0,0.0,0.0,0.039396338164806366,0.004272982478141785,-0.9776740670204163,-0.20635689795017242
5.299725532531738,1.2024104071511397,4.214773559918291,-156.0246476636209,-0.07080078125,0.0302734375,0.95166015625,1.89208984375,-5.37109375,-5.67626953125,0.0,0.0,0.0,0.03814653679728508,0.002619762672111392,-0.9775571227073669,-0.20717208087444305
5.31939172744751,1.0362772613696867,4.031868351021343,-155.8837681818002,0.00048828125,0.0390625,0.95458984375,1.5869140625,-1.89208984375,-8.9111328125,0.0,0.0,0.0,0.03628784418106079,0.0014897063374519348,-0.9773574471473694,-0.20845484733581543
5.341272830963135,0.8614040881324089,3.853680668406758,-155.70842356542764,-0.02197265625,0.01220703125,1.02099609375,4.7607421875,1.15966796875,-9.46044921875,0.0,0.0,0.0,0.03445049375295639,0.00027052214136347175,-0.9770882725715637,-0.21002791821956635
5.3544371128082275,0.6627930193215749,3.7252124940816342,-155.55604204504465,-0.091796875,0.05419921875,0.8974609375,-5.31005859375,-7.01904296875,-7.50732421875,0.0,0.0,0.0,0.03298947587609291,-0.0012308908626437187,-0.9768418669700623,-0.21140064299106598
5.379204273223877,0.5810037451664936,3.696858244402796,-155.39038263691518,0.00146484375,0.03076171875,1.1240234375,0.0,3.84521484375,-10.19287109375,0.0,0.0,0.0,0.032594140619039536,-0.0019228371093049645,-0.9765416979789734,-0.21283909678459167
5.399571180343628,0.355268501057658,3.5462310154194467,-155.19905537788478,-0.07080078125,0.0126953125,1.1484375,6.28662109375,-3.90625,-10.3759765625,0.0,0.0,0.0,0.030885210260748863,-0.00361798913218081,-0.9762188196182251,-0.21454590559005737
5.4191694259643555,0.1948950056753107,3.5289226757324,-155.02621061074842,-0.078125,0.064453125,0.88427734375,-2.13623046875,-5.31005859375,-8.85009765625,0.0,0.0,0.0,0.030429968610405922,-0.00499770138412714,-0.9758924841880798,-0.21606236696243286
5.434908866882324,0.10260903143670903,3.4702722682163234,-154.85489580598616,-0.05859375,0.025390625,0.83984375,-5.615234375,-4.33349609375,-8.48388671875,0.0,0.0,0.0,0.029747962951660156,-0.005717483349144459,-0.9755791425704956,-0.21754927933216095
5.454377889633179,0.10770856139481029,3.4456468749374887,-154.67735186870087,-0.0224609375,0.0146484375,0.97265625,-5.92041015625,7.38525390625,-8.72802734375,0.0,0.0,0.0,0.029539240524172783,-0.005673081148415804,-0.9752474427223206,-0.21906089782714844
5.4796459674835205,0.09331803316446778,3.564945093415047,-154.5486984254945,-0.126953125,-0.005859375,1.0400390625,4.39453125,-2.197265625,-5.31005859375,0.0,0.0,0.0,0.030520226806402206,-0.0060579306446015835,-0.9749692678451538,-0.22015149891376495
5.499404430389404,-0.06836666510543024,3.464082622724411,-154.4307547189067,-0.068359375,0.0498046875,1.1220703125,4.5166015625,-7.6904296875,-6.28662109375,0.0,0.0,0.0,0.02934393100440502,-0.007269995752722025,-0.974759042263031,-0.22120323777198792
5.514554977416992,-0.18542198686375258,3.4089779371612177,-154.2758050473958,0.03173828125,0.0693359375,1.08349609375,-0.8544921875,7.99560546875,-8.4228515625,0.0,0.0,0.0,0.028638146817684174,-0.00819810014218092,-0.9744653105735779,-0.22255343198776245
5.537679672241211,-0.3360560326960584,3.414661294880903,-154.1682295679681,-0.1337890625,0.0126953125,1.0068359375,4.82177734375,-7.080078125,-4.150390625,0.0,0.0,0.0,0.028384979814291,-0.009516737423837185,-0.9742428064346313,-0.22350534796714783
5.559309005737305,-0.47005591319695184,3.429280887912492,-154.09424495887853,-0.06201171875,0.0439453125,0.9091796875,-0.48828125,-1.708984375,-3.47900390625,0.0,0.0,0.0,0.02824099361896515,-0.010702703148126602,-0.9740827083587646,-0.22416694462299347
5.579204559326172,-0.64711800198066,3.2849107525391092,-154.00431868826615,-0.05029296875,0.0263671875,0.9609375,1.15966796875,-3.41796875,-4.69970703125,0.0,0.0,0.0,0.026657911017537117,-0.011946656741201878,-0.973926305770874,-0.224976047873497
5.5951902866363525,-0.6757366013247192,3.158572103131149,-153.89875128445442,-0.05126953125,0.00244140625,1.02392578125,6.77490234375,-0.1220703125,-4.08935546875,0.0,0.0,0.0,0.025516849011182785,-0.011965710669755936,-0.9737472534179688,-0.22588051855564117
5.619693994522095,-0.7707341806741358,3.1874012644007146,-153.860447583589,-0.095703125,0.06103515625,0.88916015625,-5.67626953125,-6.28662109375,-1.3427734375,0.0,0.0,0.0,0.02557028830051422,-0.012838241644203663,-0.9736542701721191,-0.22622708976268768
5.638955354690552,-0.8692091800847351,3.1062208375771165,-153.81476727841996,0.0048828125,0.015625,1.20947265625,6.40869140625,1.0986328125,-3.0517578125,0.0,0.0,0.0,0.024680642411112785,-0.013524799607694149,-0.9735727906227112,-0.22663633525371552
5.65433931350708,-1.0108308580082752,2.9788597942277697,-153.74725768866355,-0.06201171875,0.0263671875,1.091796875,5.31005859375,-3.173828125,-2.9296875,0.0,0.0,0.0,0.023309817537665367,-0.014490329660475254,-0.9734525680541992,-0.22723735868930817
5.683475732803345,-1.1314771850732648,2.9934147139056555,-153.7229422152183,-0.064453125,0.06884765625,0.830078125,-4.82177734375,-4.21142578125,-1.953125,0.0,0.0,0.0,0.023190919309854507,-0.015548931434750557,-0.9733850359916687,-0.22746877372264862
5.6941633224487305,-1.1493248962613312,2.9612161349411577,-153.71251934654487,-0.0439453125,0.0244140625,0.8115234375,-8.4228515625,-3.0517578125,-0.8544921875,0.0,0.0,0.0,0.02288052625954151,-0.015638843178749084,-0.9733696579933167,-0.22755979001522064
5.71921181678772,-0.9653343276165856,2.8404908338138894,-153.67671549491564,0.00146484375,0.00146484375,0.9951171875,-5.2490234375,5.37109375,-1.46484375,0.0,0.0,0.0,0.022215930745005608,-0.013843641616404057,-0.9733504056930542,-0.227824404835701
5.740679502487183,-0.8400889353626502,2.859600849337939,-153.69769783604593,-0.0810546875,0.00341796875,1.08349609375,3.7841796875,-5.18798828125,2.01416015625,0.0,0.0,0.0,0.022629613056778908,-0.012813574634492397,-0.9734022617340088,-0.2276218682527542
5.754194021224976,-0.9368897913746559,2.7794793152791044,-153.710074138822,-0.0654296875,0.0341796875,1.142578125,2.0751953125,-8.97216796875,0.42724609375,0.0,0.0,0.0,0.02175811491906643,-0.013474610634148121,-0.973433792591095,-0.22753427922725677
5.78230881690979,-1.0430335991192985,2.671840229714758,-153.67958417436705,0.0458984375,0.072265625,1.07666015625,-2.44140625,5.79833984375,-1.953125,0.0,0.0,0.0,0.020629113540053368,-0.01416841521859169,-0.9733839631080627,-0.22781001031398773
5.806872367858887,-1.1199954236350618,2.6743129716377143,-153.6752948155683,-0.08056640625,0.01318359375,1.00732421875,2.62451171875,-1.8310546875,0.67138671875,0.0,0.0,0.0,0.020496558398008347,-0.01482782606035471,-0.9733651876449585,-0.22786030173301697
5.814474821090698,-1.195285772794876,2.7587738102536226,-153.69216538281822,-0.048828125,0.0283203125,0.93212890625,0.0,-0.48828125,0.6103515625,0.0,0.0,0.0,0.021066641435027122,-0.01563185639679432,-0.9733700156211853,-0.22773391008377075
5.839373350143433,-1.3224780891273824,2.6264901215034007,-153.70783383677423,-0.0224609375,0.0380859375,0.939453125,-0.18310546875,-1.77001953125,0.06103515625,0.0,0.0,0.0,0.01969231106340885,-0.01644725166261196,-0.9734126329421997,-0.2276173084974289
5.85429573059082,-1.3108320829839817,2.4077580090887967,-153.6766608534023,-0.005859375,-0.00244140625,1.02880859375,3.11279296875,1.89208984375,-1.220703125,0.0,0.0,0.0,0.017852801829576492,-0.015919651836156845,-0.9733981490135193,-0.22786833345890045
5.879799127578735,-1.0207160627279876,2.3919380103105774,-153.6723305134685,-0.06103515625,-0.07666015625,0.84912109375,-11.04736328125,-2.685546875,0.54931640625,0.0,0.0,0.0,0.018294738605618477,-0.013424502685666084,-0.9734298586845398,-0.22785870730876923
5.899732828140259,-0.6343154527117059,2.421836309628662,-153.63897186956217,0.0146484375,-0.2158203125,1.2265625,1.220703125,2.8076171875,-0.9765625,0.0,0.0,0.0,0.019314000383019447,-0.010207044892013073,-0.9733975529670715,-0.22807924449443817
5.919384479522705,-0.5096558025399519,2.373199172879236,-153.58822356402897,-0.04150390625,-0.2197265625,1.08447265625,2.0751953125,-4.638671875,-2.86865234375,0.0,0.0,0.0,0.019144926220178604,-0.009059877134859562,-0.9733160138130188,-0.22848930954933167
5.939063310623169,-0.22224789892901514,2.2565687836028023,-153.53127344672941,-0.04150390625,-0.1640625,0.80908203125,-10.68115234375,-6.65283203125,-2.197265625,0.0,0.0,0.0,0.01872408203780651,-0.006395548582077026,-0.9732425212860107,-0.2289271056652069
5.959267616271973,0.31164301561172875,2.118623935247698,-153.6159404716809,-0.0224609375,-0.2138671875,0.78564453125,-19.1650390625,-10.43701171875,9.94873046875,0.0,0.0,0.0,0.018620038405060768,-0.00157172663602978,-0.9734521508216858,-0.2281266301870346
5.9792046546936035,0.7983630962796308,1.9759630547141107,-154.05103718218902,0.06201171875,-0.3271484375,1.10107421875,-16.78466796875,-7.14111328125,26.123046875,0.0,0.0,0.0,0.01836603693664074,0.002916918136179447,-0.9743286371231079,-0.22436125576496124
5.999177932739258,0.965811693806546,1.5749711862791247,-154.7614588181404,0.02099609375,-0.3798828125,1.2177734375,5.9814453125,-26.9775390625,41.56494140625,0.0,0.0,0.0,0.015252449549734592,0.005221304018050432,-0.9757418632507324,-0.21833008527755737
6.021321773529053,1.031376814083614,1.1466130977174247,-155.82491927191137,0.15087890625,-0.2607421875,1.11328125,-0.3662109375,-11.41357421875,59.4482421875,0.0,0.0,0.0,0.0116683105006814,0.006705135572701693,-0.9777591228485107,-0.20929895341396332
6.039367914199829,1.1388973318328375,1.0887531778760715,-157.1957928798463,0.2001953125,-0.23876953125,1.0,-1.28173828125,5.859375,74.27978515625,0.0,0.0,0.0,0.011277751997113228,0.007863806560635567,-0.9801899790763855,-0.19758209586143494
6.059219598770142,1.2375725411634828,0.9212595437893164,-158.86364311289339,0.00048828125,-0.24462890625,0.83935546875,0.732421875,-14.70947265625,88.2568359375,0.0,0.0,0.0,0.009883238933980465,0.009141727350652218,-0.9829641580581665,-0.18330346047878265
6.074385643005371,1.2923166140828406,0.6993995782608169,-160.81073879996725,0.18017578125,-0.27001953125,1.0537109375,7.4462890625,-7.50732421875,100.830078125,0.0,0.0,0.0,0.00789724849164486,0.010102166794240475,-0.9859421253204346,-0.16659484803676605
6.094216346740723,1.3688549668700631,0.5338746928414652,-163.0120814487057,0.16748046875,-0.1513671875,0.8134765625,-3.84521484375,1.8310546875,117.0654296875,0.0,0.0,0.0,0.00637183990329504,0.01112598180770874,-0.9889584183692932,-0.14763791859149933
6.119449853897095,1.6625622792473087,0.2048818895002065,-165.49414487233165,0.0966796875,-0.224609375,0.89111328125,-5.79833984375,-18.73779296875,129.638671875,0.0,0.0,0.0,0.0036050763446837664,0.014166271314024925,-0.9918957948684692,-0.12621049582958221
6.139464616775513,1.8738792608225117,-0.053084220224179184,-168.16084196960136,0.31494140625,-0.38623046875,1.2724609375,2.13623046875,-12.14599609375,133.544921875,0.0,0.0,0.0,0.0012257008347660303,0.016312528401613235,-0.9945337176322937,-0.10312613099813461
6.159089803695679,1.8572434813252994,-0.1768811154511293,-170.9426140940075,0.3291015625,-0.326171875,1.15966796875,6.53076171875,0.1220703125,141.29638671875,0.0,0.0,0.0,-0.00025889702374115586,0.016278041526675224,-0.9967438578605652,-0.07897279411554337
6.180603742599487,1.8008967685502213,-0.5624865153572072,-173.89145264551212,0.1748046875,-0.26416015625,0.88232421875,6.4697265625,-23.0712890625,149.7802734375,0.0,0.0,0.0,-0.004063700325787067,0.015954138711094856,-0.9984400868415833,-0.053351737558841705
6.200977563858032,1.8756572444408306,-0.5361400211292351,-177.0501692498329,0.3154296875,-0.2265625,0.93896484375,4.39453125,7.568359375,159.97314453125,0.0,0.0,0.0,-0.004255227278918028,0.016482273116707802,-0.9995219111442566,-0.025812163949012756
6.214139461517334,2.1231926914722017,-0.8101408503688186,179.5879806774645,0.03271484375,-0.1982421875,0.634765625,-8.97216796875,-35.64453125,168.5791015625,0.0,0.0,0.0,-0.007135109044611454,0.018501292914152145,-0.9997974038124084,0.003463892498984933
6.239312410354614,2.346877971695534,-1.3314316133556228,176.0734385381427,0.39501953125,-0.36328125,1.1103515625,0.30517578125,-12.3291015625,177.24609375,0.0,0.0,0.0,-0.012310956604778767,0.020067576318979263,-0.9991441965103149,0.03401176258921623
6.25954270362854,2.3513912326330315,-1.3559243515541712,172.46403873162782,0.4658203125,-0.36669921875,1.2275390625,12.5732421875,-7.62939453125,181.82373046875,0.0,0.0,0.0,-0.013152625411748886,0.019695114344358444,-0.9975744485855103,0.0654556155204773
6.279505014419556,2.3687650994474283,-1.696165956190125,168.7746710703104,0.32666015625,-0.30322265625,1.02099609375,11.65771484375,-18.12744140625,186.6455078125,0.0,0.0,0.0,-0.016748545691370964,0.01912125200033188,-0.994914174079895,0.09746676683425903
6.29970908164978,2.436546402666754,-1.5514716002745783,164.9200128310787,0.388671875,-0.203125,0.82421875,-4.08935546875,18.4326171875,197.3876953125,0.0,0.0,0.0,-0.016208244487643242,0.019299380481243134,-0.9910763502120972,0.13089120388031006
6.31931734085083,2.753415740293159,-2.103049396392776,160.97075647184232,0.1201171875,-0.30908203125,0.7763671875,4.39453125,-51.45263671875,198.42529296875,0.0,0.0,0.0,-0.022064631804823875,0.020658649504184723,-0.9858656525611877,0.1647888720035553
6.339128255844116,3.063076026694027,-2.2913758545000107,156.8670285543369,0.52685546875,-0.3818359375,1.10986328125,4.57763671875,3.47900390625,207.45849609375,0.0,0.0,0.0,-0.02493952214717865,0.02217160351574421,-0.9792540669441223,0.19986967742443085
6.359747409820557,3.0918174627214405,-2.4558359240999277,152.7773298453867,0.40380859375,-0.42236328125,1.14306640625,14.95361328125,-29.96826171875,203.369140625,0.0,0.0,0.0,-0.027167504653334618,0.021172935143113136,-0.9714736342430115,0.23463279008865356
6.380578994750977,3.1075567798900887,-2.4661053269604536,148.52433497375986,0.392578125,-0.283203125,0.86083984375,7.6904296875,-6.04248046875,214.111328125,0.0,0.0,0.0,-0.028057783842086792,0.02025808021426201,-0.9620944261550903,0.2705119848251343
6.399354457855225,3.2286229501456227,-2.824426015442608,144.19309345500133,0.31982421875,-0.29638671875,0.841796875,9.94873046875,-33.02001953125,214.90478515625,0.0,0.0,0.0,-0.03210016340017319,0.0192257147282362,-0.9511227607727051,0.3065379858016968
6.420281648635864,3.398434046073422,-3.127953645742451,139.79334513886758,0.58642578125,-0.2890625,0.994140625,4.0283203125,-8.1787109375,218.994140625,0.0,0.0,0.0,-0.03580724820494652,0.01845867931842804,-0.938589870929718,0.34267520904541016
6.439140796661377,3.4583217850463286,-3.0371443597364274,135.50748339695463,0.703125,-0.2939453125,1.1123046875,6.28662109375,21.78955078125,213.9892578125,0.0,0.0,0.0,-0.03593709319829941,0.017890704795718193,-0.925121545791626,0.3775427043437958
6.459178924560547,3.5605490129104975,-3.0080667503358023,131.21611652257062,0.4765625,-0.24609375,0.81982421875,5.9814453125,-6.2255859375,213.623046875,0.0,0.0,0.0,-0.03671836480498314,0.01744965836405754,-0.910325288772583,0.41189220547676086
6.479011058807373,3.8170670124740815,-3.2888709815972472,127.01072806945875,0.55908203125,-0.28515625,0.935546875,-1.03759765625,-25.69580078125,207.763671875,0.0,0.0,0.0,-0.04052004590630531,0.01699906587600708,-0.8945376873016357,0.4448275566101074
6.499422550201416,4.130824558603311,-3.392329564502723,122.91859781316403,0.5908203125,-0.27490234375,0.8828125,5.2490234375,-8.36181640625,202.20947265625,0.0,0.0,0.0,-0.04319743067026138,0.01751399226486683,-0.8780322670936584,0.4763261079788208
6.5254082679748535,4.2307468110660125,-3.476168002130514,118.98970907803262,0.626953125,-0.33447265625,1.0673828125,12.451171875,-12.3291015625,193.2373046875,0.0,0.0,0.0,-0.044842980802059174,0.01640218310058117,-0.861168622970581,0.5060719847679138
6.535073280334473,4.201412429241278,-3.4524943530238383,115.19327137128609,0.69775390625,-0.26806640625,1.07275390625,15.625,1.46484375,189.75830078125,0.0,0.0,0.0,-0.04505079239606857,0.014802547171711922,-0.8439379334449768,0.5343408584594727
6.559021949768066,4.410003845172528,-3.4016327090391036,111.38603513546177,0.5400390625,-0.1865234375,0.8447265625,-0.1220703125,-17.578125,187.98828125,0.0,0.0,0.0,-0.04617481678724289,0.015051201917231083,-0.8256980180740356,0.5620179176330566
6.579140663146973,4.60290503591979,-3.5305326793858187,107.658486716684,0.6982421875,-0.26611328125,1.07080078125,6.34765625,-12.87841796875,183.41064453125,0.0,0.0,0.0,-0.048536740243434906,0.014235766604542732,-0.8069577813148499,0.5884391665458679
6.599326133728027,4.786868070364444,-3.659311413874766,104.04931913660087,0.58935546875,-0.232421875,0.89208984375,9.21630859375,-11.90185546875,178.955078125,0.0,0.0,0.0,-0.05082964897155762,0.013273593038320541,-0.7880069017410278,0.6134209632873535
6.619527816772461,5.017694740251848,-3.4828731134613506,100.46251359586039,0.560546875,-0.18212890625,0.80126953125,-2.13623046875,-4.21142578125,178.7109375,0.0,0.0,0.0,-0.05132434144616127,0.0142093226313591,-0.7683921456336975,0.6377596855163574
6.640647649765015,5.249752551737147,-3.6404024620444093,96.99409572400371,0.7236328125,-0.267578125,1.11767578125,2.25830078125,-15.68603515625,166.6259765625,0.0,0.0,0.0,-0.054095424711704254,0.013254787772893906,-0.74872225522995,0.660539984703064
6.6593217849731445,5.230108500797367,-3.4004621853700927,93.88300602876544,0.8515625,-0.22265625,1.14208984375,15.07568359375,19.04296875,151.06201171875,0.0,0.0,0.0,-0.05279304459691048,0.01308575551956892,-0.7304990291595459,0.6807444095611572
6.675710678100586,5.308307763491666,-3.1005639468404653,90.23198304944847,0.3974609375,-0.1181640625,0.71142578125,-2.685546875,-22.03369140625,140.9912109375,0.0,0.0,0.0,-0.051814138889312744,0.01372733898460865,-0.7084017395973206,0.70377117395401
6.699223279953003,5.410814388781572,-3.273427283553614,88.25419932243373,0.65625,-0.17431640625,0.9990234375,-0.67138671875,-2.86865234375,125.1220703125,0.0,0.0,0.0,-0.05373102053999901,0.012371226213872433,-0.6961603164672852,0.7157658338546753
6.719309568405151,5.400851704103461,-3.004457208802862,86.10625509262647,0.77490234375,-0.1083984375,1.12646484375,9.521484375,4.8828125,97.59521484375,0.0,0.0,0.0,-0.05229231342673302,0.013017279095947742,-0.6825863122940063,0.7288155555725098
6.743235349655151,5.333865477592208,-3.2814512617244977,84.14855895196074,0.57666015625,-0.03515625,0.818359375,0.79345703125,-2.685546875,66.650390625,0.0,0.0,0.0,-0.0536893755197525,0.009936671704053879,-0.670082151889801,0.7402760982513428
6.759520769119263,5.39204417516873,-3.326630828650017,83.30633515559563,0.603515625,-0.04248046875,0.8798828125,-0.91552734375,-4.2724609375,50.10986328125,0.0,0.0,0.0,-0.054400522261857986,0.009584740735590458,-0.6646246314048767,0.7451328039169312
6.779507637023926,5.290088233880657,-3.5570357343561723,82.57412521619193,0.6845703125,-0.07861328125,1.080078125,8.72802734375,-7.62939453125,26.91650390625,0.0,0.0,0.0,-0.05511648952960968,0.007139456924051046,-0.6598877310752869,0.7493060231208801
6.7992048263549805,5.105095975305447,-3.6655524992288657,82.27803651567187,0.72314453125,-0.0283203125,1.13818359375,9.09423828125,-2.8076171875,7.38525390625,0.0,0.0,0.0,-0.05454336479306221,0.005221838131546974,-0.657971978187561,0.7510464191436768
6.818058967590332,4.92837891779653,-3.7192834629952403,82.34758150180095,0.65576171875,0.0078125,1.0224609375,7.62939453125,13.18359375,-9.6435546875,0.0,0.0,0.0,-0.05369027704000473,0.0038866878021508455,-0.6584402322769165,0.7507054805755615
6.835437059402466,4.698455113540037,-3.6950917867287014,82.74673092670731,0.50439453125,0.03662109375,0.86767578125,7.62939453125,1.953125,-25.69580078125,0.0,0.0,0.0,-0.05203551799058914,0.0029056898783892393,-0.6610559821128845,0.7485244274139404
6.859342813491821,4.537283566582069,-3.875374629871188,83.48505388541818,0.49951171875,0.0908203125,0.86669921875,0.67138671875,-0.1220703125,-44.73876953125,0.0,0.0,0.0,-0.05201341211795807,0.0011306654196232557,-0.6658807992935181,0.7442419528961182
6.879059553146362,4.28480178193114,-4.13070972604789,84.6277923448855,0.56103515625,0.080078125,1.046875,9.1552734375,0.91552734375,-66.7724609375,0.0,0.0,0.0,-0.05187024176120758,-0.0014816359616816044,-0.6732805371284485,0.737563967704773
6.900308847427368,3.791970336142516,-3.998339379272574,86.84580065519877,0.41796875,0.12353515625,1.11328125,11.65771484375,21.30126953125,-95.03173828125,0.0,0.0,0.0,-0.04798117280006409,-0.0025949631817638874,-0.6874216794967651,0.7246671915054321
6.919345378875732,3.373213145676327,-3.8500397506923183,88.33806038506316,0.11376953125,0.20068359375,1.01806640625,16.54052734375,16.17431640625,-99.79248046875,0.0,0.0,0.0,-0.04449544474482536,-0.0035880107898265123,-0.6967917680740356,0.7158831357955933
6.9400153160095215,2.7960341997233344,-3.5487571181952937,90.40830438287236,-0.07568359375,0.2744140625,0.94677734375,15.80810546875,21.30126953125,-103.69873046875,0.0,0.0,0.0,-0.03914791718125343,-0.004505311604589224,-0.7096027135848999,0.7034992575645447
6.960036754608154,2.4042959569532463,-3.0857296297368437,92.53140038447913,-0.16357421875,0.34716796875,0.84130859375,1.40380859375,20.69091796875,-104.3701171875,0.0,0.0,0.0,-0.03394880145788193,-0.0034558295737951994,-0.722523033618927,0.6905041337013245
6.974621057510376,1.9898556594859167,-2.9021228323460884,94.69400220024524,-0.21240234375,0.306640625,0.962890625,7.32421875,4.8828125,-106.93359375,0.0,0.0,0.0,-0.030382828786969185,-0.004388703964650631,-0.735421895980835,0.676913857460022
6.999336242675781,1.6511186174580696,-2.7058360022046153,96.80080137049235,-0.16357421875,0.3369140625,1.02001953125,2.99072265625,12.14599609375,-104.248046875,0.0,0.0,0.0,-0.027217557653784752,-0.004902487620711327,-0.7477425336837769,0.6634125709533691
7.019123554229736,1.3285482063088196,-2.40968412243474,98.85473487656357,-0.2119140625,0.34228515625,1.041015625,3.47900390625,6.8359375,-101.1962890625,0.0,0.0,0.0,-0.023509474471211433,-0.004870950244367123,-0.7595216631889343,0.6500388979911804
7.039210557937622,1.0945225532906167,-2.318012525046002,100.85729852988712,-0.25390625,0.36376953125,1.03466796875,-0.1220703125,2.50244140625,-98.32763671875,0.0,0.0,0.0,-0.021674321964383125,-0.005523864645510912,-0.7707620859146118,0.636730432510376
7.059005498886108,0.8316892434265626,-2.1772803191792978,102.81519957622795,-0.1591796875,0.3134765625,1.0126953125,3.7841796875,7.568359375,-96.13037109375,0.0,0.0,0.0,-0.0193758737295866,-0.006179247051477432,-0.781527578830719,0.6235391497612
7.079033851623535,0.5169058882613617,-2.0511036733207133,104.72717443058963,-0.20703125,0.31005859375,0.93798828125,4.150390625,-3.0517578125,-93.8720703125,0.0,0.0,0.0,-0.016927646473050117,-0.007357891649007797,-0.7918161153793335,0.6104806661605835
7.099185228347778,0.34375453634473546,-1.9319958463662692,106.58203524311165,-0.18505859375,0.3525390625,0.9150390625,-4.0283203125,3.47900390625,-90.8203125,0.0,0.0,0.0,-0.015308419242501259,-0.007672903593629599,-0.8015946745872498,0.5976227521896362
7.119357347488403,0.14948415947315036,-1.7815194151531895,108.35179189857531,-0.197265625,0.314453125,1.0390625,-0.18310546875,3.47900390625,-85.3271484375,0.0,0.0,0.0,-0.013368437066674232,-0.008041505701839924,-0.8107308745384216,0.5852112770080566
7.1396729946136475,-0.054395206333265035,-1.6356283887507153,109.99155639375529,-0.20849609375,0.33154296875,1.05224609375,1.0986328125,2.3193359375,-80.99365234375,0.0,0.0,0.0,-0.011418935842812061,-0.008576336316764355,-0.8190223574638367,0.5735838413238525
7.155158996582031,-0.24399716891746626,-1.4998714420858361,111.54101212772936,-0.19580078125,0.33984375,1.02587890625,0.18310546875,2.685546875,-76.0498046875,0.0,0.0,0.0,-0.009623774327337742,-0.00912268366664648,-0.8267027735710144,0.5624827146530151
7.179241180419922,-0.3896431089226132,-1.3536914133041058,112.99113642060394,-0.1865234375,0.322265625,0.97802734375,-1.708984375,2.13623046875,-70.73974609375,0.0,0.0,0.0,-0.007973234169185162,-0.009355801157653332,-0.8337579965591431,0.5519932508468628
7.199301719665527,-0.52629168875887,-1.2496128840097458,114.32850112047078,-0.18505859375,0.3173828125,1.01220703125,-0.30517578125,-0.54931640625,-64.02587890625,0.0,0.0,0.0,-0.006672166287899017,-0.009771553799510002,-0.8401424884796143,0.5422366857528687
7.219449281692505,-0.7057263077838056,-1.1476980305783988,115.53915215085553,-0.1572265625,0.3173828125,1.05712890625,1.220703125,-1.03759765625,-57.80029296875,0.0,0.0,0.0,-0.0051875910721719265,-0.010550708509981632,-0.8458187580108643,0.5333408117294312
7.239983558654785,-0.8522194580502986,-1.075563442258542,116.62236551170619,-0.15185546875,0.3095703125,1.00732421875,-1.28173828125,-2.3193359375,-52.001953125,0.0,0.0,0.0,-0.004079890437424183,-0.011258264072239399,-0.850816011428833,0.5253273844718933
7.259320259094238,-0.9921108035971512,-1.0973441684697722,117.56506822095136,-0.11279296875,0.30859375,0.9775390625,-2.3193359375,-3.72314453125,-44.49462890625,0.0,0.0,0.0,-0.003702169982716441,-0.0123667037114501,-0.8550921082496643,0.518315315246582
7.279903888702393,-1.1658953620746053,-1.081526837734198,118.37146767511975,-0.07666015625,0.2744140625,0.99853515625,1.220703125,-6.28662109375,-36.43798828125,0.0,0.0,0.0,-0.0028936476446688175,-0.013571935705840588,-0.8587005138397217,0.512289822101593
7.299689292907715,-1.3625221008489918,-1.0894650116536337,118.95274409424451,-0.0390625,0.26025390625,1.0234375,1.89208984375,-2.197265625,-25.146484375,0.0,0.0,0.0,-0.0021505719050765038,-0.015070111490786076,-0.8612625598907471,0.5079322457313538
7.31954288482666,-1.5961233216433022,-1.0501014575280867,119.34274789585224,0.00732421875,0.294921875,1.03662109375,1.8310546875,3.173828125,-15.93017578125,0.0,0.0,0.0,-0.0008758977637626231,-0.01664852164685726,-0.8629589676856995,0.5049989819526672
7.3394997119903564,-1.7600509566530758,-1.028059690024515,119.54455266506943,-0.05419921875,0.3115234375,0.9951171875,-1.46484375,-1.89208984375,-6.16455078125,0.0,0.0,0.0,-1.878684270195663e-05,-0.017785903066396713,-0.863825261592865,0.5034775733947754
7.3598151206970215,-1.9239131712572055,-1.0332948165799183,119.61592814189606,-0.03173828125,0.30712890625,1.02490234375,0.06103515625,-4.08935546875,-2.0751953125,0.0,0.0,0.0,0.0006498362636193633,-0.019044525921344757,-0.8641116619110107,0.5029392838478088
7.379128932952881,-2.104922148885829,-1.0350345938275674,119.65527003151534,-0.01953125,0.27490234375,1.01611328125,1.5869140625,0.0,-2.01416015625,0.0,0.0,0.0,0.0014241475146263838,-0.020417576655745506,-0.8642528057098389,0.5026411414146423
7.399188280105591,-2.2813879834993362,-0.9985243512277931,119.69605992123866,-0.0517578125,0.27294921875,0.9716796875,-0.8544921875,-0.244140625,-1.8310546875,0.0,0.0,0.0,0.002465913537889719,-0.021589290350675583,-0.8644049167633057,0.5023266077041626
7.419306993484497,-2.4352493070546863,-0.9504774922330442,119.7480923023358,-0.0498046875,0.2509765625,1.013671875,-0.48828125,-0.8544921875,-2.5634765625,0.0,0.0,0.0,0.0034926484804600477,-0.022541005164384842,-0.8646106719970703,0.501924455165863
7.441279649734497,-2.6449446523105404,-0.9161285776187559,119.8058347215791,-0.04736328125,0.22119140625,1.00927734375,-0.244140625,-1.15966796875,-1.03759765625,0.0,0.0,0.0,0.0046582650393247604,-0.02397514507174492,-0.8648263812065125,0.5014768242835999
7.4593799114227295,-2.7611246759885764,-0.8904917827342304,119.82204959066871,-0.025390625,0.193359375,0.990234375,-2.25830078125,-1.0986328125,-0.91552734375,0.0,0.0,0.0,0.005356708541512489,-0.024740589782595634,-0.8648768067359924,0.5013456344604492
7.4806740283966064,-2.8173687224826924,-0.9234191642275098,119.87615834927355,0.03466796875,0.06884765625,0.98779296875,-5.18798828125,-0.54931640625,-3.7841796875,0.0,0.0,0.0,0.00534225907176733,-0.025311574339866638,-0.8650956749916077,0.5009395480155945
7.49947452545166,-2.622612281602126,-0.7985370526600545,119.91383367273534,-0.0390625,0.0205078125,1.044921875,-1.77001953125,3.7841796875,-0.91552734375,0.0,0.0,0.0,0.005426233634352684,-0.02329743467271328,-0.865321695804596,0.5006458163261414
7.514641284942627,-2.5141947679158094,-0.5952836430085804,119.90998144604346,-0.10107421875,-0.01513671875,1.0048828125,-3.84521484375,4.21142578125,1.8310546875,0.0,0.0,0.0,0.006488430313766003,-0.02159092389047146,-0.8653552532196045,0.5006517171859741
7.535227060317993,-2.3847680192293566,-0.46156219943807075,119.92590944718792,-0.041015625,0.02734375,1.03076171875,0.732421875,0.67138671875,-0.244140625,0.0,0.0,0.0,0.006930141244083643,-0.02003045566380024,-0.865465521812439,0.5005200505256653
7.5591864585876465,-2.4363967788352485,-0.32375510212470343,119.95577103423922,-0.03857421875,0.03125,0.947265625,-2.99072265625,-2.74658203125,-1.03759765625,0.0,0.0,0.0,0.008191372267901897,-0.019820768386125565,-0.8656031489372253,0.5002711415290833
7.579474449157715,-2.15203039047823,-0.2753710825809645,119.98762703652817,-0.005859375,-0.06396484375,1.013671875,-3.11279296875,-3.0517578125,-3.5400390625,0.0,0.0,0.0,0.007310563698410988,-0.01746349036693573,-0.8657937049865723,0.5000430345535278
7.59926700592041,-1.8266958871492405,-0.20595860478983552,119.99139730095001,-0.01123046875,-0.16064453125,0.990234375,-5.31005859375,0.54931640625,-1.15966796875,0.0,0.0,0.0,0.006414886098355055,-0.014702708460390568,-0.8658621311187744,0.5000256299972534
7.618948936462402,-1.566932373791137,-0.2015363641271564,120.05045111651394,-0.05517578125,-0.10302734375,1.02685546875,-6.28662109375,2.13623046875,0.79345703125,0.0,0.0,0.0,0.005308241117745638,-0.01272332388907671,-0.8661511540412903,0.4995920956134796
7.63974928855896,-1.3212860076738036,-0.12293714850022808,120.05700809811715,-0.06201171875,-0.1552734375,1.015625,-0.48828125,-4.0283203125,-3.2958984375,0.0,0.0,0.0,0.004830796271562576,-0.010524171404540539,-0.8662098050117493,0.4995463192462921
7.659074783325195,-1.0622867284508009,-0.052815611695887194,120.03759670049597,-0.06884765625,-0.15771484375,0.9580078125,-4.5166015625,-3.23486328125,0.30517578125,0.0,0.0,0.0,0.004233186598867178,-0.00825994461774826,-0.8661500215530396,0.4996979832649231
7.679081439971924,-0.7666274227139599,-0.0677779481557001,120.06226734377806,-0.0146484375,-0.17578125,1.013671875,-2.25830078125,-2.5634765625,-1.77001953125,0.0,0.0,0.0,0.0028294881340116262,-0.006091008894145489,-0.866275429725647,0.49952152371406555
7.699580192565918,-0.5375030173946228,-0.033226679182090206,120.09924598794451,-0.0361328125,-0.1533203125,0.99072265625,-2.9296875,1.64794921875,-0.54931640625,0.0,0.0,0.0,0.0020905386190861464,-0.004208951257169247,-0.866447925567627,0.4992455542087555
7.719515323638916,-0.369596637110758,-0.03317137065806897,120.13513180184376,-0.01318359375,-0.169921875,1.02099609375,-0.48828125,-5.615234375,-4.57763671875,0.0,0.0,0.0,0.0013585101114585996,-0.0029395611491054296,-0.8666093945503235,0.4989766478538513
7.7407824993133545,-0.12429871736280103,0.04674499092140077,120.18269723922373,-0.02783203125,-0.1435546875,0.9794921875,-1.89208984375,2.197265625,-1.5869140625,0.0,0.0,0.0,0.0008944566361606121,-0.0007368505466729403,-0.8668211102485657,0.4986180067062378
7.7617552280426025,0.10669336449845765,0.10364774712897326,120.23907362063301,-0.03466796875,-0.1591796875,1.00244140625,-1.708984375,1.3427734375,-2.50244140625,0.0,0.0,0.0,0.0003204049135092646,0.0012579169124364853,-0.8670655488967896,0.4981924295425415
7.7795164585113525,0.25864859169780474,0.1758542792187399,120.25867626355095,-0.0615234375,-0.15625,0.99853515625,-1.64794921875,-0.30517578125,-2.5634765625,0.0,0.0,0.0,0.000206593336770311,0.002721579512581229,-0.8671469688415527,0.4980449378490448
7.800093650817871,0.6406043493899951,0.26259782842024726,120.29441181328845,-0.0400390625,-0.2109375,0.92431640625,-6.9580078125,0.06103515625,-2.25830078125,0.0,0.0,0.0,-0.0007952066953293979,0.005989170167595148,-0.8672850131988525,0.4977753460407257
7.814243316650391,0.8459626312445967,0.3079571947395813,120.32733332508792,-0.04931640625,-0.21875,1.0322265625,-3.23486328125,0.91552734375,-1.708984375,0.0,0.0,0.0,-0.0013417357113212347,0.007740821689367294,-0.8674135208129883,0.49752599000930786
7.8343095779418945,1.1049372043927108,0.3488721356216468,120.36024117650904,-0.0859375,-0.2470703125,0.98193359375,-2.9296875,-2.13623046875,-0.48828125,0.0,0.0,0.0,-0.0021535800769925117,0.009879378601908684,-0.8675340414047241,0.49727511405944824
7.859292507171631,1.2467261685900635,0.32620951459469166,120.35894344056673,-0.0908203125,-0.20849609375,1.048828125,4.150390625,-4.33349609375,1.708984375,0.0,0.0,0.0,-0.0029405751265585423,0.010854441672563553,-0.8675171136856079,0.49728018045425415
7.879571199417114,1.366205920689156,0.2623956174682179,120.37823189478284,-0.00341796875,-0.12353515625,1.017578125,1.953125,-3.60107421875,-1.220703125,0.0,0.0,0.0,-0.003940251190215349,0.011482729576528072,-0.8675934672355652,0.49712589383125305
7.898818492889404,1.5839164929360199,0.25990996221886215,120.39096336739576,-0.0732421875,-0.1044921875,0.95458984375,-2.62451171875,-5.67626953125,-0.8544921875,0.0,0.0,0.0,-0.00490208575502038,0.013120793737471104,-0.8676255941390991,0.497020959854126
7.920704126358032,1.9096231348530694,0.3099797311466984,120.40735582140378,-0.00732421875,-0.11328125,1.00439453125,-2.0751953125,-0.42724609375,-1.5869140625,0.0,0.0,0.0,-0.0059333979152143,0.015804791823029518,-0.8676512837409973,0.4968867003917694
7.939360857009888,2.0756138071573043,0.3068472889994542,120.43066042685187,-0.00927734375,-0.10791015625,1.013671875,-0.42724609375,-0.30517578125,-1.28173828125,0.0,0.0,0.0,-0.006673402152955532,0.017049385234713554,-0.8677288889884949,0.49670055508613586
7.955750226974487,2.278623250989362,0.3463442452572281,120.45974337233778,-0.0224609375,-0.0771484375,0.974609375,-0.79345703125,-0.42724609375,-1.0986328125,0.0,0.0,0.0,-0.007249489426612854,0.018759621307253838,-0.86781907081604,0.4964732527732849
7.982791900634766,2.3844642892547028,0.2668519690561074,120.53527160417978,0.0654296875,-0.05029296875,1.04833984375,-0.244140625,6.9580078125,-4.21142578125,0.0,0.0,0.0,-0.008297414518892765,0.019222311675548553,-0.8681371808052063,0.4958825409412384
7.999423980712891,2.384968656036226,0.3062741934394078,120.63335312066117,-0.080078125,-0.0439453125,1.041015625,-1.89208984375,-5.7373046875,-2.5634765625,0.0,0.0,0.0,-0.007984316907823086,0.01940353587269783,-0.8685569167137146,0.49514517188072205
8.020146131515503,2.3500796228689778,0.36184101066906144,120.69272112492692,-0.037109375,-0.02880859375,1.04931640625,2.01416015625,-3.47900390625,-4.69970703125,0.0,0.0,0.0,-0.007402318995445967,0.019382983446121216,-0.8688129782676697,0.494705468416214
8.041191101074219,2.0987890658979804,0.52946281752446,120.80082935910988,-0.02197265625,-0.033203125,0.9833984375,5.79833984375,1.64794921875,-5.0048828125,0.0,0.0,0.0,-0.00502924807369709,0.018205948173999786,-0.8693015575408936,0.4939211308956146
8.054207801818848,1.9948438320141415,0.778879661507052,120.860935023806,-0.04296875,-0.01025390625,0.9384765625,0.67138671875,7.2021484375,-3.72314453125,0.0,0.0,0.0,-0.002679196186363697,0.01849352940917015,-0.8695472478866577,0.4934961199760437
8.079688549041748,1.8746209766776927,0.844241637017165,120.90586400816633,-0.12255859375,-0.00048828125,1.02294921875,0.54931640625,-16.41845703125,-0.732421875,0.0,0.0,0.0,-0.0016583906253799796,0.017863266170024872,-0.8697514533996582,0.49316394329071045
8.098974227905273,1.7384718277440667,0.7517602353249577,120.85787509905782,-0.0107421875,-0.017578125,1.0126953125,1.40380859375,-10.43701171875,3.173828125,0.0,0.0,0.0,-0.0017813693266361952,0.016431277617812157,-0.8695763945579529,0.4935218095779419
8.114519596099854,1.6503084929894827,0.5711280386785956,120.75072309135867,0.0244140625,0.0,0.9365234375,-4.0283203125,-3.5400390625,7.8125,0.0,0.0,0.0,-0.0027865665033459663,0.014981940388679504,-0.8691460490226746,0.49432069063186646
8.139360427856445,1.7176199005382524,0.4095110620011225,120.5110790741396,0.0615234375,-0.07080078125,1.083984375,3.7841796875,1.28173828125,15.07568359375,0.0,0.0,0.0,-0.004333773162215948,0.014786438085138798,-0.8681171536445618,0.4961201846599579
8.159796476364136,1.5426484899708028,0.2133765504142264,119.99785865990484,0.0068359375,-0.00146484375,1.01171875,5.55419921875,-3.11279296875,24.71923828125,0.0,0.0,0.0,-0.005118648987263441,0.012589039281010628,-0.8659235835075378,0.4999918043613434
8.174460172653198,1.4086925788126914,0.12928009972249563,119.59650308389655,0.0078125,0.04052734375,0.87158203125,-4.39453125,-2.44140625,27.7099609375,0.0,0.0,0.0,-0.005208901595324278,0.011191689409315586,-0.864186704158783,0.5030200481414795
8.198797702789307,1.3679844379160038,-0.07893635616559852,118.84340642601094,0.01513671875,-0.0166015625,0.95556640625,-4.5166015625,-2.38037109375,31.55517578125,0.0,0.0,0.0,-0.0066658672876656055,0.009927116334438324,-0.8608774542808533,0.5086719393730164
8.220105171203613,1.3816812083577008,-0.10927164084821846,118.34235740887715,-0.021484375,-0.0341796875,1.0390625,0.8544921875,-6.34765625,33.87451171875,0.0,0.0,0.0,-0.006997761782258749,0.009864849038422108,-0.8586453199386597,0.5124276280403137
8.239338636398315,1.40405722824378,-0.2352513251286765,117.66043132214307,0.03271484375,-0.02880859375,1.0703125,5.859375,-3.72314453125,33.8134765625,0.0,0.0,0.0,-0.008097986690700054,0.009421112947165966,-0.8555843234062195,0.5175143480300903
8.264102935791016,1.21174492786902,-0.41357211639079755,116.9605145171352,0.0009765625,0.03515625,0.927734375,-3.23486328125,-6.65283203125,36.19384765625,0.0,0.0,0.0,-0.008604546077549458,0.007127388380467892,-0.8524267673492432,0.5227271318435669
8.280472040176392,1.1370050492676265,-0.6514284383163199,116.10105815349415,0.0830078125,-0.0078125,1.05224609375,-1.28173828125,-1.15966796875,33.38623046875,0.0,0.0,0.0,-0.010073755867779255,0.005410836078226566,-0.8484894633293152,0.5290887355804443
8.299438714981079,1.117411157529564,-0.781950685312619,115.60485857067106,0.095703125,0.00341796875,0.9873046875,0.42724609375,4.08935546875,32.89794921875,0.0,0.0,0.0,-0.010969751514494419,0.00461554154753685,-0.8461912870407104,0.5327463150024414
8.319239139556885,1.017551657429862,-0.8995316448224481,114.80138243746744,0.08984375,0.02978515625,1.00927734375,-1.3427734375,1.3427734375,31.8603515625,0.0,0.0,0.0,-0.011396769434213638,0.0032515458296984434,-0.8424372673034668,0.5386639833450317
8.341419219970703,0.9799839094474994,-0.9655718901336551,114.32207391246179,0.076171875,0.03759765625,0.9697265625,-4.8828125,4.33349609375,31.92138671875,0.0,0.0,0.0,-0.011716676875948906,0.0026158688124269247,-0.8401765823364258,0.5421801805496216
8.360026121139526,0.7922684864667167,-1.1661659015987613,113.57161370759582,0.03173828125,-0.00439453125,1.10595703125,5.67626953125,-5.0048828125,28.9306640625,0.0,0.0,0.0,-0.012300757691264153,0.00020970018522348255,-0.8366038799285889,0.5476701855659485
8.37939977645874,0.6173803721906295,-1.246445063617035,113.16128326301812,0.05517578125,0.0302734375,1.05029296875,3.173828125,3.60107421875,27.2216796875,0.0,0.0,0.0,-0.012045676819980145,-0.0014940118417143822,-0.8346326351165771,0.550673246383667
8.397141218185425,0.4436595532519533,-1.2332454028808681,112.46386630724646,-0.001953125,0.03271484375,0.95849609375,-0.91552734375,-4.150390625,29.052734375,0.0,0.0,0.0,-0.011098095215857029,-0.0027634662110358477,-0.8312631845474243,0.5557613372802734
8.419764757156372,0.3869307767701777,-1.1347553557097536,111.87776777456767,-0.01171875,-0.01513671875,0.93505859375,4.94384765625,-4.638671875,30.029296875,0.0,0.0,0.0,-0.010094605386257172,-0.0027489233762025833,-0.8284140229225159,0.5600185990333557
8.44051194190979,0.19735590148892512,-1.0446243928656769,111.29403931753087,0.02490234375,0.0458984375,1.00927734375,1.52587890625,2.44140625,28.38134765625,0.0,0.0,0.0,-0.008497709408402443,-0.0037222292739897966,-0.8255501985549927,0.5642523765563965
8.45933723449707,0.03441013285276723,-1.0091670666151424,110.87368898544078,0.02294921875,0.0517578125,1.1201171875,1.64794921875,2.01416015625,27.9541015625,0.0,0.0,0.0,-0.007422538008540869,-0.004748795181512833,-0.8234708905220032,0.567290186882019
8.479582071304321,-0.11789389423160669,-0.9836678360093691,110.31362713387807,-0.01171875,0.0458984375,1.04296875,-2.01416015625,-3.47900390625,28.99169921875,0.0,0.0,0.0,-0.006457283161580563,-0.005748662166297436,-0.8206831216812134,0.5713183283805847
8.498995065689087,-0.24390159962993896,-0.9464363681219239,109.71450343045205,0.00927734375,0.0146484375,0.93310546875,0.48828125,-4.08935546875,30.2734375,0.0,0.0,0.0,-0.005528514739125967,-0.006494478322565556,-0.8176806569099426,0.575609028339386
8.52018404006958,-0.3800410102079125,-0.887640712364279,109.10010742404191,-0.00634765625,0.01318359375,0.861328125,-0.30517578125,-4.33349609375,30.82275390625,0.0,0.0,0.0,-0.004386599175632,-0.007194214034825563,-0.8145787119865417,0.5799919962882996
8.539401531219482,-0.425938974295899,-0.8383354443758081,108.49785549397603,-0.00537109375,0.02392578125,0.9609375,-1.77001953125,-2.74658203125,30.21240234375,0.0,0.0,0.0,-0.0037655248306691647,-0.007290837354958057,-0.8115198612213135,0.5842671990394592
8.55928897857666,-0.5225436758126784,-0.825768216468102,107.89742722441855,-0.00927734375,0.03271484375,1.07958984375,-2.0751953125,-5.92041015625,30.94482421875,0.0,0.0,0.0,-0.0031424672342836857,-0.007927478291094303,-0.8084418177604675,0.588514506816864
8.574580907821655,-0.6545416171956705,-0.7814508542035916,107.26225378255322,0.005859375,0.025390625,1.15625,1.64794921875,-3.5400390625,31.67724609375,0.0,0.0,0.0,-0.0021040095016360283,-0.008642932400107384,-0.8051611185073853,0.5929893851280212
8.599114179611206,-0.8736535521611507,-0.8709643252580168,106.61131626408348,0.01171875,0.0234375,1.00927734375,3.7841796875,-2.685546875,33.0810546875,0.0,0.0,0.0,-0.0015386327868327498,-0.01065453514456749,-0.801753580570221,0.597557783126831
8.619693756103516,-1.1052715634969241,-0.9552223392720874,105.7861952614001,0.056640625,0.0517578125,0.990234375,0.6103515625,-1.03759765625,32.2265625,0.0,0.0,0.0,-0.0008288120152428746,-0.012720640748739243,-0.7973979711532593,0.6033192873001099
8.639848709106445,-1.1557290523818644,-1.1222324173099467,105.13669891284525,0.0546875,0.0556640625,0.93798828125,-5.7373046875,0.6103515625,32.8369140625,0.0,0.0,0.0,-0.0016463526990264654,-0.013960402458906174,-0.7939404845237732,0.6078330278396606
8.65904974937439,-1.1230310158343093,-1.2145542700520109,104.66471235062986,0.072265625,0.02685546875,0.96484375,-4.45556640625,4.150390625,31.1279296875,0.0,0.0,0.0,-0.0024009314365684986,-0.014233443886041641,-0.7914228439331055,0.6110987663269043
8.681387424468994,-1.0667185607267873,-1.457938883058718,103.91249678714718,0.0751953125,0.02001953125,1.0029296875,0.54931640625,1.708984375,27.9541015625,0.0,0.0,0.0,-0.004282936919480562,-0.015170528553426266,-0.7873695492744446,0.6162797808647156
8.699044704437256,-1.0796636901946655,-1.5017274392710813,103.50002849335928,0.10791015625,0.06005859375,1.00390625,-4.0283203125,8.9111328125,27.4658203125,0.0,0.0,0.0,-0.004458446986973286,-0.015511048957705498,-0.7851383686065674,0.6191100478172302
8.72060513496399,-1.1652302724041754,-1.5824818330452,102.81687980276378,-0.02587890625,0.02099609375,1.07275390625,1.40380859375,-12.0849609375,26.91650390625,0.0,0.0,0.0,-0.004450907465070486,-0.01656028814613819,-0.7814098596572876,0.6237826347351074
8.740232944488525,-1.2178502632133652,-1.6020542737204004,102.28590089668698,0.0576171875,0.04052734375,0.95947265625,-1.28173828125,5.9814453125,26.18408203125,0.0,0.0,0.0,-0.004219030030071735,-0.017045345157384872,-0.7785003781318665,0.6273984313011169
8.75956416130066,-1.2753125379789767,-1.6095688691895895,101.8914438117404,0.06201171875,0.03564453125,1.044921875,2.25830078125,10.1318359375,27.16064453125,0.0,0.0,0.0,-0.0038952988106757402,-0.017490362748503685,-0.7763262987136841,0.63007652759552
8.779333591461182,-1.3264699078104316,-1.4948513597675825,101.31711369500154,-0.03515625,0.017578125,1.05224609375,6.34765625,0.244140625,29.541015625,0.0,0.0,0.0,-0.0027503592427819967,-0.01722041144967079,-0.7731685638427734,0.6339609026908875
8.820751428604126,-1.3540343101447816,-1.4055917796512114,100.57473360392369,-0.04296875,0.07275390625,0.896484375,-8.97216796875,-5.43212890625,30.09033203125,0.0,0.0,0.0,-0.0018858558032661676,-0.016925331205129623,-0.7690545320510864,0.6389562487602234
8.830320835113525,-1.2029650398560858,-1.4322639885252286,99.83030445609482,-0.01806640625,0.00439453125,1.0,-2.685546875,-12.26806640625,31.1279296875,0.0,0.0,0.0,-0.002802860690280795,-0.01607867330312729,-0.7649053335189819,0.6439359784126282
8.835777044296265,-1.140309260000326,-1.4752723023466237,99.49285212996118,0.00341796875,-0.01171875,1.06884765625,3.96728515625,-10.498046875,34.66796875,0.0,0.0,0.0,-0.003395250765606761,-0.015912115573883057,-0.7630083560943604,0.6461838483810425
8.859180212020874,-1.1554310853793226,-1.8116722457395629,98.6825321472092,0.06494140625,0.017578125,1.0146484375,7.01904296875,-7.6904296875,44.921875,0.0,0.0,0.0,-0.005423589143902063,-0.01794791780412197,-0.758366584777832,0.6515585780143738
8.879158735275269,-1.2987496917856407,-2.078933065650519,97.69888245388982,0.09423828125,0.08056640625,0.919921875,-0.42724609375,-4.150390625,51.33056640625,0.0,0.0,0.0,-0.006202416028827429,-0.020469332113862038,-0.752675473690033,0.6580442786216736
8.903883457183838,-1.3456952894984309,-2.4613423372314274,96.31955307176243,0.0947265625,0.04541015625,1.0810546875,-1.220703125,-6.2255859375,57.55615234375,0.0,0.0,0.0,-0.008168366737663746,-0.023072486743330956,-0.7446164488792419,0.6670437455177307
8.917298078536987,-1.3812200638670191,-2.7212231377441847,95.12840223145805,0.12158203125,0.0419921875,1.12451171875,3.11279296875,-1.0986328125,60.24169921875,0.0,0.0,0.0,-0.009392565116286278,-0.024914152920246124,-0.7375791072845459,0.6747355461120605
8.939464807510376,-1.4186360535837605,-2.889094673391112,94.23255461991918,0.09765625,0.04833984375,1.0341796875,1.28173828125,-1.0986328125,60.302734375,0.0,0.0,0.0,-0.010048642754554749,-0.026222139596939087,-0.7322348952293396,0.6804730296134949
8.96572732925415,-1.453521138047895,-3.1948145809711175,92.40333433754138,0.0556640625,0.01806640625,0.97900390625,5.126953125,-5.9814453125,61.03515625,0.0,0.0,0.0,-0.011343536898493767,-0.028443846851587296,-0.7211971282958984,0.6920529007911682
8.974284887313843,-1.3900343162692148,-3.3206070286888885,91.79765365251217,0.06787109375,0.01806640625,0.990234375,4.21142578125,-6.34765625,59.9365234375,0.0,0.0,0.0,-0.012366754934191704,-0.028869185596704483,-0.7175132036209106,0.6958364844322205
8.998701572418213,-1.3805466499035381,-3.5269310352591066,90.6400731919784,0.1650390625,0.06005859375,0.9970703125,-1.89208984375,5.79833984375,57.2509765625,0.0,0.0,0.0,-0.013412744738161564,-0.030198724940419197,-0.710396409034729,0.703025758266449
9.017638921737671,-1.3467184304917577,-3.7491096184402166,89.47272556093152,0.0849609375,0.029296875,0.98974609375,0.244140625,-5.31005859375,58.59375,0.0,0.0,0.0,-0.01467848289757967,-0.03150218725204468,-0.7031473517417908,0.7101943492889404
9.049328565597534,-0.808115592558204,-4.175043630176797,87.73657343618432,0.14404296875,0.0009765625,0.88720703125,-18.49365234375,-18.24951171875,53.03955078125,0.0,0.0,0.0,-0.02016202174127102,-0.0311440359801054,-0.6923405528068542,0.7206165790557861
9.060368776321411,-0.5006417671045333,-4.393037655274216,87.2517256277618,0.24853515625,-0.03271484375,0.9697265625,-26.79443359375,-9.21630859375,47.54638671875,0.0,0.0,0.0,-0.023283230140805244,-0.030755305662751198,-0.6893116235733032,0.7234373092651367
9.08010458946228,0.08870300641040108,-4.633776210307778,85.96734953547592,0.177734375,-0.23779296875,1.16064453125,-2.99072265625,-0.18310546875,53.8330078125,0.0,0.0,0.0,-0.02812805026769638,-0.029046447947621346,-0.6812552809715271,0.7309285402297974
9.09905481338501,0.2953110728108762,-4.659445341869155,85.08538086833052,0.06787109375,-0.236328125,1.01123046875,0.42724609375,-3.90625,60.60791015625,0.0,0.0,0.0,-0.02938220463693142,-0.02820882759988308,-0.6756554245948792,0.7360916137695312
9.120686531066895,0.8308244240837626,-4.7832698413323165,83.088322347478,0.009765625,-0.24609375,0.896484375,-3.5400390625,-7.14111328125,68.29833984375,0.0,0.0,0.0,-0.03309602290391922,-0.026427464559674263,-0.6628284454345703,0.747572660446167
9.139638900756836,1.0142799968174259,-4.83537948894446,82.3792052776581,0.0380859375,-0.27490234375,0.94873046875,-1.89208984375,-8.9111328125,69.9462890625,0.0,0.0,0.0,-0.034434251487255096,-0.025920001789927483,-0.6582219004631042,0.7515892386436462
9.159263372421265,1.5465947384854835,-5.051695848826995,80.52750001253263,0.10302734375,-0.2734375,1.02587890625,-7.2021484375,-10.7421875,75.0732421875,0.0,0.0,0.0,-0.03876883164048195,-0.024911625310778618,-0.6460742354393005,0.7618823051452637
9.179206848144531,1.8778294580403063,-5.16315471768467,79.32714207722707,0.16552734375,-0.29638671875,1.078125,-3.96728515625,-6.8359375,80.078125,0.0,0.0,0.0,-0.04134688898921013,-0.02422027476131916,-0.638113260269165,0.7684500217437744
9.199567079544067,2.1802100434464102,-5.245626263704813,77.61398036922614,0.14501953125,-0.31982421875,1.10693359375,4.08935546875,-2.9296875,88.56201171875,0.0,0.0,0.0,-0.04348275437951088,-0.023742815479636192,-0.6266074776649475,0.777758777141571
9.219915628433228,2.4372571692272587,-5.24596734627649,75.75253525434422,0.1201171875,-0.27099609375,1.01708984375,2.5634765625,-5.7373046875,93.75,0.0,0.0,0.0,-0.04486030712723732,-0.023071222007274628,-0.6139445900917053,0.7877355217933655
9.239013433456421,2.85358921565127,-5.251466075445173,73.73505446787337,0.08349609375,-0.19921875,0.7666015625,-6.103515625,-6.16455078125,101.98974609375,0.0,0.0,0.0,-0.04737640172243118,-0.021715786308050156,-0.6000637412071228,0.7982527613639832
9.25923752784729,3.400804762045651,-5.066434543282236,71.52896483766177,0.1513671875,-0.2724609375,0.9931640625,-0.3662109375,-4.94384765625,109.19189453125,0.0,0.0,0.0,-0.04987482726573944,-0.018522363156080246,-0.5846906900405884,0.8095099329948425
9.275474786758423,3.8158725831429754,-5.178723707010891,69.2130184448397,0.171875,-0.26318359375,1.072265625,-9.1552734375,-9.09423828125,119.68994140625,0.0,0.0,0.0,-0.05301881954073906,-0.018274346366524696,-0.568280816078186,0.8209214806556702
9.299920320510864,4.675315713292503,-5.519316639502279,66.05381006689868,0.14111328125,-0.30517578125,0.9599609375,-12.0849609375,-24.169921875,125.244140625,0.0,0.0,0.0,-0.060377608984708786,-0.01812785305082798,-0.5455941557884216,0.8356751799583435
9.32241177558899,5.003419217999698,-5.928704091087679,64.10545762501752,0.1767578125,-0.5302734375,1.21337890625,8.056640625,-47.36328125,126.77001953125,0.0,0.0,0.0,-0.06436458230018616,-0.020655861124396324,-0.5313974618911743,0.8444212675094604
9.34099006652832,5.036806036436367,-6.509890010205941,61.47699592672152,0.39599609375,-0.462890625,1.1923828125,23.0712890625,-15.625,132.62939453125,0.0,0.0,0.0,-0.06669899076223373,-0.026332344859838486,-0.511947512626648,0.8560185432434082
9.359340190887451,5.174634985018993,-6.360144089068936,58.6691461400643,0.31689453125,-0.21142578125,0.76806640625,11.77978515625,1.64794921875,145.44677734375,0.0,0.0,0.0,-0.06644248962402344,-0.026230353862047195,-0.4908386468887329,0.8683172464370728
9.379219770431519,5.555821866181881,-5.978632347033649,55.560026954401565,0.1767578125,-0.2353515625,0.6376953125,1.8310546875,24.5361328125,162.59765625,0.0,0.0,0.0,-0.06709777563810349,-0.02352733723819256,-0.4671330153942108,0.8813234567642212
9.40092420578003,6.000643912294485,-6.17667923154687,51.350748708557376,0.11572265625,-0.35498046875,0.88916015625,3.662109375,-46.630859375,168.39599609375,0.0,0.0,0.0,-0.07041579484939575,-0.025844357907772064,-0.4345909655094147,0.8974990248680115
9.423195838928223,6.481381654383955,-6.461640273248502,47.76155260160738,0.61865234375,-0.400390625,1.21533203125,5.18798828125,-17.76123046875,174.98779296875,0.0,0.0,0.0,-0.07438825070858002,-0.028602126985788345,-0.4064582288265228,0.9101868271827698
9.43939733505249,6.502662389403599,-6.250330442027587,45.111808033857606,0.82763671875,-0.4384765625,1.3330078125,25.634765625,6.89697265625,176.513671875,0.0,0.0,0.0,-0.0731780081987381,-0.02854304574429989,-0.3852531611919403,0.9194619655609131
9.454587936401367,6.51179904807896,-6.038744415032109,41.500038151700714,0.4765625,-0.29296875,0.94873046875,15.625,-3.2958984375,186.6455078125,0.0,0.0,0.0,-0.07166948914527893,-0.029083169996738434,-0.35602596402168274,0.9312697052955627
9.48033332824707,6.9209090232293295,-5.890160479827651,37.59594641835103,0.3173828125,-0.26513671875,0.64697265625,0.79345703125,-11.90185546875,197.6318359375,0.0,0.0,0.0,-0.07359028607606888,-0.029125401750206947,-0.32415565848350525,0.9426873326301575
9.499170780181885,7.143768704336737,-5.895145237261291,33.6075906412109,0.5185546875,-0.41552734375,0.9873046875,21.484375,-23.5595703125,200.25634765625,0.0,0.0,0.0,-0.07439865916967392,-0.03114379569888115,-0.29121872782707214,0.953250527381897
9.519493818283081,7.521650200828162,-6.030721077191459,29.446212512016007,0.4951171875,-0.27978515625,0.75830078125,0.9765625,-23.193359375,210.44921875,0.0,0.0,0.0,-0.07669048011302948,-0.03411998599767685,-0.2565866708755493,0.9628694653511047
9.539843559265137,7.991132644939097,-5.620659144425519,24.10299479790276,0.7265625,-0.341796875,1.0400390625,8.72802734375,3.0517578125,216.1865234375,0.0,0.0,0.0,-0.078273706138134,-0.03330180048942566,-0.21137385070323944,0.973696768283844
9.559573888778687,8.165407482932912,-5.405215341209454,20.91953412576632,0.7236328125,-0.466796875,1.16015625,9.09423828125,-19.34814453125,208.3740234375,0.0,0.0,0.0,-0.07847383618354797,-0.033339738845825195,-0.18418416380882263,0.9791867136955261
9.578937292098999,8.24978934748654,-5.391363290685844,16.62042010931624,0.72607421875,-0.388671875,1.01708984375,14.892578125,-8.30078125,212.58544921875,0.0,0.0,0.0,-0.07787670195102692,-0.03603195399045944,-0.14734606444835663,0.9853558540344238
9.600594758987427,8.25027941355949,-4.732937750451669,12.310902860986586,0.666015625,-0.294921875,0.96728515625,21.54541015625,-1.953125,220.27587890625,0.0,0.0,0.0,-0.07587535679340363,-0.03323976323008537,-0.1098104938864708,0.9904946684837341
9.618958234786987,8.560714926431155,-4.546308807796595,7.719016200858497,0.2724609375,-0.28515625,0.568359375,4.82177734375,-36.2548828125,228.02734375,0.0,0.0,0.0,-0.07707130908966064,-0.03444341942667961,-0.07002328336238861,0.9939670562744141
9.639158010482788,8.841467290943589,-4.28132350809631,3.0276762234429087,0.7138671875,-0.482421875,1.076171875,12.87841796875,-4.2724609375,238.28125,0.0,0.0,0.0,-0.07798301428556442,-0.035193875432014465,-0.02919955551624298,0.9959053993225098
9.659581899642944,8.74972845888021,-3.592651328896381,-1.5524744641438066,0.83203125,-0.380859375,1.13037109375,26.7333984375,17.822265625,235.595703125,0.0,0.0,0.0,-0.07581369578838348,-0.03228537365794182,0.011110416613519192,0.9965372085571289
9.679187059402466,8.669914283334025,-3.3229845748502878,-6.08216392758588,0.65869140625,-0.474609375,0.9443359375,22.0947265625,-23.92578125,226.98974609375,0.0,0.0,0.0,-0.07391510903835297,-0.032879143953323364,0.050689440220594406,0.9954326748847961
9.699501991271973,8.69366968126733,-3.4447239456258907,-10.836512613538247,0.60107421875,-0.2724609375,0.75390625,5.126953125,-39.1845703125,240.17333984375,0.0,0.0,0.0,-0.0725911557674408,-0.03698963299393654,0.09184346348047256,0.9924349188804626
9.719313621520996,8.93449532121281,-3.035170221622882,-15.712565025216486,0.76171875,-0.21923828125,0.89990234375,4.0283203125,-5.9814453125,248.779296875,0.0,0.0,0.0,-0.07352204620838165,-0.036798324435949326,0.13418224453926086,0.9875401258468628
