time,orientation.x,orientation.y,orientation.z,orientation.w,orientation_covariance,angular_velocity.x,angular_velocity.y,angular_velocity.z,angular_velocity_covariance,linear_acceleration.x,linear_acceleration.y,linear_acceleration.z,linear_acceleration_covariance
0.0,0.022602859884500504,-0.015082744881510735,-0.995333194732666,0.09259288758039474,[0. 0. 0. 0. 0. 0. 0. 0. 0.],-0.42724609375,-0.3662109375,-0.1220703125,[0. 0. 0. 0. 0. 0. 0. 0. 0.],-0.04248046875,0.0341796875,1.00537109375,[0. 0. 0. 0. 0. 0. 0. 0. 0.]
0.019492149353027344,0.02184438332915306,-0.01567300595343113,-0.9953407645225525,0.09259570389986038,[0. 0. 0. 0. 0. 0. 0. 0. 0.],-0.06103515625,-0.3662109375,0.06103515625,[0. 0. 0. 0. 0. 0. 0. 0. 0.],-0.041015625,0.03515625,1.00439453125,[0. 0. 0. 0. 0. 0. 0. 0. 0.]
0.03944969177246094,0.022169744595885277,-0.014729277230799198,-0.9953524470329285,0.09254807978868484,[0. 0. 0. 0. 0. 0. 0. 0. 0.],0.18310546875,-0.54931640625,-0.06103515625,[0. 0. 0. 0. 0. 0. 0. 0. 0.],-0.04150390625,0.03369140625,1.0048828125,[0. 0. 0. 0. 0. 0. 0. 0. 0.]
0.06022143363952637,0.021749252453446388,-0.014177260920405388,-0.9953729510307312,0.09251417964696884,[0. 0. 0. 0. 0. 0. 0. 0. 0.],-0.1220703125,-1.220703125,-0.3662109375,[0. 0. 0. 0. 0. 0. 0. 0. 0.],-0.041015625,0.03271484375,1.00390625,[0. 0. 0. 0. 0. 0. 0. 0. 0.]
0.07970023155212402,0.021933933719992638,-0.014298530295491219,-0.9953698515892029,0.09248451888561249,[0. 0. 0. 0. 0. 0. 0. 0. 0.],-0.244140625,-0.9765625,-0.18310546875,[0. 0. 0. 0. 0. 0. 0. 0. 0.],-0.04052734375,0.033203125,1.0029296875,[0. 0. 0. 0. 0. 0. 0. 0. 0.]
0.0996866226196289,0.022127199918031693,-0.015172646380960941,-0.9953547716140747,0.09246175736188889,[0. 0. 0. 0. 0. 0. 0. 0. 0.],0.0,-0.06103515625,-0.18310546875,[0. 0. 0. 0. 0. 0. 0. 0. 0.],-0.04150390625,0.03466796875,1.00439453125,[0. 0. 0. 0. 0. 0. 0. 0. 0.]
0.11563491821289062,0.021893998607993126,-0.015134730376303196,-0.9953627586364746,0.09243767708539963,[0. 0. 0. 0. 0. 0. 0. 0. 0.],0.1220703125,-0.18310546875,0.06103515625,[0. 0. 0. 0. 0. 0. 0. 0. 0.],-0.041015625,0.03466796875,1.00341796875,[0. 0. 0. 0. 0. 0. 0. 0. 0.]
0.13486790657043457,0.022350283339619637,-0.013990391045808792,-0.9953739643096924,0.09238725900650024,[0. 0. 0. 0. 0. 0. 0. 0. 0.],-0.18310546875,-1.15966796875,-0.18310546875,[0. 0. 0. 0. 0. 0. 0. 0. 0.],-0.0419921875,0.0322265625,1.00537109375,[0. 0. 0. 0. 0. 0. 0. 0. 0.]
0.15941214561462402,0.021574610844254494,-0.014276067726314068,-0.9953874945640564,0.0923827588558197,[0. 0. 0. 0. 0. 0. 0. 0. 0.],-0.1220703125,-1.0986328125,-0.30517578125,[0. 0. 0. 0. 0. 0. 0. 0. 0.],-0.041015625,0.03271484375,1.00439453125,[0. 0. 0. 0. 0. 0. 0. 0. 0.]
0.17911338806152344,0.02136908657848835,-0.014895450323820114,-0.9953837394714355,0.09237261116504669,[0. 0. 0. 0. 0. 0. 0. 0. 0.],-0.06103515625,-0.3662109375,-0.18310546875,[0. 0. 0. 0. 0. 0. 0. 0. 0.],-0.04052734375,0.03369140625,1.0048828125,[0. 0. 0. 0. 0. 0. 0. 0. 0.]
0.2003777027130127,0.02157527394592762,-0.015141332522034645,-0.9953775405883789,0.09235189855098724,[0. 0. 0. 0. 0. 0. 0. 0. 0.],-0.1220703125,-0.18310546875,-0.06103515625,[0. 0. 0. 0. 0. 0. 0. 0. 0.],-0.04052734375,0.03369140625,1.00439453125,[0. 0. 0. 0. 0. 0. 0. 0. 0.]
0.2154707908630371,0.021378418430685997,-0.015218165703117847,-0.9953835010528564,0.09232112765312195,[0. 0. 0. 0. 0. 0. 0. 0. 0.],-0.244140625,-0.6103515625,0.06103515625,[0. 0. 0. 0. 0. 0. 0. 0. 0.],-0.0400390625,0.0341796875,1.00439453125,[0. 0. 0. 0. 0. 0. 0. 0. 0.]
0.23912286758422852,0.021337827667593956,-0.014846923761069775,-0.9953936338424683,0.0922819972038269,[0. 0. 0. 0. 0. 0. 0. 0. 0.],0.1220703125,-0.91552734375,-0.18310546875,[0. 0. 0. 0. 0. 0. 0. 0. 0.],-0.0400390625,0.03369140625,1.00439453125,[0. 0. 0. 0. 0. 0. 0. 0. 0.]
0.2550201416015625,0.021274661645293236,-0.014819691888988018,-0.9953982830047607,0.09225040674209595,[0. 0. 0. 0. 0. 0. 0. 0. 0.],0.18310546875,-0.79345703125,-0.30517578125,[0. 0. 0. 0. 0. 0. 0. 0. 0.],-0.04052734375,0.03369140625,1.00390625,[0. 0. 0. 0. 0. 0. 0. 0. 0.]
0.278975248336792,0.02119717188179493,-0.01533018983900547,-0.995392382144928,0.09224910289049149,[0. 0. 0. 0. 0. 0. 0. 0. 0.],-0.3662109375,-0.67138671875,-0.1220703125,[0. 0. 0. 0. 0. 0. 0. 0. 0.],-0.03955078125,0.03466796875,1.00439453125,[0. 0. 0. 0. 0. 0. 0. 0. 0.]
0.30826830863952637,0.0212966687977314,-0.015089323744177818,-0.9953959584236145,0.0922262892127037,[0. 0. 0. 0. 0. 0. 0. 0. 0.],-0.30517578125,-0.48828125,-0.1220703125,[0. 0. 0. 0. 0. 0. 0. 0. 0.],-0.0400390625,0.0341796875,1.00439453125,[0. 0. 0. 0. 0. 0. 0. 0. 0.]
0.3197205066680908,0.02241629920899868,-0.01480442751199007,-0.9953799843788147,0.09217940270900726,[0. 0. 0. 0. 0. 0. 0. 0. 0.],0.1220703125,-0.3662109375,-0.06103515625,[0. 0. 0. 0. 0. 0. 0. 0. 0.],-0.0419921875,0.03369140625,1.00341796875,[0. 0. 0. 0. 0. 0. 0. 0. 0.]
0.3412661552429199,0.021536918357014656,-0.01489946898072958,-0.995398998260498,0.09216921031475067,[0. 0. 0. 0. 0. 0. 0. 0. 0.],-0.06103515625,-0.48828125,-0.06103515625,[0. 0. 0. 0. 0. 0. 0. 0. 0.],-0.04052734375,0.033203125,1.00537109375,[0. 0. 0. 0. 0. 0. 0. 0. 0.]
0.35952305793762207,0.021390272304415703,-0.0140092046931386,-0.9954176545143127,0.09214124083518982,[0. 0. 0. 0. 0. 0. 0. 0. 0.],-0.244140625,-1.15966796875,-0.18310546875,[0. 0. 0. 0. 0. 0. 0. 0. 0.],-0.0400390625,0.0322265625,1.0048828125,[0. 0. 0. 0. 0. 0. 0. 0. 0.]
0.37559056282043457,0.02134029194712639,-0.015557102859020233,-0.9953952431678772,0.09214648604393005,[0. 0. 0. 0. 0. 0. 0. 0. 0.],-0.3662109375,-0.42724609375,-0.06103515625,[0. 0. 0. 0. 0. 0. 0. 0. 0.],-0.0400390625,0.03466796875,1.0048828125,[0. 0. 0. 0. 0. 0. 0. 0. 0.]
0.3990328311920166,0.022318517789244652,-0.014514713548123837,-0.9953956604003906,0.09208012372255325,[0. 0. 0. 0. 0. 0. 0. 0. 0.],-0.1220703125,-0.1220703125,-0.06103515625,[0. 0. 0. 0. 0. 0. 0. 0. 0.],-0.0419921875,0.033203125,1.00439453125,[0. 0. 0. 0. 0. 0. 0. 0. 0.]
0.41885900497436523,0.021335771307349205,-0.014318922534584999,-0.9954224824905396,0.0920538604259491,[0. 0. 0. 0. 0. 0. 0. 0. 0.],-0.06103515625,-0.67138671875,-0.1220703125,[0. 0. 0. 0. 0. 0. 0. 0. 0.],-0.04052734375,0.03271484375,1.00439453125,[0. 0. 0. 0. 0. 0. 0. 0. 0.]
0.4389009475708008,0.02124897763133049,-0.015660515055060387,-0.9954050779342651,0.09204449504613876,[0. 0. 0. 0. 0. 0. 0. 0. 0.],-0.1220703125,-0.732421875,-0.18310546875,[0. 0. 0. 0. 0. 0. 0. 0. 0.],-0.04052734375,0.03515625,1.00390625,[0. 0. 0. 0. 0. 0. 0. 0. 0.]
0.4590137004852295,0.022030059248209,-0.014472932554781437,-0.9954105019569397,0.09199593961238861,[0. 0. 0. 0. 0. 0. 0. 0. 0.],0.1220703125,-0.8544921875,-0.06103515625,[0. 0. 0. 0. 0. 0. 0. 0. 0.],-0.04150390625,0.033203125,1.00634765625,[0. 0. 0. 0. 0. 0. 0. 0. 0.]
0.47886204719543457,0.021272093057632446,-0.01514928787946701,-0.9954174160957336,0.09199116379022598,[0. 0. 0. 0. 0. 0. 0. 0. 0.],0.0,-0.732421875,-0.244140625,[0. 0. 0. 0. 0. 0. 0. 0. 0.],-0.04052734375,0.0341796875,1.0048828125,[0. 0. 0. 0. 0. 0. 0. 0. 0.]
0.5046951770782471,0.021538937464356422,-0.014970045536756516,-0.99541836977005,0.09194754809141159,[0. 0. 0. 0. 0. 0. 0. 0. 0.],-0.244140625,-0.91552734375,-0.18310546875,[0. 0. 0. 0. 0. 0. 0. 0. 0.],-0.0400390625,0.0341796875,1.0029296875,[0. 0. 0. 0. 0. 0. 0. 0. 0.]
0.5199949741363525,0.022416602820158005,-0.014581384137272835,-0.9954094886779785,0.091896191239357,[0. 0. 0. 0. 0. 0. 0. 0. 0.],-0.244140625,-0.3662109375,-0.18310546875,[0. 0. 0. 0. 0. 0. 0. 0. 0.],-0.0419921875,0.033203125,1.00390625,[0. 0. 0. 0. 0. 0. 0. 0. 0.]
0.539090633392334,0.02089996077120304,-0.014887720346450806,-0.9954385161399841,0.09188991785049438,[0. 0. 0. 0. 0. 0. 0. 0. 0.],0.244140625,-0.6103515625,-0.18310546875,[0. 0. 0. 0. 0. 0. 0. 0. 0.],-0.03955078125,0.0341796875,1.00537109375,[0. 0. 0. 0. 0. 0. 0. 0. 0.]
0.5556538105010986,0.020599784329533577,-0.01465794537216425,-0.9954518675804138,0.09184981137514114,[0. 0. 0. 0. 0. 0. 0. 0. 0.],-0.06103515625,-0.91552734375,-0.30517578125,[0. 0. 0. 0. 0. 0. 0. 0. 0.],-0.03857421875,0.03369140625,1.00634765625,[0. 0. 0. 0. 0. 0. 0. 0. 0.]
0.5745747089385986,0.021354852244257927,-0.015534576959908009,-0.9954233169555664,0.09184253960847855,[0. 0. 0. 0. 0. 0. 0. 0. 0.],-0.30517578125,-0.67138671875,-0.1220703125,[0. 0. 0. 0. 0. 0. 0. 0. 0.],-0.0400390625,0.03515625,1.00439453125,[0. 0. 0. 0. 0. 0. 0. 0. 0.]
0.6009798049926758,0.022095197811722755,-0.015670694410800934,-0.9954090118408203,0.09179998934268951,[0. 0. 0. 0. 0. 0. 0. 0. 0.],-0.06103515625,-0.18310546875,-0.1220703125,[0. 0. 0. 0. 0. 0. 0. 0. 0.],-0.04150390625,0.03515625,1.00439453125,[0. 0. 0. 0. 0. 0. 0. 0. 0.]
0.619769811630249,0.021674098446965218,-0.015393968671560287,-0.9954243302345276,0.0917808935046196,[0. 0. 0. 0. 0. 0. 0. 0. 0.],0.06103515625,-0.30517578125,0.06103515625,[0. 0. 0. 0. 0. 0. 0. 0. 0.],-0.04052734375,0.03515625,1.00244140625,[0. 0. 0. 0. 0. 0. 0. 0. 0.]
0.6391725540161133,0.022231964394450188,-0.0147830406203866,-0.9954261183738708,0.0917285606265068,[0. 0. 0. 0. 0. 0. 0. 0. 0.],-0.06103515625,-1.15966796875,-0.244140625,[0. 0. 0. 0. 0. 0. 0. 0. 0.],-0.0419921875,0.03369140625,1.0048828125,[0. 0. 0. 0. 0. 0. 0. 0. 0.]
0.6593303680419922,0.02158486470580101,-0.015073023736476898,-0.99543696641922,0.0917176753282547,[0. 0. 0. 0. 0. 0. 0. 0. 0.],-0.18310546875,-1.0986328125,-0.3662109375,[0. 0. 0. 0. 0. 0. 0. 0. 0.],-0.04052734375,0.0341796875,1.00537109375,[0. 0. 0. 0. 0. 0. 0. 0. 0.]
0.6746273040771484,0.021518291905522346,-0.01507575809955597,-0.9954402446746826,0.09169749915599823,[0. 0. 0. 0. 0. 0. 0. 0. 0.],0.06103515625,-0.3662109375,-0.18310546875,[0. 0. 0. 0. 0. 0. 0. 0. 0.],-0.03955078125,0.03369140625,1.00341796875,[0. 0. 0. 0. 0. 0. 0. 0. 0.]
0.7005641460418701,0.021144788712263107,-0.014752449467778206,-0.9954550266265869,0.09167662262916565,[0. 0. 0. 0. 0. 0. 0. 0. 0.],-0.1220703125,-0.48828125,-0.1220703125,[0. 0. 0. 0. 0. 0. 0. 0. 0.],-0.0400390625,0.0341796875,1.00390625,[0. 0. 0. 0. 0. 0. 0. 0. 0.]
0.7190930843353271,0.021872783079743385,-0.014281824231147766,-0.9954501986503601,0.09163323044776917,[0. 0. 0. 0. 0. 0. 0. 0. 0.],-0.06103515625,-0.732421875,0.0,[0. 0. 0. 0. 0. 0. 0. 0. 0.],-0.041015625,0.03271484375,1.00439453125,[0. 0. 0. 0. 0. 0. 0. 0. 0.]
0.7406635284423828,0.020775198936462402,-0.015059063211083412,-0.9954622983932495,0.09163186699151993,[0. 0. 0. 0. 0. 0. 0. 0. 0.],0.0,-0.42724609375,-0.06103515625,[0. 0. 0. 0. 0. 0. 0. 0. 0.],-0.0390625,0.03369140625,1.00537109375,[0. 0. 0. 0. 0. 0. 0. 0. 0.]
0.7592110633850098,0.021697567775845528,-0.015251772478222847,-0.9954419136047363,0.0916077122092247,[0. 0. 0. 0. 0. 0. 0. 0. 0.],0.06103515625,-0.79345703125,-0.18310546875,[0. 0. 0. 0. 0. 0. 0. 0. 0.],-0.041015625,0.0341796875,1.00390625,[0. 0. 0. 0. 0. 0. 0. 0. 0.]
0.7809474468231201,0.021972406655550003,-0.015142195858061314,-0.9954395294189453,0.0915871262550354,[0. 0. 0. 0. 0. 0. 0. 0. 0.],-0.244140625,-0.54931640625,-0.1220703125,[0. 0. 0. 0. 0. 0. 0. 0. 0.],-0.041015625,0.0341796875,1.00244140625,[0. 0. 0. 0. 0. 0. 0. 0. 0.]
0.7947089672088623,0.02214466966688633,-0.014954819343984127,-0.9954421520233154,0.09154804795980453,[0. 0. 0. 0. 0. 0. 0. 0. 0.],-0.3662109375,-0.3662109375,-0.06103515625,[0. 0. 0. 0. 0. 0. 0. 0. 0.],-0.04150390625,0.03369140625,1.00537109375,[0. 0. 0. 0. 0. 0. 0. 0. 0.]
0.819474458694458,0.02087775059044361,-0.015004085376858711,-0.9954696893692017,0.09153764694929123,[0. 0. 0. 0. 0. 0. 0. 0. 0.],0.30517578125,-0.42724609375,-0.1220703125,[0. 0. 0. 0. 0. 0. 0. 0. 0.],-0.0390625,0.03369140625,1.00390625,[0. 0. 0. 0. 0. 0. 0. 0. 0.]
0.8363313674926758,0.02216229774057865,-0.014764934778213501,-0.9954509735107422,0.09147863835096359,[0. 0. 0. 0. 0. 0. 0. 0. 0.],0.06103515625,-0.91552734375,-0.30517578125,[0. 0. 0. 0. 0. 0. 0. 0. 0.],-0.04150390625,0.03369140625,1.00341796875,[0. 0. 0. 0. 0. 0. 0. 0. 0.]
0.8593168258666992,0.02122245915234089,-0.01481581386178732,-0.9954710006713867,0.09147494286298752,[0. 0. 0. 0. 0. 0. 0. 0. 0.],-0.30517578125,-0.9765625,-0.30517578125,[0. 0. 0. 0. 0. 0. 0. 0. 0.],-0.0400390625,0.03369140625,1.00439453125,[0. 0. 0. 0. 0. 0. 0. 0. 0.]
0.8791124820709229,0.022094447165727615,-0.014956836588680744,-0.9954543709754944,0.09142669290304184,[0. 0. 0. 0. 0. 0. 0. 0. 0.],-0.30517578125,-0.48828125,-0.18310546875,[0. 0. 0. 0. 0. 0. 0. 0. 0.],-0.04248046875,0.03466796875,1.00341796875,[0. 0. 0. 0. 0. 0. 0. 0. 0.]
0.8990581035614014,0.023516224697232246,-0.015826096758246422,-0.9954113364219666,0.09139438718557358,[0. 0. 0. 0. 0. 0. 0. 0. 0.],-0.1220703125,-0.18310546875,-0.18310546875,[0. 0. 0. 0. 0. 0. 0. 0. 0.],-0.0439453125,0.03564453125,1.00537109375,[0. 0. 0. 0. 0. 0. 0. 0. 0.]
0.9188148975372314,0.021735239773988724,-0.01525112520903349,-0.9954618811607361,0.09138219803571701,[0. 0. 0. 0. 0. 0. 0. 0. 0.],-0.18310546875,-0.42724609375,-0.1220703125,[0. 0. 0. 0. 0. 0. 0. 0. 0.],-0.0390625,0.03466796875,1.00537109375,[0. 0. 0. 0. 0. 0. 0. 0. 0.]
0.9391865730285645,0.02111653983592987,-0.014876018278300762,-0.9954843521118164,0.09134456515312195,[0. 0. 0. 0. 0. 0. 0. 0. 0.],-0.18310546875,-0.9765625,-0.1220703125,[0. 0. 0. 0. 0. 0. 0. 0. 0.],-0.03955078125,0.0341796875,1.00390625,[0. 0. 0. 0. 0. 0. 0. 0. 0.]
0.959052324295044,0.021612387150526047,-0.014781394973397255,-0.9954784512519836,0.09130748361349106,[0. 0. 0. 0. 0. 0. 0. 0. 0.],0.1220703125,-0.91552734375,-0.1220703125,[0. 0. 0. 0. 0. 0. 0. 0. 0.],-0.041015625,0.033203125,1.005859375,[0. 0. 0. 0. 0. 0. 0. 0. 0.]
0.9904694557189941,0.021548187360167503,-0.014879299327731133,-0.9954788684844971,0.09130300581455231,[0. 0. 0. 0. 0. 0. 0. 0. 0.],-0.1220703125,-0.67138671875,0.0,[0. 0. 0. 0. 0. 0. 0. 0. 0.],-0.04052734375,0.03369140625,1.0029296875,[0. 0. 0. 0. 0. 0. 0. 0. 0.]
0.9959113597869873,0.021752431988716125,-0.015861032530665398,-0.9954593777656555,0.09130194783210754,[0. 0. 0. 0. 0. 0. 0. 0. 0.],-0.18310546875,-0.42724609375,-0.18310546875,[0. 0. 0. 0. 0. 0. 0. 0. 0.],-0.04052734375,0.03564453125,1.005859375,[0. 0. 0. 0. 0. 0. 0. 0. 0.]
1.0306081771850586,0.022246165201067924,-0.014303861185908318,-0.9954787492752075,0.09122826904058456,[0. 0. 0. 0. 0. 0. 0. 0. 0.],-0.06103515625,-0.54931640625,-0.1220703125,[0. 0. 0. 0. 0. 0. 0. 0. 0.],-0.0419921875,0.033203125,1.00341796875,[0. 0. 0. 0. 0. 0. 0. 0. 0.]
1.03611421585083,0.022779177874326706,-0.014508119784295559,-0.9954658150672913,0.0912049412727356,[0. 0. 0. 0. 0. 0. 0. 0. 0.],0.0,-0.30517578125,0.0,[0. 0. 0. 0. 0. 0. 0. 0. 0.],-0.04296875,0.033203125,1.00390625,[0. 0. 0. 0. 0. 0. 0. 0. 0.]
1.0589962005615234,0.02157260850071907,-0.015127013437449932,-0.9954831004142761,0.09120924770832062,[0. 0. 0. 0. 0. 0. 0. 0. 0.],0.0,-0.91552734375,-0.30517578125,[0. 0. 0. 0. 0. 0. 0. 0. 0.],-0.0400390625,0.0341796875,1.00390625,[0. 0. 0. 0. 0. 0. 0. 0. 0.]
1.0830719470977783,0.02213641069829464,-0.015390210784971714,-0.9954686760902405,0.09118855744600296,[0. 0. 0. 0. 0. 0. 0. 0. 0.],-0.30517578125,-0.67138671875,-0.06103515625,[0. 0. 0. 0. 0. 0. 0. 0. 0.],-0.041015625,0.03515625,1.00537109375,[0. 0. 0. 0. 0. 0. 0. 0. 0.]
1.0990824699401855,0.021800976246595383,-0.015502001158893108,-0.9954760670661926,0.09116945415735245,[0. 0. 0. 0. 0. 0. 0. 0. 0.],-0.18310546875,-0.244140625,0.0,[0. 0. 0. 0. 0. 0. 0. 0. 0.],-0.041015625,0.03515625,1.00439453125,[0. 0. 0. 0. 0. 0. 0. 0. 0.]
1.1191112995147705,0.021579226478934288,-0.014626813121140003,-0.9954982399940491,0.09112472832202911,[0. 0. 0. 0. 0. 0. 0. 0. 0.],0.1220703125,-0.30517578125,-0.06103515625,[0. 0. 0. 0. 0. 0. 0. 0. 0.],-0.04052734375,0.033203125,1.00537109375,[0. 0. 0. 0. 0. 0. 0. 0. 0.]
1.1388299465179443,0.02167872153222561,-0.01480969600379467,-0.9954964518547058,0.09109125286340714,[0. 0. 0. 0. 0. 0. 0. 0. 0.],-0.06103515625,-1.03759765625,-0.1220703125,[0. 0. 0. 0. 0. 0. 0. 0. 0.],-0.041015625,0.0341796875,1.00634765625,[0. 0. 0. 0. 0. 0. 0. 0. 0.]
1.159982681274414,0.021664943546056747,-0.015114489942789078,-0.9954941868782043,0.09106902778148651,[0. 0. 0. 0. 0. 0. 0. 0. 0.],-0.18310546875,-1.15966796875,-0.30517578125,[0. 0. 0. 0. 0. 0. 0. 0. 0.],-0.04052734375,0.03466796875,1.0029296875,[0. 0. 0. 0. 0. 0. 0. 0. 0.]
1.179037094116211,0.022510187700390816,-0.015168963000178337,-0.9954783320426941,0.09102816879749298,[0. 0. 0. 0. 0. 0. 0. 0. 0.],0.06103515625,-0.30517578125,-0.18310546875,[0. 0. 0. 0. 0. 0. 0. 0. 0.],-0.0419921875,0.03466796875,1.0029296875,[0. 0. 0. 0. 0. 0. 0. 0. 0.]
1.199781894683838,0.021250426769256592,-0.014383502304553986,-0.9955203533172607,0.09099891036748886,[0. 0. 0. 0. 0. 0. 0. 0. 0.],-0.06103515625,-0.244140625,-0.18310546875,[0. 0. 0. 0. 0. 0. 0. 0. 0.],-0.0400390625,0.03271484375,1.00537109375,[0. 0. 0. 0. 0. 0. 0. 0. 0.]
1.2190873622894287,0.021826617419719696,-0.014626927673816681,-0.9955083131790161,0.09095623344182968,[0. 0. 0. 0. 0. 0. 0. 0. 0.],-0.1220703125,-0.732421875,-0.1220703125,[0. 0. 0. 0. 0. 0. 0. 0. 0.],-0.041015625,0.033203125,1.0029296875,[0. 0. 0. 0. 0. 0. 0. 0. 0.]
1.2342190742492676,0.021703612059354782,-0.01457186322659254,-0.9955145716667175,0.09092580527067184,[0. 0. 0. 0. 0. 0. 0. 0. 0.],-0.06103515625,-1.03759765625,-0.30517578125,[0. 0. 0. 0. 0. 0. 0. 0. 0.],-0.041015625,0.03271484375,1.00341796875,[0. 0. 0. 0. 0. 0. 0. 0. 0.]
1.2589304447174072,0.02115544117987156,-0.014470534399151802,-0.995529294013977,0.09090890735387802,[0. 0. 0. 0. 0. 0. 0. 0. 0.],0.1220703125,-0.8544921875,-0.244140625,[0. 0. 0. 0. 0. 0. 0. 0. 0.],-0.0400390625,0.03271484375,1.0048828125,[0. 0. 0. 0. 0. 0. 0. 0. 0.]
1.2794437408447266,0.021094748750329018,-0.01444416493177414,-0.9955329298973083,0.09088767319917679,[0. 0. 0. 0. 0. 0. 0. 0. 0.],-0.1220703125,-0.3662109375,0.0,[0. 0. 0. 0. 0. 0. 0. 0. 0.],-0.0400390625,0.03271484375,1.00439453125,[0. 0. 0. 0. 0. 0. 0. 0. 0.]
1.3009207248687744,0.021552423015236855,-0.014386208727955818,-0.9955271482467651,0.09085240215063095,[0. 0. 0. 0. 0. 0. 0. 0. 0.],-0.30517578125,-0.42724609375,0.06103515625,[0. 0. 0. 0. 0. 0. 0. 0. 0.],-0.04052734375,0.03271484375,1.00341796875,[0. 0. 0. 0. 0. 0. 0. 0. 0.]
1.3202438354492188,0.02200484834611416,-0.014820048585534096,-0.9955136179924011,0.09082351624965668,[0. 0. 0. 0. 0. 0. 0. 0. 0.],0.06103515625,-0.54931640625,0.0,[0. 0. 0. 0. 0. 0. 0. 0. 0.],-0.04150390625,0.03369140625,1.00439453125,[0. 0. 0. 0. 0. 0. 0. 0. 0.]
1.3395862579345703,0.02096477709710598,-0.014824464917182922,-0.9955357909202576,0.09082554280757904,[0. 0. 0. 0. 0. 0. 0. 0. 0.],0.244140625,-0.91552734375,-0.18310546875,[0. 0. 0. 0. 0. 0. 0. 0. 0.],-0.0390625,0.033203125,1.001953125,[0. 0. 0. 0. 0. 0. 0. 0. 0.]
1.3609473705291748,0.021476292982697487,-0.014413352124392986,-0.9955348372459412,0.09078224003314972,[0. 0. 0. 0. 0. 0. 0. 0. 0.],-0.244140625,-1.15966796875,-0.18310546875,[0. 0. 0. 0. 0. 0. 0. 0. 0.],-0.0400390625,0.03271484375,1.00439453125,[0. 0. 0. 0. 0. 0. 0. 0. 0.]
1.3792192935943604,0.021799946203827858,-0.015058291144669056,-0.99551922082901,0.09077198058366776,[0. 0. 0. 0. 0. 0. 0. 0. 0.],-0.18310546875,-0.79345703125,-0.18310546875,[0. 0. 0. 0. 0. 0. 0. 0. 0.],-0.041015625,0.0341796875,1.00537109375,[0. 0. 0. 0. 0. 0. 0. 0. 0.]
1.3998563289642334,0.022287465631961823,-0.015859423205256462,-0.9954964518547058,0.09076672047376633,[0. 0. 0. 0. 0. 0. 0. 0. 0.],0.0,-0.06103515625,0.06103515625,[0. 0. 0. 0. 0. 0. 0. 0. 0.],-0.04150390625,0.03515625,1.00341796875,[0. 0. 0. 0. 0. 0. 0. 0. 0.]
1.421142816543579,0.021455897018313408,-0.015595890581607819,-0.9955193400382996,0.09076101332902908,[0. 0. 0. 0. 0. 0. 0. 0. 0.],-0.1220703125,-0.30517578125,-0.06103515625,[0. 0. 0. 0. 0. 0. 0. 0. 0.],-0.0400390625,0.03466796875,1.00439453125,[0. 0. 0. 0. 0. 0. 0. 0. 0.]
1.434330940246582,0.022095821797847748,-0.014634482562541962,-0.9955262541770935,0.09069265425205231,[0. 0. 0. 0. 0. 0. 0. 0. 0.],-0.1220703125,-0.9765625,-0.1220703125,[0. 0. 0. 0. 0. 0. 0. 0. 0.],-0.0419921875,0.033203125,1.0068359375,[0. 0. 0. 0. 0. 0. 0. 0. 0.]
1.4596688747406006,0.021432416513562202,-0.014202308841049671,-0.9955494403839111,0.09066629409790039,[0. 0. 0. 0. 0. 0. 0. 0. 0.],0.06103515625,-1.03759765625,-0.244140625,[0. 0. 0. 0. 0. 0. 0. 0. 0.],-0.04052734375,0.03271484375,1.00439453125,[0. 0. 0. 0. 0. 0. 0. 0. 0.]
1.4797568321228027,0.021896304562687874,-0.01580231450498104,-0.9955156445503235,0.0906614139676094,[0. 0. 0. 0. 0. 0. 0. 0. 0.],0.1220703125,-0.54931640625,-0.30517578125,[0. 0. 0. 0. 0. 0. 0. 0. 0.],-0.041015625,0.0361328125,1.0048828125,[0. 0. 0. 0. 0. 0. 0. 0. 0.]
1.4992163181304932,0.022509343922138214,-0.015707209706306458,-0.9955073595046997,0.0906185656785965,[0. 0. 0. 0. 0. 0. 0. 0. 0.],-0.42724609375,-0.3662109375,-0.1220703125,[0. 0. 0. 0. 0. 0. 0. 0. 0.],-0.0419921875,0.03564453125,1.001953125,[0. 0. 0. 0. 0. 0. 0. 0. 0.]
1.5193078517913818,0.021741002798080444,-0.014283405616879463,-0.995551347732544,0.0905589908361435,[0. 0. 0. 0. 0. 0. 0. 0. 0.],-0.30517578125,-0.54931640625,-0.18310546875,[0. 0. 0. 0. 0. 0. 0. 0. 0.],-0.04150390625,0.03271484375,1.00537109375,[0. 0. 0. 0. 0. 0. 0. 0. 0.]
1.5401928424835205,0.02165074087679386,-0.015165028162300587,-0.9955416321754456,0.09054361283779144,[0. 0. 0. 0. 0. 0. 0. 0. 0.],0.1220703125,-0.30517578125,-0.1220703125,[0. 0. 0. 0. 0. 0. 0. 0. 0.],-0.0390625,0.0341796875,1.00244140625,[0. 0. 0. 0. 0. 0. 0. 0. 0.]
1.5567071437835693,0.02124987728893757,-0.014427020214498043,-0.9955657124519348,0.09049481153488159,[0. 0. 0. 0. 0. 0. 0. 0. 0.],0.0,-0.79345703125,-0.244140625,[0. 0. 0. 0. 0. 0. 0. 0. 0.],-0.0400390625,0.03271484375,1.00341796875,[0. 0. 0. 0. 0. 0. 0. 0. 0.]
1.579054832458496,0.0220227912068367,-0.015358640812337399,-0.9955359101295471,0.09048401564359665,[0. 0. 0. 0. 0. 0. 0. 0. 0.],-0.244140625,-0.67138671875,-0.1220703125,[0. 0. 0. 0. 0. 0. 0. 0. 0.],-0.04150390625,0.03515625,1.00244140625,[0. 0. 0. 0. 0. 0. 0. 0. 0.]
1.5942485332489014,0.022329093888401985,-0.015557310543954372,-0.9955285787582397,0.09045570343732834,[0. 0. 0. 0. 0. 0. 0. 0. 0.],-0.30517578125,-0.30517578125,0.0,[0. 0. 0. 0. 0. 0. 0. 0. 0.],-0.04150390625,0.03515625,1.00390625,[0. 0. 0. 0. 0. 0. 0. 0. 0.]
1.6193013191223145,0.022262772545218468,-0.014932951889932156,-0.995542585849762,0.09042404592037201,[0. 0. 0. 0. 0. 0. 0. 0. 0.],0.1220703125,-0.42724609375,-0.06103515625,[0. 0. 0. 0. 0. 0. 0. 0. 0.],-0.04150390625,0.03466796875,1.00439453125,[0. 0. 0. 0. 0. 0. 0. 0. 0.]
1.634864091873169,0.021925291046500206,-0.014478253200650215,-0.9955598711967468,0.0903903916478157,[0. 0. 0. 0. 0. 0. 0. 0. 0.],0.0,-1.03759765625,-0.1220703125,[0. 0. 0. 0. 0. 0. 0. 0. 0.],-0.041015625,0.033203125,1.00439453125,[0. 0. 0. 0. 0. 0. 0. 0. 0.]
1.6552860736846924,0.02210545539855957,-0.01464521698653698,-0.9955557584762573,0.09036476165056229,[0. 0. 0. 0. 0. 0. 0. 0. 0.],-0.244140625,-1.15966796875,-0.18310546875,[0. 0. 0. 0. 0. 0. 0. 0. 0.],-0.041015625,0.03369140625,1.0048828125,[0. 0. 0. 0. 0. 0. 0. 0. 0.]
1.6743600368499756,0.02222852036356926,-0.015309189446270466,-0.9955444931983948,0.0903473049402237,[0. 0. 0. 0. 0. 0. 0. 0. 0.],-0.06103515625,-0.3662109375,-0.06103515625,[0. 0. 0. 0. 0. 0. 0. 0. 0.],-0.0419921875,0.0341796875,1.00390625,[0. 0. 0. 0. 0. 0. 0. 0. 0.]
1.7988736629486084,0.022073904052376747,-0.015881719067692757,-0.995550811290741,0.09021786600351334,[0. 0. 0. 0. 0. 0. 0. 0. 0.],-0.3662109375,-0.48828125,0.0,[0. 0. 0. 0. 0. 0. 0. 0. 0.],-0.04150390625,0.03564453125,1.00390625,[0. 0. 0. 0. 0. 0. 0. 0. 0.]
1.8192484378814697,0.022105375304818153,-0.015300397761166096,-0.995561957359314,0.09018713235855103,[0. 0. 0. 0. 0. 0. 0. 0. 0.],0.0,-0.244140625,-0.1220703125,[0. 0. 0. 0. 0. 0. 0. 0. 0.],-0.04150390625,0.03466796875,1.005859375,[0. 0. 0. 0. 0. 0. 0. 0. 0.]
1.839090347290039,0.022449711337685585,-0.014113678596913815,-0.9955778121948242,0.09012056887149811,[0. 0. 0. 0. 0. 0. 0. 0. 0.],0.244140625,-0.67138671875,-0.1220703125,[0. 0. 0. 0. 0. 0. 0. 0. 0.],-0.04248046875,0.0322265625,1.00537109375,[0. 0. 0. 0. 0. 0. 0. 0. 0.]
1.8590106964111328,0.021320749074220657,-0.014306815341114998,-0.9956002831459045,0.09011644870042801,[0. 0. 0. 0. 0. 0. 0. 0. 0.],-0.18310546875,-1.220703125,-0.244140625,[0. 0. 0. 0. 0. 0. 0. 0. 0.],-0.03955078125,0.03271484375,1.00537109375,[0. 0. 0. 0. 0. 0. 0. 0. 0.]
1.8790931701660156,0.02160855196416378,-0.01596144214272499,-0.9955692887306213,0.09011266380548477,[0. 0. 0. 0. 0. 0. 0. 0. 0.],-0.06103515625,-0.79345703125,-0.244140625,[0. 0. 0. 0. 0. 0. 0. 0. 0.],-0.0400390625,0.03515625,1.001953125,[0. 0. 0. 0. 0. 0. 0. 0. 0.]
1.8999733924865723,0.02181025967001915,-0.01632324792444706,-0.9955627918243408,0.09006989002227783,[0. 0. 0. 0. 0. 0. 0. 0. 0.],0.0,-0.48828125,-0.18310546875,[0. 0. 0. 0. 0. 0. 0. 0. 0.],-0.04052734375,0.0361328125,1.0048828125,[0. 0. 0. 0. 0. 0. 0. 0. 0.]
1.9194183349609375,0.021893702447414398,-0.014994949102401733,-0.995586097240448,0.0900227352976799,[0. 0. 0. 0. 0. 0. 0. 0. 0.],-0.06103515625,-0.244140625,0.06103515625,[0. 0. 0. 0. 0. 0. 0. 0. 0.],-0.04150390625,0.033203125,1.00439453125,[0. 0. 0. 0. 0. 0. 0. 0. 0.]
1.9393248558044434,0.022135159000754356,-0.01490924321115017,-0.9955848455429077,0.08999289572238922,[0. 0. 0. 0. 0. 0. 0. 0. 0.],-0.30517578125,-0.91552734375,-0.244140625,[0. 0. 0. 0. 0. 0. 0. 0. 0.],-0.04150390625,0.03369140625,1.00390625,[0. 0. 0. 0. 0. 0. 0. 0. 0.]
1.9590911865234375,0.021881001070141792,-0.015367119573056698,-0.9955845475196838,0.08998130261898041,[0. 0. 0. 0. 0. 0. 0. 0. 0.],-0.06103515625,-0.9765625,-0.30517578125,[0. 0. 0. 0. 0. 0. 0. 0. 0.],-0.04052734375,0.03466796875,1.001953125,[0. 0. 0. 0. 0. 0. 0. 0. 0.]
1.9798600673675537,0.0215019341558218,-0.01468949019908905,-0.9956074357032776,0.08993249386548996,[0. 0. 0. 0. 0. 0. 0. 0. 0.],0.244140625,-0.91552734375,-0.244140625,[0. 0. 0. 0. 0. 0. 0. 0. 0.],-0.04052734375,0.03369140625,1.0048828125,[0. 0. 0. 0. 0. 0. 0. 0. 0.]
2.001084566116333,0.021322835236787796,-0.014918145723640919,-0.9956085681915283,0.0899239256978035,[0. 0. 0. 0. 0. 0. 0. 0. 0.],-0.30517578125,-0.79345703125,-0.1220703125,[0. 0. 0. 0. 0. 0. 0. 0. 0.],-0.0400390625,0.03369140625,1.00439453125,[0. 0. 0. 0. 0. 0. 0. 0. 0.]
2.0192558765411377,0.0210773516446352,-0.014511234126985073,-0.995622456073761,0.08989593386650085,[0. 0. 0. 0. 0. 0. 0. 0. 0.],-0.1220703125,-0.54931640625,-0.06103515625,[0. 0. 0. 0. 0. 0. 0. 0. 0.],-0.0400390625,0.033203125,1.00537109375,[0. 0. 0. 0. 0. 0. 0. 0. 0.]
2.039238452911377,0.0222555473446846,-0.01392070297151804,-0.9956106543540955,0.0898347720503807,[0. 0. 0. 0. 0. 0. 0. 0. 0.],0.18310546875,-0.79345703125,-0.1220703125,[0. 0. 0. 0. 0. 0. 0. 0. 0.],-0.0419921875,0.0322265625,1.00390625,[0. 0. 0. 0. 0. 0. 0. 0. 0.]
2.059415340423584,0.021033478900790215,-0.014838138595223427,-0.9956225752830505,0.08985055238008499,[0. 0. 0. 0. 0. 0. 0. 0. 0.],0.18310546875,-0.8544921875,-0.18310546875,[0. 0. 0. 0. 0. 0. 0. 0. 0.],-0.0390625,0.033203125,1.0029296875,[0. 0. 0. 0. 0. 0. 0. 0. 0.]
2.074306011199951,0.0215909406542778,-0.01469163317233324,-0.9956180453300476,0.08979317545890808,[0. 0. 0. 0. 0. 0. 0. 0. 0.],-0.3662109375,-0.54931640625,-0.3662109375,[0. 0. 0. 0. 0. 0. 0. 0. 0.],-0.0400390625,0.033203125,1.00390625,[0. 0. 0. 0. 0. 0. 0. 0. 0.]
2.0997142791748047,0.021848293021321297,-0.015459336340427399,-0.9956029057502747,0.08976948261260986,[0. 0. 0. 0. 0. 0. 0. 0. 0.],-0.48828125,-0.3662109375,-0.1220703125,[0. 0. 0. 0. 0. 0. 0. 0. 0.],-0.041015625,0.03515625,1.00390625,[0. 0. 0. 0. 0. 0. 0. 0. 0.]
2.119298219680786,0.021692374721169472,-0.015377880074083805,-0.9956099987030029,0.08974277973175049,[0. 0. 0. 0. 0. 0. 0. 0. 0.],0.30517578125,-0.3662109375,-0.18310546875,[0. 0. 0. 0. 0. 0. 0. 0. 0.],-0.04052734375,0.0341796875,1.0048828125,[0. 0. 0. 0. 0. 0. 0. 0. 0.]
2.1390295028686523,0.021956803277134895,-0.015400771982967854,-0.9956066608428955,0.08971075713634491,[0. 0. 0. 0. 0. 0. 0. 0. 0.],0.06103515625,-0.9765625,-0.18310546875,[0. 0. 0. 0. 0. 0. 0. 0. 0.],-0.04150390625,0.03466796875,1.00537109375,[0. 0. 0. 0. 0. 0. 0. 0. 0.]
2.1598150730133057,0.022203216329216957,-0.014602567069232464,-0.9956176280975342,0.08966315537691116,[0. 0. 0. 0. 0. 0. 0. 0. 0.],-0.18310546875,-1.03759765625,-0.18310546875,[0. 0. 0. 0. 0. 0. 0. 0. 0.],-0.0419921875,0.03369140625,1.00634765625,[0. 0. 0. 0. 0. 0. 0. 0. 0.]
2.1792550086975098,0.02142634056508541,-0.015196382999420166,-0.9956255555152893,0.08966457843780518,[0. 0. 0. 0. 0. 0. 0. 0. 0.],-0.244140625,-0.30517578125,-0.1220703125,[0. 0. 0. 0. 0. 0. 0. 0. 0.],-0.0400390625,0.03466796875,1.0048828125,[0. 0. 0. 0. 0. 0. 0. 0. 0.]
2.1990199089050293,0.021912559866905212,-0.015610866248607635,-0.9956108331680298,0.08963943272829056,[0. 0. 0. 0. 0. 0. 0. 0. 0.],0.0,-0.1220703125,0.06103515625,[0. 0. 0. 0. 0. 0. 0. 0. 0.],-0.041015625,0.03515625,1.0048828125,[0. 0. 0. 0. 0. 0. 0. 0. 0.]
2.219949245452881,0.021750517189502716,-0.0143574895337224,-0.9956374168395996,0.08959336578845978,[0. 0. 0. 0. 0. 0. 0. 0. 0.],-0.06103515625,-0.79345703125,0.0,[0. 0. 0. 0. 0. 0. 0. 0. 0.],-0.041015625,0.03271484375,1.00390625,[0. 0. 0. 0. 0. 0. 0. 0. 0.]
2.239410400390625,0.021880676969885826,-0.014166315086185932,-0.9956404566764832,0.08955835551023483,[0. 0. 0. 0. 0. 0. 0. 0. 0.],-0.18310546875,-1.220703125,-0.18310546875,[0. 0. 0. 0. 0. 0. 0. 0. 0.],-0.041015625,0.03271484375,1.00537109375,[0. 0. 0. 0. 0. 0. 0. 0. 0.]
2.2561371326446533,0.021561935544013977,-0.01593164913356304,-0.9956181645393372,0.08958664536476135,[0. 0. 0. 0. 0. 0. 0. 0. 0.],0.1220703125,-0.48828125,-0.1220703125,[0. 0. 0. 0. 0. 0. 0. 0. 0.],-0.0400390625,0.0361328125,1.0029296875,[0. 0. 0. 0. 0. 0. 0. 0. 0.]
2.279243230819702,0.022007955238223076,-0.015178868547081947,-0.9956237077713013,0.0895475521683693,[0. 0. 0. 0. 0. 0. 0. 0. 0.],-0.18310546875,-0.8544921875,-0.18310546875,[0. 0. 0. 0. 0. 0. 0. 0. 0.],-0.04150390625,0.03369140625,1.00439453125,[0. 0. 0. 0. 0. 0. 0. 0. 0.]
2.2990169525146484,0.02207530476152897,-0.014563637785613537,-0.9956353306770325,0.08950412273406982,[0. 0. 0. 0. 0. 0. 0. 0. 0.],-0.54931640625,-0.54931640625,-0.06103515625,[0. 0. 0. 0. 0. 0. 0. 0. 0.],-0.04150390625,0.033203125,1.00390625,[0. 0. 0. 0. 0. 0. 0. 0. 0.]
2.319154977798462,0.02206573821604252,-0.014718979597091675,-0.9956350922584534,0.089482881128788,[0. 0. 0. 0. 0. 0. 0. 0. 0.],-0.06103515625,-0.244140625,0.06103515625,[0. 0. 0. 0. 0. 0. 0. 0. 0.],-0.04150390625,0.03369140625,1.00537109375,[0. 0. 0. 0. 0. 0. 0. 0. 0.]
2.3394243717193604,0.021177491173148155,-0.014481074176728725,-0.9956588745117188,0.08947163075208664,[0. 0. 0. 0. 0. 0. 0. 0. 0.],0.244140625,-0.732421875,-0.244140625,[0. 0. 0. 0. 0. 0. 0. 0. 0.],-0.03955078125,0.033203125,1.00537109375,[0. 0. 0. 0. 0. 0. 0. 0. 0.]
2.3601605892181396,0.021547144278883934,-0.01529084611684084,-0.9956412315368652,0.08944637328386307,[0. 0. 0. 0. 0. 0. 0. 0. 0.],-0.06103515625,-1.0986328125,-0.30517578125,[0. 0. 0. 0. 0. 0. 0. 0. 0.],-0.04052734375,0.03369140625,1.00390625,[0. 0. 0. 0. 0. 0. 0. 0. 0.]
2.3794007301330566,0.02162807807326317,-0.01441194862127304,-0.9956570267677307,0.08939583599567413,[0. 0. 0. 0. 0. 0. 0. 0. 0.],-0.244140625,-0.67138671875,-0.18310546875,[0. 0. 0. 0. 0. 0. 0. 0. 0.],-0.04052734375,0.03271484375,1.00244140625,[0. 0. 0. 0. 0. 0. 0. 0. 0.]
2.3990604877471924,0.021696530282497406,-0.015063023194670677,-0.9956474900245667,0.08937778323888779,[0. 0. 0. 0. 0. 0. 0. 0. 0.],0.1220703125,-0.18310546875,-0.06103515625,[0. 0. 0. 0. 0. 0. 0. 0. 0.],-0.041015625,0.03466796875,1.00634765625,[0. 0. 0. 0. 0. 0. 0. 0. 0.]
2.4193148612976074,0.02196480520069599,-0.015710905194282532,-0.9956340193748474,0.08935173600912094,[0. 0. 0. 0. 0. 0. 0. 0. 0.],0.18310546875,-0.3662109375,-0.06103515625,[0. 0. 0. 0. 0. 0. 0. 0. 0.],-0.041015625,0.03515625,1.00537109375,[0. 0. 0. 0. 0. 0. 0. 0. 0.]
2.447263479232788,0.021309472620487213,-0.015541281551122665,-0.9956536293029785,0.08932188898324966,[0. 0. 0. 0. 0. 0. 0. 0. 0.],-0.1220703125,-0.67138671875,0.0,[0. 0. 0. 0. 0. 0. 0. 0. 0.],-0.0400390625,0.03515625,1.00439453125,[0. 0. 0. 0. 0. 0. 0. 0. 0.]
2.464052438735962,0.0213016290217638,-0.015394523739814758,-0.9956580400466919,0.08929900825023651,[0. 0. 0. 0. 0. 0. 0. 0. 0.],-0.1220703125,-1.15966796875,-0.30517578125,[0. 0. 0. 0. 0. 0. 0. 0. 0.],-0.0400390625,0.03466796875,1.005859375,[0. 0. 0. 0. 0. 0. 0. 0. 0.]
2.482625722885132,0.021214742213487625,-0.014885533601045609,-0.9956706762313843,0.08926521986722946,[0. 0. 0. 0. 0. 0. 0. 0. 0.],0.0,-0.79345703125,-0.244140625,[0. 0. 0. 0. 0. 0. 0. 0. 0.],-0.04052734375,0.03369140625,1.005859375,[0. 0. 0. 0. 0. 0. 0. 0. 0.]
2.498983383178711,0.02189706452190876,-0.015065611340105534,-0.9956551194190979,0.08924403786659241,[0. 0. 0. 0. 0. 0. 0. 0. 0.],-0.18310546875,-0.30517578125,0.0,[0. 0. 0. 0. 0. 0. 0. 0. 0.],-0.041015625,0.0341796875,1.005859375,[0. 0. 0. 0. 0. 0. 0. 0. 0.]
2.514747381210327,0.021585045382380486,-0.015147469006478786,-0.9956628084182739,0.08922090381383896,[0. 0. 0. 0. 0. 0. 0. 0. 0.],-0.18310546875,-0.67138671875,-0.18310546875,[0. 0. 0. 0. 0. 0. 0. 0. 0.],-0.04052734375,0.0341796875,1.00390625,[0. 0. 0. 0. 0. 0. 0. 0. 0.]
2.539548873901367,0.022021226584911346,-0.014894293621182442,-0.9956604242324829,0.08918369561433792,[0. 0. 0. 0. 0. 0. 0. 0. 0.],0.1220703125,-0.9765625,-0.18310546875,[0. 0. 0. 0. 0. 0. 0. 0. 0.],-0.04150390625,0.03369140625,1.00390625,[0. 0. 0. 0. 0. 0. 0. 0. 0.]
2.559152841567993,0.021061968058347702,-0.014716213569045067,-0.9956833124160767,0.0891880914568901,[0. 0. 0. 0. 0. 0. 0. 0. 0.],0.1220703125,-0.8544921875,-0.1220703125,[0. 0. 0. 0. 0. 0. 0. 0. 0.],-0.03955078125,0.033203125,1.00390625,[0. 0. 0. 0. 0. 0. 0. 0. 0.]
2.579064130783081,0.021132949739694595,-0.015129471197724342,-0.9956784248352051,0.08915680646896362,[0. 0. 0. 0. 0. 0. 0. 0. 0.],-0.42724609375,-0.67138671875,-0.30517578125,[0. 0. 0. 0. 0. 0. 0. 0. 0.],-0.03955078125,0.0341796875,1.0048828125,[0. 0. 0. 0. 0. 0. 0. 0. 0.]
2.5997769832611084,0.02141977846622467,-0.014665987342596054,-0.9956831932067871,0.08911345154047012,[0. 0. 0. 0. 0. 0. 0. 0. 0.],-0.42724609375,-0.48828125,-0.06103515625,[0. 0. 0. 0. 0. 0. 0. 0. 0.],-0.04052734375,0.03271484375,1.0048828125,[0. 0. 0. 0. 0. 0. 0. 0. 0.]
2.6193363666534424,0.021431440487504005,-0.013865654356777668,-0.9956996440887451,0.08905398100614548,[0. 0. 0. 0. 0. 0. 0. 0. 0.],0.18310546875,-0.6103515625,-0.1220703125,[0. 0. 0. 0. 0. 0. 0. 0. 0.],-0.04052734375,0.03173828125,1.00537109375,[0. 0. 0. 0. 0. 0. 0. 0. 0.]
2.639369249343872,0.021490152925252914,-0.01523118931800127,-0.9956789612770081,0.08904796093702316,[0. 0. 0. 0. 0. 0. 0. 0. 0.],0.0,-0.79345703125,-0.1220703125,[0. 0. 0. 0. 0. 0. 0. 0. 0.],-0.0400390625,0.03466796875,1.005859375,[0. 0. 0. 0. 0. 0. 0. 0. 0.]
2.659353494644165,0.021207837387919426,-0.015384615398943424,-0.9956833124160767,0.0890413373708725,[0. 0. 0. 0. 0. 0. 0. 0. 0.],-0.244140625,-0.9765625,-0.244140625,[0. 0. 0. 0. 0. 0. 0. 0. 0.],-0.0400390625,0.03466796875,1.00439453125,[0. 0. 0. 0. 0. 0. 0. 0. 0.]
2.6792640686035156,0.02092704549431801,-0.015647893771529198,-0.9956865906715393,0.08902488648891449,[0. 0. 0. 0. 0. 0. 0. 0. 0.],-0.30517578125,-0.3662109375,-0.1220703125,[0. 0. 0. 0. 0. 0. 0. 0. 0.],-0.0390625,0.03466796875,1.00341796875,[0. 0. 0. 0. 0. 0. 0. 0. 0.]
2.699357509613037,0.02181023359298706,-0.015106210485100746,-0.9956808090209961,0.08897162228822708,[0. 0. 0. 0. 0. 0. 0. 0. 0.],-0.1220703125,-0.18310546875,0.0,[0. 0. 0. 0. 0. 0. 0. 0. 0.],-0.041015625,0.0341796875,1.00439453125,[0. 0. 0. 0. 0. 0. 0. 0. 0.]
2.7189345359802246,0.022466666996479034,-0.014795288443565369,-0.9956750273704529,0.08892407268285751,[0. 0. 0. 0. 0. 0. 0. 0. 0.],0.1220703125,-0.8544921875,0.0,[0. 0. 0. 0. 0. 0. 0. 0. 0.],-0.04248046875,0.03369140625,1.005859375,[0. 0. 0. 0. 0. 0. 0. 0. 0.]
2.7393057346343994,0.021210022270679474,-0.015258829109370708,-0.9956940412521362,0.08894156664609909,[0. 0. 0. 0. 0. 0. 0. 0. 0.],-0.1220703125,-0.9765625,0.06103515625,[0. 0. 0. 0. 0. 0. 0. 0. 0.],-0.0390625,0.0341796875,1.00439453125,[0. 0. 0. 0. 0. 0. 0. 0. 0.]
2.758981227874756,0.020988168194890022,-0.0159880630671978,-0.9956883788108826,0.08892972022294998,[0. 0. 0. 0. 0. 0. 0. 0. 0.],0.1220703125,-0.8544921875,-0.244140625,[0. 0. 0. 0. 0. 0. 0. 0. 0.],-0.03955078125,0.03564453125,1.00537109375,[0. 0. 0. 0. 0. 0. 0. 0. 0.]
2.779217481613159,0.021739767864346504,-0.016174931079149246,-0.9956724643707275,0.08889355510473251,[0. 0. 0. 0. 0. 0. 0. 0. 0.],-0.06103515625,-0.54931640625,-0.1220703125,[0. 0. 0. 0. 0. 0. 0. 0. 0.],-0.04052734375,0.0361328125,1.00537109375,[0. 0. 0. 0. 0. 0. 0. 0. 0.]
2.801274061203003,0.02109152264893055,-0.015397912822663784,-0.99570232629776,0.08885345607995987,[0. 0. 0. 0. 0. 0. 0. 0. 0.],-0.3662109375,-0.8544921875,-0.244140625,[0. 0. 0. 0. 0. 0. 0. 0. 0.],-0.03955078125,0.03466796875,1.0048828125,[0. 0. 0. 0. 0. 0. 0. 0. 0.]
2.819911241531372,0.021079476922750473,-0.015922289341688156,-0.9956963658332825,0.08883122354745865,[0. 0. 0. 0. 0. 0. 0. 0. 0.],-0.06103515625,-0.48828125,-0.1220703125,[0. 0. 0. 0. 0. 0. 0. 0. 0.],-0.03955078125,0.0361328125,1.00390625,[0. 0. 0. 0. 0. 0. 0. 0. 0.]
2.8369715213775635,0.021714746952056885,-0.015346688218414783,-0.9956963658332825,0.08877967298030853,[0. 0. 0. 0. 0. 0. 0. 0. 0.],0.1220703125,-0.30517578125,-0.18310546875,[0. 0. 0. 0. 0. 0. 0. 0. 0.],-0.041015625,0.0341796875,1.00439453125,[0. 0. 0. 0. 0. 0. 0. 0. 0.]
2.8590447902679443,0.021461978554725647,-0.01485888659954071,-0.9957101345062256,0.08876916021108627,[0. 0. 0. 0. 0. 0. 0. 0. 0.],0.0,-1.15966796875,-0.18310546875,[0. 0. 0. 0. 0. 0. 0. 0. 0.],-0.04052734375,0.03369140625,1.00390625,[0. 0. 0. 0. 0. 0. 0. 0. 0.]
2.8789501190185547,0.021526070311665535,-0.01487532164901495,-0.9957104325294495,0.08874789625406265,[0. 0. 0. 0. 0. 0. 0. 0. 0.],-0.244140625,-0.54931640625,-0.18310546875,[0. 0. 0. 0. 0. 0. 0. 0. 0.],-0.041015625,0.0341796875,1.00390625,[0. 0. 0. 0. 0. 0. 0. 0. 0.]
2.8991594314575195,0.021610518917441368,-0.014628864824771881,-0.9957147836685181,0.08871842175722122,[0. 0. 0. 0. 0. 0. 0. 0. 0.],0.1220703125,-0.1220703125,0.06103515625,[0. 0. 0. 0. 0. 0. 0. 0. 0.],-0.04052734375,0.03271484375,1.00439453125,[0. 0. 0. 0. 0. 0. 0. 0. 0.]
2.920535087585449,0.02193923480808735,-0.01519787684082985,-0.9957011938095093,0.08869514614343643,[0. 0. 0. 0. 0. 0. 0. 0. 0.],0.0,-0.1220703125,0.1220703125,[0. 0. 0. 0. 0. 0. 0. 0. 0.],-0.041015625,0.0341796875,1.00439453125,[0. 0. 0. 0. 0. 0. 0. 0. 0.]
2.9394140243530273,0.021588001400232315,-0.013900524005293846,-0.9957320094108582,0.0886494591832161,[0. 0. 0. 0. 0. 0. 0. 0. 0.],0.06103515625,-1.0986328125,-0.18310546875,[0. 0. 0. 0. 0. 0. 0. 0. 0.],-0.041015625,0.0322265625,1.00439453125,[0. 0. 0. 0. 0. 0. 0. 0. 0.]
2.9598233699798584,0.021511118859052658,-0.015674030408263206,-0.9957058429718018,0.08866558223962784,[0. 0. 0. 0. 0. 0. 0. 0. 0.],0.0,-1.03759765625,-0.1220703125,[0. 0. 0. 0. 0. 0. 0. 0. 0.],-0.04052734375,0.03515625,1.00439453125,[0. 0. 0. 0. 0. 0. 0. 0. 0.]
2.979775905609131,0.02117605321109295,-0.015952711924910545,-0.9957084059715271,0.08866804093122482,[0. 0. 0. 0. 0. 0. 0. 0. 0.],0.1220703125,-0.18310546875,-0.18310546875,[0. 0. 0. 0. 0. 0. 0. 0. 0.],-0.03955078125,0.03564453125,1.0029296875,[0. 0. 0. 0. 0. 0. 0. 0. 0.]
3.000591278076172,0.021687693893909454,-0.014659871347248554,-0.9957231879234314,0.08860144764184952,[0. 0. 0. 0. 0. 0. 0. 0. 0.],0.0,-0.18310546875,-0.06103515625,[0. 0. 0. 0. 0. 0. 0. 0. 0.],-0.041015625,0.033203125,1.00439453125,[0. 0. 0. 0. 0. 0. 0. 0. 0.]
3.0198616981506348,0.021246742457151413,-0.01468540821224451,-0.9957348108291626,0.0885734111070633,[0. 0. 0. 0. 0. 0. 0. 0. 0.],-0.1220703125,-0.8544921875,-0.1220703125,[0. 0. 0. 0. 0. 0. 0. 0. 0.],-0.0400390625,0.03369140625,1.00634765625,[0. 0. 0. 0. 0. 0. 0. 0. 0.]
3.0389564037323,0.021485082805156708,-0.015520870685577393,-0.9957184791564941,0.08855660259723663,[0. 0. 0. 0. 0. 0. 0. 0. 0.],-0.06103515625,-0.9765625,-0.244140625,[0. 0. 0. 0. 0. 0. 0. 0. 0.],-0.04052734375,0.0341796875,1.0048828125,[0. 0. 0. 0. 0. 0. 0. 0. 0.]
3.060350179672241,0.022280577570199966,-0.015536032617092133,-0.9957041144371033,0.08851968497037888,[0. 0. 0. 0. 0. 0. 0. 0. 0.],0.1220703125,-0.67138671875,-0.1220703125,[0. 0. 0. 0. 0. 0. 0. 0. 0.],-0.0419921875,0.03564453125,1.00390625,[0. 0. 0. 0. 0. 0. 0. 0. 0.]
3.082369327545166,0.022465696558356285,-0.016561996191740036,-0.9956846833229065,0.08850497752428055,[0. 0. 0. 0. 0. 0. 0. 0. 0.],-0.30517578125,-0.42724609375,-0.1220703125,[0. 0. 0. 0. 0. 0. 0. 0. 0.],-0.04150390625,0.03662109375,1.0029296875,[0. 0. 0. 0. 0. 0. 0. 0. 0.]
3.0991711616516113,0.021006714552640915,-0.015301699750125408,-0.9957388639450073,0.0884803980588913,[0. 0. 0. 0. 0. 0. 0. 0. 0.],-0.3662109375,-0.42724609375,0.0,[0. 0. 0. 0. 0. 0. 0. 0. 0.],-0.0390625,0.0341796875,1.001953125,[0. 0. 0. 0. 0. 0. 0. 0. 0.]
3.1220510005950928,0.02126830816268921,-0.01542618591338396,-0.9957351684570312,0.08843730390071869,[0. 0. 0. 0. 0. 0. 0. 0. 0.],0.18310546875,-0.67138671875,-0.1220703125,[0. 0. 0. 0. 0. 0. 0. 0. 0.],-0.0390625,0.03466796875,1.00439453125,[0. 0. 0. 0. 0. 0. 0. 0. 0.]
3.139198064804077,0.022135140374302864,-0.014809951186180115,-0.9957304000854492,0.08838418871164322,[0. 0. 0. 0. 0. 0. 0. 0. 0.],0.30517578125,-0.9765625,-0.18310546875,[0. 0. 0. 0. 0. 0. 0. 0. 0.],-0.0419921875,0.033203125,1.00439453125,[0. 0. 0. 0. 0. 0. 0. 0. 0.]
3.154350996017456,0.022416867315769196,-0.01490288507193327,-0.9957257509231567,0.08834996819496155,[0. 0. 0. 0. 0. 0. 0. 0. 0.],-0.3662109375,-1.0986328125,-0.18310546875,[0. 0. 0. 0. 0. 0. 0. 0. 0.],-0.04248046875,0.0341796875,1.0029296875,[0. 0. 0. 0. 0. 0. 0. 0. 0.]
3.1790366172790527,0.02192525938153267,-0.01576564647257328,-0.9957218766212463,0.08836757391691208,[0. 0. 0. 0. 0. 0. 0. 0. 0.],-0.3662109375,-0.42724609375,0.0,[0. 0. 0. 0. 0. 0. 0. 0. 0.],-0.041015625,0.03564453125,1.0029296875,[0. 0. 0. 0. 0. 0. 0. 0. 0.]
3.2028648853302,0.020782573148608208,-0.014968295581638813,-0.9957618713378906,0.08833089470863342,[0. 0. 0. 0. 0. 0. 0. 0. 0.],0.1220703125,-0.54931640625,-0.18310546875,[0. 0. 0. 0. 0. 0. 0. 0. 0.],-0.03955078125,0.03369140625,1.00537109375,[0. 0. 0. 0. 0. 0. 0. 0. 0.]
3.2196619510650635,0.021925151348114014,-0.014962567016482353,-0.9957415461540222,0.08828485757112503,[0. 0. 0. 0. 0. 0. 0. 0. 0.],-0.3662109375,-0.42724609375,-0.1220703125,[0. 0. 0. 0. 0. 0. 0. 0. 0.],-0.041015625,0.03369140625,1.00439453125,[0. 0. 0. 0. 0. 0. 0. 0. 0.]
3.2391014099121094,0.021786170080304146,-0.014416081830859184,-0.9957563877105713,0.08824364095926285,[0. 0. 0. 0. 0. 0. 0. 0. 0.],0.0,-1.03759765625,-0.18310546875,[0. 0. 0. 0. 0. 0. 0. 0. 0.],-0.041015625,0.03271484375,1.00732421875,[0. 0. 0. 0. 0. 0. 0. 0. 0.]
3.2592661380767822,0.021508298814296722,-0.014869645237922668,-0.9957565069198608,0.08823442459106445,[0. 0. 0. 0. 0. 0. 0. 0. 0.],0.244140625,-0.67138671875,-0.18310546875,[0. 0. 0. 0. 0. 0. 0. 0. 0.],-0.04052734375,0.03369140625,1.00537109375,[0. 0. 0. 0. 0. 0. 0. 0. 0.]
3.279069423675537,0.021727293729782104,-0.01537820789963007,-0.9957438111305237,0.08823719620704651,[0. 0. 0. 0. 0. 0. 0. 0. 0.],0.0,-0.48828125,0.0,[0. 0. 0. 0. 0. 0. 0. 0. 0.],-0.041015625,0.03466796875,1.0029296875,[0. 0. 0. 0. 0. 0. 0. 0. 0.]
3.304468870162964,0.0213352981954813,-0.01620316132903099,-0.9957386255264282,0.08824340254068375,[0. 0. 0. 0. 0. 0. 0. 0. 0.],-0.42724609375,-0.42724609375,0.06103515625,[0. 0. 0. 0. 0. 0. 0. 0. 0.],-0.0400390625,0.0361328125,1.00537109375,[0. 0. 0. 0. 0. 0. 0. 0. 0.]
3.319389581680298,0.021956101059913635,-0.015903078019618988,-0.9957343935966492,0.08819318562746048,[0. 0. 0. 0. 0. 0. 0. 0. 0.],-0.244140625,-0.6103515625,0.0,[0. 0. 0. 0. 0. 0. 0. 0. 0.],-0.041015625,0.03564453125,1.00439453125,[0. 0. 0. 0. 0. 0. 0. 0. 0.]
3.3355040550231934,0.02214142121374607,-0.015502803958952427,-0.9957406520843506,0.08814866840839386,[0. 0. 0. 0. 0. 0. 0. 0. 0.],0.3662109375,-0.732421875,-0.30517578125,[0. 0. 0. 0. 0. 0. 0. 0. 0.],-0.0419921875,0.03466796875,1.0068359375,[0. 0. 0. 0. 0. 0. 0. 0. 0.]
3.3651530742645264,0.021577510982751846,-0.015179671347141266,-0.9957597255706787,0.0881277322769165,[0. 0. 0. 0. 0. 0. 0. 0. 0.],0.0,-1.03759765625,-0.244140625,[0. 0. 0. 0. 0. 0. 0. 0. 0.],-0.04052734375,0.0341796875,1.00390625,[0. 0. 0. 0. 0. 0. 0. 0. 0.]
3.3791556358337402,0.021280726417899132,-0.015144962817430496,-0.9957696199417114,0.08809526264667511,[0. 0. 0. 0. 0. 0. 0. 0. 0.],-0.3662109375,-0.732421875,-0.1220703125,[0. 0. 0. 0. 0. 0. 0. 0. 0.],-0.0400390625,0.0341796875,1.00537109375,[0. 0. 0. 0. 0. 0. 0. 0. 0.]
3.399078369140625,0.022262249141931534,-0.015268570743501186,-0.9957503080368042,0.08804891258478165,[0. 0. 0. 0. 0. 0. 0. 0. 0.],-0.18310546875,-0.18310546875,-0.1220703125,[0. 0. 0. 0. 0. 0. 0. 0. 0.],-0.0419921875,0.03466796875,1.00390625,[0. 0. 0. 0. 0. 0. 0. 0. 0.]
3.417754888534546,0.022047802805900574,-0.015690984204411507,-0.9957498908042908,0.08803349733352661,[0. 0. 0. 0. 0. 0. 0. 0. 0.],-0.06103515625,-0.18310546875,0.1220703125,[0. 0. 0. 0. 0. 0. 0. 0. 0.],-0.04150390625,0.03515625,1.0048828125,[0. 0. 0. 0. 0. 0. 0. 0. 0.]
3.439061164855957,0.022134633734822273,-0.014532049186527729,-0.995769739151001,0.08798613399267197,[0. 0. 0. 0. 0. 0. 0. 0. 0.],0.0,-1.15966796875,-0.244140625,[0. 0. 0. 0. 0. 0. 0. 0. 0.],-0.0419921875,0.033203125,1.00634765625,[0. 0. 0. 0. 0. 0. 0. 0. 0.]
3.460078239440918,0.021035145968198776,-0.014947687275707722,-0.9957868456840515,0.08799250423908234,[0. 0. 0. 0. 0. 0. 0. 0. 0.],-0.244140625,-1.0986328125,-0.18310546875,[0. 0. 0. 0. 0. 0. 0. 0. 0.],-0.0400390625,0.03369140625,1.00390625,[0. 0. 0. 0. 0. 0. 0. 0. 0.]
3.4789793491363525,0.021351654082536697,-0.01567741297185421,-0.9957720041275024,0.08795788884162903,[0. 0. 0. 0. 0. 0. 0. 0. 0.],0.06103515625,-0.8544921875,-0.30517578125,[0. 0. 0. 0. 0. 0. 0. 0. 0.],-0.0400390625,0.03515625,1.00341796875,[0. 0. 0. 0. 0. 0. 0. 0. 0.]
3.4949660301208496,0.021262334659695625,-0.015233402140438557,-0.9957833290100098,0.08792948722839355,[0. 0. 0. 0. 0. 0. 0. 0. 0.],-0.06103515625,-0.06103515625,0.0,[0. 0. 0. 0. 0. 0. 0. 0. 0.],-0.04052734375,0.0341796875,1.00439453125,[0. 0. 0. 0. 0. 0. 0. 0. 0.]
3.519158124923706,0.02239181101322174,-0.014526458457112312,-0.995774507522583,0.08786880224943161,[0. 0. 0. 0. 0. 0. 0. 0. 0.],-0.1220703125,-0.8544921875,-0.06103515625,[0. 0. 0. 0. 0. 0. 0. 0. 0.],-0.0419921875,0.03271484375,1.0048828125,[0. 0. 0. 0. 0. 0. 0. 0. 0.]
3.539214849472046,0.021495847031474113,-0.014500904828310013,-0.9957953691482544,0.08785972744226456,[0. 0. 0. 0. 0. 0. 0. 0. 0.],-0.06103515625,-1.15966796875,-0.244140625,[0. 0. 0. 0. 0. 0. 0. 0. 0.],-0.04052734375,0.03271484375,1.00439453125,[0. 0. 0. 0. 0. 0. 0. 0. 0.]
3.5588512420654297,0.021699173375964165,-0.01444284338504076,-0.9957931041717529,0.08784496784210205,[0. 0. 0. 0. 0. 0. 0. 0. 0.],0.06103515625,-0.54931640625,-0.1220703125,[0. 0. 0. 0. 0. 0. 0. 0. 0.],-0.041015625,0.03271484375,1.005859375,[0. 0. 0. 0. 0. 0. 0. 0. 0.]
3.5791029930114746,0.02158774621784687,-0.015445869415998459,-0.9957799315452576,0.08785046637058258,[0. 0. 0. 0. 0. 0. 0. 0. 0.],-0.18310546875,-0.244140625,0.0,[0. 0. 0. 0. 0. 0. 0. 0. 0.],-0.04052734375,0.03466796875,1.00439453125,[0. 0. 0. 0. 0. 0. 0. 0. 0.]
3.599351406097412,0.022117065265774727,-0.01516031101346016,-0.9957756996154785,0.08781624585390091,[0. 0. 0. 0. 0. 0. 0. 0. 0.],-0.244140625,-0.48828125,0.1220703125,[0. 0. 0. 0. 0. 0. 0. 0. 0.],-0.041015625,0.03466796875,1.00341796875,[0. 0. 0. 0. 0. 0. 0. 0. 0.]
3.619551420211792,0.02124965377151966,-0.014567471109330654,-0.9958054423332214,0.08779437839984894,[0. 0. 0. 0. 0. 0. 0. 0. 0.],0.18310546875,-0.67138671875,-0.18310546875,[0. 0. 0. 0. 0. 0. 0. 0. 0.],-0.0400390625,0.03271484375,1.00390625,[0. 0. 0. 0. 0. 0. 0. 0. 0.]
3.640042543411255,0.020969457924365997,-0.01467659417539835,-0.9958130121231079,0.0877574011683464,[0. 0. 0. 0. 0. 0. 0. 0. 0.],0.244140625,-0.732421875,-0.3662109375,[0. 0. 0. 0. 0. 0. 0. 0. 0.],-0.0400390625,0.033203125,1.005859375,[0. 0. 0. 0. 0. 0. 0. 0. 0.]
3.6590912342071533,0.022051699459552765,-0.014685575850307941,-0.9957934021949768,0.08771318197250366,[0. 0. 0. 0. 0. 0. 0. 0. 0.],-0.18310546875,-1.03759765625,-0.18310546875,[0. 0. 0. 0. 0. 0. 0. 0. 0.],-0.0419921875,0.033203125,1.00634765625,[0. 0. 0. 0. 0. 0. 0. 0. 0.]
3.6813106536865234,0.02170003578066826,-0.014922131784260273,-0.995798647403717,0.0877007469534874,[0. 0. 0. 0. 0. 0. 0. 0. 0.],-0.30517578125,-0.732421875,-0.18310546875,[0. 0. 0. 0. 0. 0. 0. 0. 0.],-0.041015625,0.0341796875,1.0029296875,[0. 0. 0. 0. 0. 0. 0. 0. 0.]
3.699049949645996,0.021591639146208763,-0.014847386628389359,-0.9958035349845886,0.08768447488546371,[0. 0. 0. 0. 0. 0. 0. 0. 0.],-0.1220703125,-0.06103515625,-0.06103515625,[0. 0. 0. 0. 0. 0. 0. 0. 0.],-0.04052734375,0.03369140625,1.00537109375,[0. 0. 0. 0. 0. 0. 0. 0. 0.]
3.7191946506500244,0.021310361102223396,-0.014740407466888428,-0.9958128333091736,0.08766698092222214,[0. 0. 0. 0. 0. 0. 0. 0. 0.],0.0,-0.3662109375,-0.06103515625,[0. 0. 0. 0. 0. 0. 0. 0. 0.],-0.0400390625,0.03369140625,1.00390625,[0. 0. 0. 0. 0. 0. 0. 0. 0.]
3.7403833866119385,0.021534431725740433,-0.01589532010257244,-0.9957911968231201,0.08765632659196854,[0. 0. 0. 0. 0. 0. 0. 0. 0.],-0.1220703125,-1.03759765625,-0.18310546875,[0. 0. 0. 0. 0. 0. 0. 0. 0.],-0.04052734375,0.03564453125,1.0048828125,[0. 0. 0. 0. 0. 0. 0. 0. 0.]
3.754254102706909,0.021737851202487946,-0.015067894011735916,-0.9958040118217468,0.08760654926300049,[0. 0. 0. 0. 0. 0. 0. 0. 0.],0.06103515625,-0.91552734375,-0.244140625,[0. 0. 0. 0. 0. 0. 0. 0. 0.],-0.041015625,0.0341796875,1.005859375,[0. 0. 0. 0. 0. 0. 0. 0. 0.]
3.7791779041290283,0.022096889093518257,-0.014983532018959522,-0.9958006739616394,0.0875689759850502,[0. 0. 0. 0. 0. 0. 0. 0. 0.],0.0,-0.3662109375,-0.18310546875,[0. 0. 0. 0. 0. 0. 0. 0. 0.],-0.041015625,0.03369140625,1.00390625,[0. 0. 0. 0. 0. 0. 0. 0. 0.]
3.79936146736145,0.02188962697982788,-0.015128646045923233,-0.9958050847053528,0.0875454843044281,[0. 0. 0. 0. 0. 0. 0. 0. 0.],-0.3662109375,-0.30517578125,-0.18310546875,[0. 0. 0. 0. 0. 0. 0. 0. 0.],-0.0419921875,0.03564453125,1.005859375,[0. 0. 0. 0. 0. 0. 0. 0. 0.]
3.815586805343628,0.02271699719130993,-0.015256352722644806,-0.9957848787307739,0.08754289895296097,[0. 0. 0. 0. 0. 0. 0. 0. 0.],-0.06103515625,-0.8544921875,0.244140625,[0. 0. 0. 0. 0. 0. 0. 0. 0.],-0.04296875,0.03369140625,1.00439453125,[0. 0. 0. 0. 0. 0. 0. 0. 0.]
3.8394012451171875,0.021182287484407425,-0.014399581588804722,-0.9958231449127197,0.08763820677995682,[0. 0. 0. 0. 0. 0. 0. 0. 0.],0.0,-0.30517578125,0.6103515625,[0. 0. 0. 0. 0. 0. 0. 0. 0.],-0.03564453125,0.03173828125,1.0048828125,[0. 0. 0. 0. 0. 0. 0. 0. 0.]
3.8548123836517334,0.02002744749188423,-0.015554309822618961,-0.9958218336105347,0.08772701770067215,[0. 0. 0. 0. 0. 0. 0. 0. 0.],0.6103515625,1.40380859375,-0.42724609375,[0. 0. 0. 0. 0. 0. 0. 0. 0.],-0.03369140625,0.03759765625,1.0009765625,[0. 0. 0. 0. 0. 0. 0. 0. 0.]
3.874924659729004,0.01926369033753872,-0.0169125497341156,-0.995856761932373,0.08724775910377502,[0. 0. 0. 0. 0. 0. 0. 0. 0.],-0.06103515625,2.197265625,-4.69970703125,[0. 0. 0. 0. 0. 0. 0. 0. 0.],-0.033203125,0.0439453125,0.99658203125,[0. 0. 0. 0. 0. 0. 0. 0. 0.]
3.9022107124328613,0.02179267257452011,-0.017048398032784462,-0.9959049820899963,0.08606777340173721,[0. 0. 0. 0. 0. 0. 0. 0. 0.],-0.79345703125,1.220703125,-4.8828125,[0. 0. 0. 0. 0. 0. 0. 0. 0.],-0.083984375,0.03759765625,1.0029296875,[0. 0. 0. 0. 0. 0. 0. 0. 0.]
3.9203922748565674,0.023232242092490196,-0.016138460487127304,-0.9959691762924194,0.08511966466903687,[0. 0. 0. 0. 0. 0. 0. 0. 0.],0.48828125,-0.18310546875,-5.67626953125,[0. 0. 0. 0. 0. 0. 0. 0. 0.],-0.04541015625,0.03125,1.0166015625,[0. 0. 0. 0. 0. 0. 0. 0. 0.]
3.940660238265991,0.021482747048139572,-0.01578081026673317,-0.9960933327674866,0.0841880664229393,[0. 0. 0. 0. 0. 0. 0. 0. 0.],-0.244140625,0.48828125,-5.06591796875,[0. 0. 0. 0. 0. 0. 0. 0. 0.],-0.02392578125,0.03076171875,1.00634765625,[0. 0. 0. 0. 0. 0. 0. 0. 0.]
3.9593491554260254,0.020738668739795685,-0.014695968478918076,-0.9961692690849304,0.08367009460926056,[0. 0. 0. 0. 0. 0. 0. 0. 0.],-1.15966796875,-0.30517578125,-3.35693359375,[0. 0. 0. 0. 0. 0. 0. 0. 0.],-0.0390625,0.0283203125,0.99755859375,[0. 0. 0. 0. 0. 0. 0. 0. 0.]
3.979045867919922,0.020563924685120583,-0.01272660680115223,-0.9962343573570251,0.08326096832752228,[0. 0. 0. 0. 0. 0. 0. 0. 0.],-0.732421875,-0.244140625,-1.3427734375,[0. 0. 0. 0. 0. 0. 0. 0. 0.],-0.0380859375,0.02392578125,1.01025390625,[0. 0. 0. 0. 0. 0. 0. 0. 0.]
3.999262571334839,0.020068932324647903,-0.010951928794384003,-0.9962703585624695,0.0832027718424797,[0. 0. 0. 0. 0. 0. 0. 0. 0.],0.06103515625,-0.48828125,0.42724609375,[0. 0. 0. 0. 0. 0. 0. 0. 0.],-0.0380859375,0.02294921875,1.00927734375,[0. 0. 0. 0. 0. 0. 0. 0. 0.]
4.0156474113464355,0.019720610231161118,-0.01278730295598507,-0.9962460994720459,0.08331511169672012,[0. 0. 0. 0. 0. 0. 0. 0. 0.],0.18310546875,-0.42724609375,0.18310546875,[0. 0. 0. 0. 0. 0. 0. 0. 0.],-0.03564453125,0.03369140625,0.99609375,[0. 0. 0. 0. 0. 0. 0. 0. 0.]
4.039690732955933,0.019814355298876762,-0.010234377346932888,-0.9962722659111023,0.08333264291286469,[0. 0. 0. 0. 0. 0. 0. 0. 0.],-6.89697265625,5.126953125,0.30517578125,[0. 0. 0. 0. 0. 0. 0. 0. 0.],-0.05419921875,-0.09375,0.9521484375,[0. 0. 0. 0. 0. 0. 0. 0. 0.]
4.059168815612793,0.019467249512672424,-0.008069929666817188,-0.9963484406471252,0.08273950964212418,[0. 0. 0. 0. 0. 0. 0. 0. 0.],1.46484375,-0.48828125,-2.62451171875,[0. 0. 0. 0. 0. 0. 0. 0. 0.],-0.05224609375,-0.11181640625,1.08447265625,[0. 0. 0. 0. 0. 0. 0. 0. 0.]
4.083261489868164,0.019750157371163368,-0.006757965311408043,-0.9964359998703003,0.08172907680273056,[0. 0. 0. 0. 0. 0. 0. 0. 0.],0.1220703125,0.42724609375,-3.11279296875,[0. 0. 0. 0. 0. 0. 0. 0. 0.],-0.060546875,-0.00439453125,1.00244140625,[0. 0. 0. 0. 0. 0. 0. 0. 0.]
4.100090980529785,0.0199977308511734,-0.004552372731268406,-0.9964848756790161,0.0812235102057457,[0. 0. 0. 0. 0. 0. 0. 0. 0.],-12.75634765625,-0.79345703125,-2.685546875,[0. 0. 0. 0. 0. 0. 0. 0. 0.],-0.0673828125,-0.10400390625,0.86376953125,[0. 0. 0. 0. 0. 0. 0. 0. 0.]
4.1189351081848145,0.020209550857543945,-0.0025316006503999233,-0.9965779185295105,0.08010988682508469,[0. 0. 0. 0. 0. 0. 0. 0. 0.],18.6767578125,-11.90185546875,-13.24462890625,[0. 0. 0. 0. 0. 0. 0. 0. 0.],-0.015625,-0.03466796875,1.197265625,[0. 0. 0. 0. 0. 0. 0. 0. 0.]
4.139223098754883,0.020993398502469063,-0.003114714752882719,-0.9966422319412231,0.0790814459323883,[0. 0. 0. 0. 0. 0. 0. 0. 0.],-9.94873046875,1.953125,-8.11767578125,[0. 0. 0. 0. 0. 0. 0. 0. 0.],-0.041015625,-0.025390625,0.8876953125,[0. 0. 0. 0. 0. 0. 0. 0. 0.]
4.159435749053955,0.020566992461681366,0.0004647267051041126,-0.9967732429504395,0.07758873701095581,[0. 0. 0. 0. 0. 0. 0. 0. 0.],-9.46044921875,1.52587890625,-7.8125,[0. 0. 0. 0. 0. 0. 0. 0. 0.],-0.04931640625,-0.224609375,0.99609375,[0. 0. 0. 0. 0. 0. 0. 0. 0.]
4.1803460121154785,0.019598929211497307,0.0006951202522031963,-0.996987521648407,0.07504187524318695,[0. 0. 0. 0. 0. 0. 0. 0. 0.],12.02392578125,-8.9111328125,-17.15087890625,[0. 0. 0. 0. 0. 0. 0. 0. 0.],-0.01513671875,0.0048828125,1.1904296875,[0. 0. 0. 0. 0. 0. 0. 0. 0.]
4.199334144592285,0.021056080237030983,0.002019115025177598,-0.9970839619636536,0.07332266122102737,[0. 0. 0. 0. 0. 0. 0. 0. 0.],-3.47900390625,7.01904296875,-9.94873046875,[0. 0. 0. 0. 0. 0. 0. 0. 0.],-0.0849609375,-0.181640625,0.8134765625,[0. 0. 0. 0. 0. 0. 0. 0. 0.]
4.219283819198608,0.019474953413009644,0.0021129699889570475,-0.9972817301750183,0.07103174924850464,[0. 0. 0. 0. 0. 0. 0. 0. 0.],2.50244140625,-3.173828125,-6.53076171875,[0. 0. 0. 0. 0. 0. 0. 0. 0.],-0.05615234375,0.04736328125,1.08349609375,[0. 0. 0. 0. 0. 0. 0. 0. 0.]
4.239083290100098,0.02059117890894413,0.004715164192020893,-0.9973053932189941,0.07025565207004547,[0. 0. 0. 0. 0. 0. 0. 0. 0.],-5.67626953125,6.40869140625,-2.38037109375,[0. 0. 0. 0. 0. 0. 0. 0. 0.],-0.0439453125,-0.2509765625,0.84619140625,[0. 0. 0. 0. 0. 0. 0. 0. 0.]
4.259627342224121,0.019610140472650528,0.008990214206278324,-0.9973375201225281,0.06966006010770798,[0. 0. 0. 0. 0. 0. 0. 0. 0.],-19.8974609375,9.521484375,0.1220703125,[0. 0. 0. 0. 0. 0. 0. 0. 0.],-0.02978515625,-0.34326171875,0.9658203125,[0. 0. 0. 0. 0. 0. 0. 0. 0.]
4.279860258102417,0.01883537322282791,0.012084261514246464,-0.9973333477973938,0.06946570426225662,[0. 0. 0. 0. 0. 0. 0. 0. 0.],0.1220703125,-2.3193359375,-0.54931640625,[0. 0. 0. 0. 0. 0. 0. 0. 0.],-0.0390625,-0.3701171875,1.06494140625,[0. 0. 0. 0. 0. 0. 0. 0. 0.]
4.2944114208221436,0.018352510407567024,0.01411050371825695,-0.9973006844520569,0.06968063861131668,[0. 0. 0. 0. 0. 0. 0. 0. 0.],1.708984375,-6.2255859375,-1.64794921875,[0. 0. 0. 0. 0. 0. 0. 0. 0.],-0.04931640625,-0.337890625,1.0234375,[0. 0. 0. 0. 0. 0. 0. 0. 0.]
4.314791440963745,0.017769474536180496,0.01594681479036808,-0.9972658157348633,0.06993591785430908,[0. 0. 0. 0. 0. 0. 0. 0. 0.],-3.5400390625,-5.43212890625,-1.40380859375,[0. 0. 0. 0. 0. 0. 0. 0. 0.],-0.029296875,-0.27734375,0.9609375,[0. 0. 0. 0. 0. 0. 0. 0. 0.]
4.339752912521362,0.017486173659563065,0.017901429906487465,-0.99724942445755,0.06976770609617233,[0. 0. 0. 0. 0. 0. 0. 0. 0.],-4.69970703125,-2.0751953125,-1.77001953125,[0. 0. 0. 0. 0. 0. 0. 0. 0.],-0.02685546875,-0.2861328125,0.99658203125,[0. 0. 0. 0. 0. 0. 0. 0. 0.]
4.364909410476685,0.016608836129307747,0.020332250744104385,-0.9972662925720215,0.06906997412443161,[0. 0. 0. 0. 0. 0. 0. 0. 0.],-5.2490234375,-4.638671875,-3.0517578125,[0. 0. 0. 0. 0. 0. 0. 0. 0.],-0.083984375,-0.30322265625,1.04345703125,[0. 0. 0. 0. 0. 0. 0. 0. 0.]
4.381098031997681,0.0165016558021307,0.021776901558041573,-0.9972558617591858,0.06880691647529602,[0. 0. 0. 0. 0. 0. 0. 0. 0.],1.28173828125,-4.638671875,-1.220703125,[0. 0. 0. 0. 0. 0. 0. 0. 0.],-0.07275390625,-0.3056640625,1.072265625,[0. 0. 0. 0. 0. 0. 0. 0. 0.]
4.399394989013672,0.015601120889186859,0.022685792297124863,-0.9972718954086304,0.06848905980587006,[0. 0. 0. 0. 0. 0. 0. 0. 0.],-1.40380859375,-3.7841796875,-0.48828125,[0. 0. 0. 0. 0. 0. 0. 0. 0.],-0.04052734375,-0.26904296875,0.984375,[0. 0. 0. 0. 0. 0. 0. 0. 0.]
4.423070192337036,0.014631896279752254,0.02456207200884819,-0.9972887635231018,0.06780698150396347,[0. 0. 0. 0. 0. 0. 0. 0. 0.],1.40380859375,3.41796875,-2.99072265625,[0. 0. 0. 0. 0. 0. 0. 0. 0.],0.03564453125,-0.26220703125,1.03076171875,[0. 0. 0. 0. 0. 0. 0. 0. 0.]
4.434739589691162,0.014274213463068008,0.025363005697727203,-0.9973304271697998,0.06697151064872742,[0. 0. 0. 0. 0. 0. 0. 0. 0.],2.685546875,-0.732421875,-8.9111328125,[0. 0. 0. 0. 0. 0. 0. 0. 0.],0.05517578125,-0.23583984375,1.02490234375,[0. 0. 0. 0. 0. 0. 0. 0. 0.]
4.459306716918945,0.014772270806133747,0.026849664747714996,-0.9973449110984802,0.06606060266494751,[0. 0. 0. 0. 0. 0. 0. 0. 0.],0.3662109375,2.685546875,-6.65283203125,[0. 0. 0. 0. 0. 0. 0. 0. 0.],-0.0166015625,-0.20947265625,0.90185546875,[0. 0. 0. 0. 0. 0. 0. 0. 0.]
4.479403734207153,0.015737850219011307,0.028455959632992744,-0.9973430633544922,0.06518843024969101,[0. 0. 0. 0. 0. 0. 0. 0. 0.],-0.1220703125,4.69970703125,-4.94384765625,[0. 0. 0. 0. 0. 0. 0. 0. 0.],-0.03857421875,-0.22021484375,0.92138671875,[0. 0. 0. 0. 0. 0. 0. 0. 0.]
4.4992992877960205,0.016001254320144653,0.030257856473326683,-0.9973388314247131,0.06437191367149353,[0. 0. 0. 0. 0. 0. 0. 0. 0.],-0.79345703125,1.77001953125,-3.11279296875,[0. 0. 0. 0. 0. 0. 0. 0. 0.],-0.087890625,-0.1982421875,1.0322265625,[0. 0. 0. 0. 0. 0. 0. 0. 0.]
4.5192906856536865,0.015714894980192184,0.03144809976220131,-0.9973751902580261,0.06329896301031113,[0. 0. 0. 0. 0. 0. 0. 0. 0.],3.173828125,0.67138671875,-7.99560546875,[0. 0. 0. 0. 0. 0. 0. 0. 0.],-0.02978515625,-0.17138671875,1.16015625,[0. 0. 0. 0. 0. 0. 0. 0. 0.]
4.549254655838013,0.018261240795254707,0.033633578568696976,-0.9974817037582397,0.05971270799636841,[0. 0. 0. 0. 0. 0. 0. 0. 0.],-2.0751953125,7.75146484375,-16.11328125,[0. 0. 0. 0. 0. 0. 0. 0. 0.],-0.18701171875,-0.11865234375,0.84423828125,[0. 0. 0. 0. 0. 0. 0. 0. 0.]
4.560800075531006,0.019685011357069016,0.03376978263258934,-0.9976065158843994,0.05703919753432274,[0. 0. 0. 0. 0. 0. 0. 0. 0.],5.31005859375,-0.91552734375,-23.74267578125,[0. 0. 0. 0. 0. 0. 0. 0. 0.],-0.20166015625,-0.12939453125,1.04638671875,[0. 0. 0. 0. 0. 0. 0. 0. 0.]
4.579034328460693,0.02146744914352894,0.033382873982191086,-0.9977911710739136,0.05326934531331062,[0. 0. 0. 0. 0. 0. 0. 0. 0.],6.34765625,7.87353515625,-32.04345703125,[0. 0. 0. 0. 0. 0. 0. 0. 0.],-0.10693359375,-0.076171875,1.09814453125,[0. 0. 0. 0. 0. 0. 0. 0. 0.]
4.5993711948394775,0.024393701925873756,0.03336826339364052,-0.9980313777923584,0.0471687912940979,[0. 0. 0. 0. 0. 0. 0. 0. 0.],-3.0517578125,10.498046875,-36.68212890625,[0. 0. 0. 0. 0. 0. 0. 0. 0.],-0.193359375,-0.04052734375,0.86669921875,[0. 0. 0. 0. 0. 0. 0. 0. 0.]
4.619205951690674,0.026491254568099976,0.033127252012491226,-0.9982947707176208,0.04010375589132309,[0. 0. 0. 0. 0. 0. 0. 0. 0.],8.056640625,-4.57763671875,-43.9453125,[0. 0. 0. 0. 0. 0. 0. 0. 0.],-0.23681640625,-0.08740234375,0.95654296875,[0. 0. 0. 0. 0. 0. 0. 0. 0.]
4.63952898979187,0.027872201055288315,0.032658569514751434,-0.9985790848731995,0.03156747296452522,[0. 0. 0. 0. 0. 0. 0. 0. 0.],0.1220703125,5.43212890625,-52.8564453125,[0. 0. 0. 0. 0. 0. 0. 0. 0.],-0.1533203125,-0.01025390625,0.93359375,[0. 0. 0. 0. 0. 0. 0. 0. 0.]
4.65953254699707,0.029572203755378723,0.03273442015051842,-0.9987953305244446,0.021489202976226807,[0. 0. 0. 0. 0. 0. 0. 0. 0.],-3.11279296875,-3.35693359375,-61.03515625,[0. 0. 0. 0. 0. 0. 0. 0. 0.],-0.18408203125,-0.001953125,1.01611328125,[0. 0. 0. 0. 0. 0. 0. 0. 0.]
4.683185338973999,0.029779650270938873,0.03198518976569176,-0.9990164041519165,0.007510969880968332,[0. 0. 0. 0. 0. 0. 0. 0. 0.],8.97216796875,-3.11279296875,-67.19970703125,[0. 0. 0. 0. 0. 0. 0. 0. 0.],-0.169921875,-0.06591796875,1.09716796875,[0. 0. 0. 0. 0. 0. 0. 0. 0.]
4.700046062469482,0.030632387846708298,0.030831728130578995,-0.9990541934967041,-0.0013129018479958177,[0. 0. 0. 0. 0. 0. 0. 0. 0.],3.60107421875,3.35693359375,-68.17626953125,[0. 0. 0. 0. 0. 0. 0. 0. 0.],-0.12451171875,-0.01171875,1.0048828125,[0. 0. 0. 0. 0. 0. 0. 0. 0.]
4.720009088516235,0.032931722700595856,0.03043668530881405,-0.9989014267921448,-0.013611266389489174,[0. 0. 0. 0. 0. 0. 0. 0. 0.],-6.16455078125,14.22119140625,-72.8759765625,[0. 0. 0. 0. 0. 0. 0. 0. 0.],-0.09912109375,0.01904296875,0.92333984375,[0. 0. 0. 0. 0. 0. 0. 0. 0.]
4.739332914352417,0.036132629960775375,0.029811808839440346,-0.9985449314117432,-0.02671865187585354,[0. 0. 0. 0. 0. 0. 0. 0. 0.],2.685546875,11.90185546875,-75.8056640625,[0. 0. 0. 0. 0. 0. 0. 0. 0.],-0.1455078125,-0.0517578125,1.00244140625,[0. 0. 0. 0. 0. 0. 0. 0. 0.]
4.754177570343018,0.03772489354014397,0.029309695586562157,-0.9980431795120239,-0.040343690663576126,[0. 0. 0. 0. 0. 0. 0. 0. 0.],2.685546875,-3.41796875,-79.89501953125,[0. 0. 0. 0. 0. 0. 0. 0. 0.],-0.2197265625,-0.0078125,1.013671875,[0. 0. 0. 0. 0. 0. 0. 0. 0.]
4.779431581497192,0.03866536542773247,0.027818866074085236,-0.997369647026062,-0.054634757339954376,[0. 0. 0. 0. 0. 0. 0. 0. 0.],6.65283203125,5.2490234375,-82.6416015625,[0. 0. 0. 0. 0. 0. 0. 0. 0.],-0.14501953125,-0.00537109375,1.13671875,[0. 0. 0. 0. 0. 0. 0. 0. 0.]
4.79990553855896,0.04048403352499008,0.025721430778503418,-0.9964484572410583,-0.06921004503965378,[0. 0. 0. 0. 0. 0. 0. 0. 0.],11.71875,2.38037109375,-83.3740234375,[0. 0. 0. 0. 0. 0. 0. 0. 0.],-0.193359375,-0.02978515625,1.0400390625,[0. 0. 0. 0. 0. 0. 0. 0. 0.]
4.816548585891724,0.04073209688067436,0.0242016464471817,-0.995363712310791,-0.08370377868413925,[0. 0. 0. 0. 0. 0. 0. 0. 0.],5.126953125,-1.0986328125,-83.984375,[0. 0. 0. 0. 0. 0. 0. 0. 0.],-0.26123046875,0.0234375,0.9326171875,[0. 0. 0. 0. 0. 0. 0. 0. 0.]
4.8347883224487305,0.04273726046085358,0.02382517419755459,-0.9939594268798828,-0.0982382744550705,[0. 0. 0. 0. 0. 0. 0. 0. 0.],-0.3662109375,8.48388671875,-84.41162109375,[0. 0. 0. 0. 0. 0. 0. 0. 0.],-0.20458984375,0.02685546875,0.90283203125,[0. 0. 0. 0. 0. 0. 0. 0. 0.]
4.859782934188843,0.04529691860079765,0.021871265023946762,-0.9923198819160461,-0.11301000416278839,[0. 0. 0. 0. 0. 0. 0. 0. 0.],13.97705078125,4.57763671875,-86.181640625,[0. 0. 0. 0. 0. 0. 0. 0. 0.],-0.21533203125,-0.04052734375,1.12890625,[0. 0. 0. 0. 0. 0. 0. 0. 0.]
4.879963636398315,0.04688335582613945,0.02048676460981369,-0.9904804229736328,-0.12779207527637482,[0. 0. 0. 0. 0. 0. 0. 0. 0.],2.50244140625,3.84521484375,-85.8154296875,[0. 0. 0. 0. 0. 0. 0. 0. 0.],-0.244140625,0.0458984375,0.95703125,[0. 0. 0. 0. 0. 0. 0. 0. 0.]
4.8991124629974365,0.04815622791647911,0.020503953099250793,-0.988437831401825,-0.1423071175813675,[0. 0. 0. 0. 0. 0. 0. 0. 0.],-1.220703125,-4.82177734375,-82.8857421875,[0. 0. 0. 0. 0. 0. 0. 0. 0.],-0.2900390625,0.017578125,0.939453125,[0. 0. 0. 0. 0. 0. 0. 0. 0.]
4.9193501472473145,0.047509822994470596,0.02067694440484047,-0.9864152073860168,-0.155885711312294,[0. 0. 0. 0. 0. 0. 0. 0. 0.],4.69970703125,-13.0615234375,-76.0498046875,[0. 0. 0. 0. 0. 0. 0. 0. 0.],-0.2919921875,-0.0576171875,0.9912109375,[0. 0. 0. 0. 0. 0. 0. 0. 0.]
4.939144849777222,0.04819547384977341,0.02025659568607807,-0.9844103455543518,-0.1679384410381317,[0. 0. 0. 0. 0. 0. 0. 0. 0.],-2.0751953125,5.859375,-66.95556640625,[0. 0. 0. 0. 0. 0. 0. 0. 0.],-0.1240234375,-0.0107421875,0.9326171875,[0. 0. 0. 0. 0. 0. 0. 0. 0.]
4.959166765213013,0.04921117424964905,0.02070540562272072,-0.9825851917266846,-0.17797723412513733,[0. 0. 0. 0. 0. 0. 0. 0. 0.],-5.2490234375,-7.9345703125,-53.5888671875,[0. 0. 0. 0. 0. 0. 0. 0. 0.],-0.19287109375,-0.0341796875,0.884765625,[0. 0. 0. 0. 0. 0. 0. 0. 0.]
4.979515075683594,0.049455560743808746,0.02105775475502014,-0.9811975359916687,-0.1853702813386917,[0. 0. 0. 0. 0. 0. 0. 0. 0.],1.8310546875,-5.7373046875,-37.65869140625,[0. 0. 0. 0. 0. 0. 0. 0. 0.],-0.12841796875,-0.05712890625,1.0283203125,[0. 0. 0. 0. 0. 0. 0. 0. 0.]
4.999333620071411,0.04781113192439079,0.019979333505034447,-0.9803951382637024,-0.19010639190673828,[0. 0. 0. 0. 0. 0. 0. 0. 0.],0.18310546875,-7.9345703125,-23.98681640625,[0. 0. 0. 0. 0. 0. 0. 0. 0.],-0.07763671875,0.0078125,1.14404296875,[0. 0. 0. 0. 0. 0. 0. 0. 0.]
5.019423007965088,0.046914245933294296,0.01902557536959648,-0.9798839688301086,-0.1930403858423233,[0. 0. 0. 0. 0. 0. 0. 0. 0.],2.44140625,7.8125,-13.12255859375,[0. 0. 0. 0. 0. 0. 0. 0. 0.],-0.0166015625,0.01171875,1.1103515625,[0. 0. 0. 0. 0. 0. 0. 0. 0.]
5.042429208755493,0.04627460986375809,0.017047038301825523,-0.9796580672264099,-0.19452029466629028,[0. 0. 0. 0. 0. 0. 0. 0. 0.],5.43212890625,-8.85009765625,-6.53076171875,[0. 0. 0. 0. 0. 0. 0. 0. 0.],-0.13232421875,0.01611328125,0.98681640625,[0. 0. 0. 0. 0. 0. 0. 0. 0.]
5.059098482131958,0.04522695764899254,0.015322758816182613,-0.9795188307762146,-0.19560837745666504,[0. 0. 0. 0. 0. 0. 0. 0. 0.],1.953125,-1.46484375,-7.4462890625,[0. 0. 0. 0. 0. 0. 0. 0. 0.],-0.03515625,0.04345703125,0.95751953125,[0. 0. 0. 0. 0. 0. 0. 0. 0.]
5.075516700744629,0.04423974081873894,0.013107974082231522,-0.9792757034301758,-0.19720587134361267,[0. 0. 0. 0. 0. 0. 0. 0. 0.],5.37109375,4.21142578125,-7.14111328125,[0. 0. 0. 0. 0. 0. 0. 0. 0.],-0.0517578125,0.00732421875,1.01318359375,[0. 0. 0. 0. 0. 0. 0. 0. 0.]
5.094822406768799,0.04362751916050911,0.01171963382512331,-0.9791631102561951,-0.19798704981803894,[0. 0. 0. 0. 0. 0. 0. 0. 0.],-2.685546875,-9.33837890625,-5.859375,[0. 0. 0. 0. 0. 0. 0. 0. 0.],-0.12939453125,0.046875,0.88916015625,[0. 0. 0. 0. 0. 0. 0. 0. 0.]
5.119138717651367,0.04379623010754585,0.011408676393330097,-0.9789456725120544,-0.19904068112373352,[0. 0. 0. 0. 0. 0. 0. 0. 0.],-4.21142578125,8.4228515625,-8.23974609375,[0. 0. 0. 0. 0. 0. 0. 0. 0.],-0.005859375,0.05078125,1.03125,[0. 0. 0. 0. 0. 0. 0. 0. 0.]
5.139326572418213,0.043051157146692276,0.009792583994567394,-0.9787144660949707,-0.20042139291763306,[0. 0. 0. 0. 0. 0. 0. 0. 0.],5.2490234375,-2.13623046875,-7.62939453125,[0. 0. 0. 0. 0. 0. 0. 0. 0.],-0.0859375,0.00537109375,1.21044921875,[0. 0. 0. 0. 0. 0. 0. 0. 0.]
5.159283876419067,0.04275307059288025,0.008258087560534477,-0.9785220623016357,-0.20149098336696625,[0. 0. 0. 0. 0. 0. 0. 0. 0.],-1.64794921875,-4.5166015625,-5.37109375,[0. 0. 0. 0. 0. 0. 0. 0. 0.],-0.11181640625,0.0537109375,0.93017578125,[0. 0. 0. 0. 0. 0. 0. 0. 0.]
5.1795501708984375,0.04170582443475723,0.007425692863762379,-0.9783903956413269,-0.20238035917282104,[0. 0. 0. 0. 0. 0. 0. 0. 0.],-3.90625,-8.72802734375,-6.103515625,[0. 0. 0. 0. 0. 0. 0. 0. 0.],-0.07275390625,0.0322265625,0.833984375,[0. 0. 0. 0. 0. 0. 0. 0. 0.]
5.199254512786865,0.04208547994494438,0.007820232771337032,-0.9781787991523743,-0.20330744981765747,[0. 0. 0. 0. 0. 0. 0. 0. 0.],-12.39013671875,11.71875,-5.55419921875,[0. 0. 0. 0. 0. 0. 0. 0. 0.],-0.00244140625,0.0458984375,0.9072265625,[0. 0. 0. 0. 0. 0. 0. 0. 0.]
5.219159364700317,0.04244373366236687,0.007609960623085499,-0.9780431985855103,-0.2038928121328354,[0. 0. 0. 0. 0. 0. 0. 0. 0.],0.244140625,-3.35693359375,-3.41796875,[0. 0. 0. 0. 0. 0. 0. 0. 0.],-0.1298828125,-0.017578125,1.03564453125,[0. 0. 0. 0. 0. 0. 0. 0. 0.]
5.239392518997192,0.04120394587516785,0.006033336743712425,-0.9779859185218811,-0.20447345077991486,[0. 0. 0. 0. 0. 0. 0. 0. 0.],1.15966796875,-9.09423828125,-4.33349609375,[0. 0. 0. 0. 0. 0. 0. 0. 0.],-0.0771484375,0.0341796875,1.15234375,[0. 0. 0. 0. 0. 0. 0. 0. 0.]
5.259321212768555,0.0399237759411335,0.005262219347059727,-0.977846086025238,-0.20541560649871826,[0. 0. 0. 0. 0. 0. 0. 0. 0.],-2.3193359375,5.4931640625,-6.591796875,[0. 0. 0. 0. 0. 0. 0. 0. 0.],0.03564453125,0.0751953125,1.12451171875,[0. 0. 0. 0. 0. 0. 0. 0. 0.]
5.2793779373168945,0.039396338164806366,0.004272982478141785,-0.9776740670204163,-0.20635689795017242,[0. 0. 0. 0. 0. 0. 0. 0. 0.],1.46484375,-2.197265625,-4.45556640625,[0. 0. 0. 0. 0. 0. 0. 0. 0.],-0.072265625,0.03125,1.01953125,[0. 0. 0. 0. 0. 0. 0. 0. 0.]
5.29972767829895,0.03814653679728508,0.002619762672111392,-0.9775571227073669,-0.20717208087444305,[0. 0. 0. 0. 0. 0. 0. 0. 0.],1.89208984375,-5.37109375,-5.67626953125,[0. 0. 0. 0. 0. 0. 0. 0. 0.],-0.07080078125,0.0302734375,0.95166015625,[0. 0. 0. 0. 0. 0. 0. 0. 0.]
5.3193933963775635,0.03628784418106079,0.0014897063374519348,-0.9773574471473694,-0.20845484733581543,[0. 0. 0. 0. 0. 0. 0. 0. 0.],1.5869140625,-1.89208984375,-8.9111328125,[0. 0. 0. 0. 0. 0. 0. 0. 0.],0.00048828125,0.0390625,0.95458984375,[0. 0. 0. 0. 0. 0. 0. 0. 0.]
5.34127402305603,0.03445049375295639,0.00027052214136347175,-0.9770882725715637,-0.21002791821956635,[0. 0. 0. 0. 0. 0. 0. 0. 0.],4.7607421875,1.15966796875,-9.46044921875,[0. 0. 0. 0. 0. 0. 0. 0. 0.],-0.02197265625,0.01220703125,1.02099609375,[0. 0. 0. 0. 0. 0. 0. 0. 0.]
5.354438066482544,0.03298947587609291,-0.0012308908626437187,-0.9768418669700623,-0.21140064299106598,[0. 0. 0. 0. 0. 0. 0. 0. 0.],-5.31005859375,-7.01904296875,-7.50732421875,[0. 0. 0. 0. 0. 0. 0. 0. 0.],-0.091796875,0.05419921875,0.8974609375,[0. 0. 0. 0. 0. 0. 0. 0. 0.]
5.379204988479614,0.032594140619039536,-0.0019228371093049645,-0.9765416979789734,-0.21283909678459167,[0. 0. 0. 0. 0. 0. 0. 0. 0.],0.0,3.84521484375,-10.19287109375,[0. 0. 0. 0. 0. 0. 0. 0. 0.],0.00146484375,0.03076171875,1.1240234375,[0. 0. 0. 0. 0. 0. 0. 0. 0.]
5.399573087692261,0.030885210260748863,-0.00361798913218081,-0.9762188196182251,-0.21454590559005737,[0. 0. 0. 0. 0. 0. 0. 0. 0.],6.28662109375,-3.90625,-10.3759765625,[0. 0. 0. 0. 0. 0. 0. 0. 0.],-0.07080078125,0.0126953125,1.1484375,[0. 0. 0. 0. 0. 0. 0. 0. 0.]
5.419171333312988,0.030429968610405922,-0.00499770138412714,-0.9758924841880798,-0.21606236696243286,[0. 0. 0. 0. 0. 0. 0. 0. 0.],-2.13623046875,-5.31005859375,-8.85009765625,[0. 0. 0. 0. 0. 0. 0. 0. 0.],-0.078125,0.064453125,0.88427734375,[0. 0. 0. 0. 0. 0. 0. 0. 0.]
5.434910297393799,0.029747962951660156,-0.005717483349144459,-0.9755791425704956,-0.21754927933216095,[0. 0. 0. 0. 0. 0. 0. 0. 0.],-5.615234375,-4.33349609375,-8.48388671875,[0. 0. 0. 0. 0. 0. 0. 0. 0.],-0.05859375,0.025390625,0.83984375,[0. 0. 0. 0. 0. 0. 0. 0. 0.]
5.454378843307495,0.029539240524172783,-0.005673081148415804,-0.9752474427223206,-0.21906089782714844,[0. 0. 0. 0. 0. 0. 0. 0. 0.],-5.92041015625,7.38525390625,-8.72802734375,[0. 0. 0. 0. 0. 0. 0. 0. 0.],-0.0224609375,0.0146484375,0.97265625,[0. 0. 0. 0. 0. 0. 0. 0. 0.]
5.479647636413574,0.030520226806402206,-0.0060579306446015835,-0.9749692678451538,-0.22015149891376495,[0. 0. 0. 0. 0. 0. 0. 0. 0.],4.39453125,-2.197265625,-5.31005859375,[0. 0. 0. 0. 0. 0. 0. 0. 0.],-0.126953125,-0.005859375,1.0400390625,[0. 0. 0. 0. 0. 0. 0. 0. 0.]
5.499406337738037,0.02934393100440502,-0.007269995752722025,-0.974759042263031,-0.22120323777198792,[0. 0. 0. 0. 0. 0. 0. 0. 0.],4.5166015625,-7.6904296875,-6.28662109375,[0. 0. 0. 0. 0. 0. 0. 0. 0.],-0.068359375,0.0498046875,1.1220703125,[0. 0. 0. 0. 0. 0. 0. 0. 0.]
5.5145556926727295,0.028638146817684174,-0.00819810014218092,-0.9744653105735779,-0.22255343198776245,[0. 0. 0. 0. 0. 0. 0. 0. 0.],-0.8544921875,7.99560546875,-8.4228515625,[0. 0. 0. 0. 0. 0. 0. 0. 0.],0.03173828125,0.0693359375,1.08349609375,[0. 0. 0. 0. 0. 0. 0. 0. 0.]
5.537680387496948,0.028384979814291,-0.009516737423837185,-0.9742428064346313,-0.22350534796714783,[0. 0. 0. 0. 0. 0. 0. 0. 0.],4.82177734375,-7.080078125,-4.150390625,[0. 0. 0. 0. 0. 0. 0. 0. 0.],-0.1337890625,0.0126953125,1.0068359375,[0. 0. 0. 0. 0. 0. 0. 0. 0.]
5.559309959411621,0.02824099361896515,-0.010702703148126602,-0.9740827083587646,-0.22416694462299347,[0. 0. 0. 0. 0. 0. 0. 0. 0.],-0.48828125,-1.708984375,-3.47900390625,[0. 0. 0. 0. 0. 0. 0. 0. 0.],-0.06201171875,0.0439453125,0.9091796875,[0. 0. 0. 0. 0. 0. 0. 0. 0.]
5.579205274581909,0.026657911017537117,-0.011946656741201878,-0.973926305770874,-0.224976047873497,[0. 0. 0. 0. 0. 0. 0. 0. 0.],1.15966796875,-3.41796875,-4.69970703125,[0. 0. 0. 0. 0. 0. 0. 0. 0.],-0.05029296875,0.0263671875,0.9609375,[0. 0. 0. 0. 0. 0. 0. 0. 0.]
5.59519100189209,0.025516849011182785,-0.011965710669755936,-0.9737472534179688,-0.22588051855564117,[0. 0. 0. 0. 0. 0. 0. 0. 0.],6.77490234375,-0.1220703125,-4.08935546875,[0. 0. 0. 0. 0. 0. 0. 0. 0.],-0.05126953125,0.00244140625,1.02392578125,[0. 0. 0. 0. 0. 0. 0. 0. 0.]
5.619696378707886,0.02557028830051422,-0.012838241644203663,-0.9736542701721191,-0.22622708976268768,[0. 0. 0. 0. 0. 0. 0. 0. 0.],-5.67626953125,-6.28662109375,-1.3427734375,[0. 0. 0. 0. 0. 0. 0. 0. 0.],-0.095703125,0.06103515625,0.88916015625,[0. 0. 0. 0. 0. 0. 0. 0. 0.]
5.638956069946289,0.024680642411112785,-0.013524799607694149,-0.9735727906227112,-0.22663633525371552,[0. 0. 0. 0. 0. 0. 0. 0. 0.],6.40869140625,1.0986328125,-3.0517578125,[0. 0. 0. 0. 0. 0. 0. 0. 0.],0.0048828125,0.015625,1.20947265625,[0. 0. 0. 0. 0. 0. 0. 0. 0.]
5.6543402671813965,0.023309817537665367,-0.014490329660475254,-0.9734525680541992,-0.22723735868930817,[0. 0. 0. 0. 0. 0. 0. 0. 0.],5.31005859375,-3.173828125,-2.9296875,[0. 0. 0. 0. 0. 0. 0. 0. 0.],-0.06201171875,0.0263671875,1.091796875,[0. 0. 0. 0. 0. 0. 0. 0. 0.]
5.683477878570557,0.023190919309854507,-0.015548931434750557,-0.9733850359916687,-0.22746877372264862,[0. 0. 0. 0. 0. 0. 0. 0. 0.],-4.82177734375,-4.21142578125,-1.953125,[0. 0. 0. 0. 0. 0. 0. 0. 0.],-0.064453125,0.06884765625,0.830078125,[0. 0. 0. 0. 0. 0. 0. 0. 0.]
5.694164037704468,0.02288052625954151,-0.015638843178749084,-0.9733696579933167,-0.22755979001522064,[0. 0. 0. 0. 0. 0. 0. 0. 0.],-8.4228515625,-3.0517578125,-0.8544921875,[0. 0. 0. 0. 0. 0. 0. 0. 0.],-0.0439453125,0.0244140625,0.8115234375,[0. 0. 0. 0. 0. 0. 0. 0. 0.]
5.719212770462036,0.022215930745005608,-0.013843641616404057,-0.9733504056930542,-0.227824404835701,[0. 0. 0. 0. 0. 0. 0. 0. 0.],-5.2490234375,5.37109375,-1.46484375,[0. 0. 0. 0. 0. 0. 0. 0. 0.],0.00146484375,0.00146484375,0.9951171875,[0. 0. 0. 0. 0. 0. 0. 0. 0.]
5.740681886672974,0.022629613056778908,-0.012813574634492397,-0.9734022617340088,-0.2276218682527542,[0. 0. 0. 0. 0. 0. 0. 0. 0.],3.7841796875,-5.18798828125,2.01416015625,[0. 0. 0. 0. 0. 0. 0. 0. 0.],-0.0810546875,0.00341796875,1.08349609375,[0. 0. 0. 0. 0. 0. 0. 0. 0.]
5.754194736480713,0.02175811491906643,-0.013474610634148121,-0.973433792591095,-0.22753427922725677,[0. 0. 0. 0. 0. 0. 0. 0. 0.],2.0751953125,-8.97216796875,0.42724609375,[0. 0. 0. 0. 0. 0. 0. 0. 0.],-0.0654296875,0.0341796875,1.142578125,[0. 0. 0. 0. 0. 0. 0. 0. 0.]
5.782309532165527,0.020629113540053368,-0.01416841521859169,-0.9733839631080627,-0.22781001031398773,[0. 0. 0. 0. 0. 0. 0. 0. 0.],-2.44140625,5.79833984375,-1.953125,[0. 0. 0. 0. 0. 0. 0. 0. 0.],0.0458984375,0.072265625,1.07666015625,[0. 0. 0. 0. 0. 0. 0. 0. 0.]
5.8068742752075195,0.020496558398008347,-0.01482782606035471,-0.9733651876449585,-0.22786030173301697,[0. 0. 0. 0. 0. 0. 0. 0. 0.],2.62451171875,-1.8310546875,0.67138671875,[0. 0. 0. 0. 0. 0. 0. 0. 0.],-0.08056640625,0.01318359375,1.00732421875,[0. 0. 0. 0. 0. 0. 0. 0. 0.]
5.8144755363464355,0.021066641435027122,-0.01563185639679432,-0.9733700156211853,-0.22773391008377075,[0. 0. 0. 0. 0. 0. 0. 0. 0.],0.0,-0.48828125,0.6103515625,[0. 0. 0. 0. 0. 0. 0. 0. 0.],-0.048828125,0.0283203125,0.93212890625,[0. 0. 0. 0. 0. 0. 0. 0. 0.]
5.8393754959106445,0.01969231106340885,-0.01644725166261196,-0.9734126329421997,-0.2276173084974289,[0. 0. 0. 0. 0. 0. 0. 0. 0.],-0.18310546875,-1.77001953125,0.06103515625,[0. 0. 0. 0. 0. 0. 0. 0. 0.],-0.0224609375,0.0380859375,0.939453125,[0. 0. 0. 0. 0. 0. 0. 0. 0.]
5.854296445846558,0.017852801829576492,-0.015919651836156845,-0.9733981490135193,-0.22786833345890045,[0. 0. 0. 0. 0. 0. 0. 0. 0.],3.11279296875,1.89208984375,-1.220703125,[0. 0. 0. 0. 0. 0. 0. 0. 0.],-0.005859375,-0.00244140625,1.02880859375,[0. 0. 0. 0. 0. 0. 0. 0. 0.]
5.879801511764526,0.018294738605618477,-0.013424502685666084,-0.9734298586845398,-0.22785870730876923,[0. 0. 0. 0. 0. 0. 0. 0. 0.],-11.04736328125,-2.685546875,0.54931640625,[0. 0. 0. 0. 0. 0. 0. 0. 0.],-0.06103515625,-0.07666015625,0.84912109375,[0. 0. 0. 0. 0. 0. 0. 0. 0.]
5.899733543395996,0.019314000383019447,-0.010207044892013073,-0.9733975529670715,-0.22807924449443817,[0. 0. 0. 0. 0. 0. 0. 0. 0.],1.220703125,2.8076171875,-0.9765625,[0. 0. 0. 0. 0. 0. 0. 0. 0.],0.0146484375,-0.2158203125,1.2265625,[0. 0. 0. 0. 0. 0. 0. 0. 0.]
5.919387102127075,0.019144926220178604,-0.009059877134859562,-0.9733160138130188,-0.22848930954933167,[0. 0. 0. 0. 0. 0. 0. 0. 0.],2.0751953125,-4.638671875,-2.86865234375,[0. 0. 0. 0. 0. 0. 0. 0. 0.],-0.04150390625,-0.2197265625,1.08447265625,[0. 0. 0. 0. 0. 0. 0. 0. 0.]
5.939064025878906,0.01872408203780651,-0.006395548582077026,-0.9732425212860107,-0.2289271056652069,[0. 0. 0. 0. 0. 0. 0. 0. 0.],-10.68115234375,-6.65283203125,-2.197265625,[0. 0. 0. 0. 0. 0. 0. 0. 0.],-0.04150390625,-0.1640625,0.80908203125,[0. 0. 0. 0. 0. 0. 0. 0. 0.]
5.959268569946289,0.018620038405060768,-0.00157172663602978,-0.9734521508216858,-0.2281266301870346,[0. 0. 0. 0. 0. 0. 0. 0. 0.],-19.1650390625,-10.43701171875,9.94873046875,[0. 0. 0. 0. 0. 0. 0. 0. 0.],-0.0224609375,-0.2138671875,0.78564453125,[0. 0. 0. 0. 0. 0. 0. 0. 0.]
5.979205369949341,0.01836603693664074,0.002916918136179447,-0.9743286371231079,-0.22436125576496124,[0. 0. 0. 0. 0. 0. 0. 0. 0.],-16.78466796875,-7.14111328125,26.123046875,[0. 0. 0. 0. 0. 0. 0. 0. 0.],0.06201171875,-0.3271484375,1.10107421875,[0. 0. 0. 0. 0. 0. 0. 0. 0.]
5.999178886413574,0.015252449549734592,0.005221304018050432,-0.9757418632507324,-0.21833008527755737,[0. 0. 0. 0. 0. 0. 0. 0. 0.],5.9814453125,-26.9775390625,41.56494140625,[0. 0. 0. 0. 0. 0. 0. 0. 0.],0.02099609375,-0.3798828125,1.2177734375,[0. 0. 0. 0. 0. 0. 0. 0. 0.]
6.021322727203369,0.0116683105006814,0.006705135572701693,-0.9777591228485107,-0.20929895341396332,[0. 0. 0. 0. 0. 0. 0. 0. 0.],-0.3662109375,-11.41357421875,59.4482421875,[0. 0. 0. 0. 0. 0. 0. 0. 0.],0.15087890625,-0.2607421875,1.11328125,[0. 0. 0. 0. 0. 0. 0. 0. 0.]
6.039370536804199,0.011277751997113228,0.007863806560635567,-0.9801899790763855,-0.19758209586143494,[0. 0. 0. 0. 0. 0. 0. 0. 0.],-1.28173828125,5.859375,74.27978515625,[0. 0. 0. 0. 0. 0. 0. 0. 0.],0.2001953125,-0.23876953125,1.0,[0. 0. 0. 0. 0. 0. 0. 0. 0.]
6.059220552444458,0.009883238933980465,0.009141727350652218,-0.9829641580581665,-0.18330346047878265,[0. 0. 0. 0. 0. 0. 0. 0. 0.],0.732421875,-14.70947265625,88.2568359375,[0. 0. 0. 0. 0. 0. 0. 0. 0.],0.00048828125,-0.24462890625,0.83935546875,[0. 0. 0. 0. 0. 0. 0. 0. 0.]
6.074386358261108,0.00789724849164486,0.010102166794240475,-0.9859421253204346,-0.16659484803676605,[0. 0. 0. 0. 0. 0. 0. 0. 0.],7.4462890625,-7.50732421875,100.830078125,[0. 0. 0. 0. 0. 0. 0. 0. 0.],0.18017578125,-0.27001953125,1.0537109375,[0. 0. 0. 0. 0. 0. 0. 0. 0.]
6.09421706199646,0.00637183990329504,0.01112598180770874,-0.9889584183692932,-0.14763791859149933,[0. 0. 0. 0. 0. 0. 0. 0. 0.],-3.84521484375,1.8310546875,117.0654296875,[0. 0. 0. 0. 0. 0. 0. 0. 0.],0.16748046875,-0.1513671875,0.8134765625,[0. 0. 0. 0. 0. 0. 0. 0. 0.]
6.119450569152832,0.0036050763446837664,0.014166271314024925,-0.9918957948684692,-0.12621049582958221,[0. 0. 0. 0. 0. 0. 0. 0. 0.],-5.79833984375,-18.73779296875,129.638671875,[0. 0. 0. 0. 0. 0. 0. 0. 0.],0.0966796875,-0.224609375,0.89111328125,[0. 0. 0. 0. 0. 0. 0. 0. 0.]
6.1394665241241455,0.0012257008347660303,0.016312528401613235,-0.9945337176322937,-0.10312613099813461,[0. 0. 0. 0. 0. 0. 0. 0. 0.],2.13623046875,-12.14599609375,133.544921875,[0. 0. 0. 0. 0. 0. 0. 0. 0.],0.31494140625,-0.38623046875,1.2724609375,[0. 0. 0. 0. 0. 0. 0. 0. 0.]
6.159090518951416,-0.00025889702374115586,0.016278041526675224,-0.9967438578605652,-0.07897279411554337,[0. 0. 0. 0. 0. 0. 0. 0. 0.],6.53076171875,0.1220703125,141.29638671875,[0. 0. 0. 0. 0. 0. 0. 0. 0.],0.3291015625,-0.326171875,1.15966796875,[0. 0. 0. 0. 0. 0. 0. 0. 0.]
6.180606126785278,-0.004063700325787067,0.015954138711094856,-0.9984400868415833,-0.053351737558841705,[0. 0. 0. 0. 0. 0. 0. 0. 0.],6.4697265625,-23.0712890625,149.7802734375,[0. 0. 0. 0. 0. 0. 0. 0. 0.],0.1748046875,-0.26416015625,0.88232421875,[0. 0. 0. 0. 0. 0. 0. 0. 0.]
6.200978755950928,-0.004255227278918028,0.016482273116707802,-0.9995219111442566,-0.025812163949012756,[0. 0. 0. 0. 0. 0. 0. 0. 0.],4.39453125,7.568359375,159.97314453125,[0. 0. 0. 0. 0. 0. 0. 0. 0.],0.3154296875,-0.2265625,0.93896484375,[0. 0. 0. 0. 0. 0. 0. 0. 0.]
6.21414041519165,-0.007135109044611454,0.018501292914152145,-0.9997974038124084,0.003463892498984933,[0. 0. 0. 0. 0. 0. 0. 0. 0.],-8.97216796875,-35.64453125,168.5791015625,[0. 0. 0. 0. 0. 0. 0. 0. 0.],0.03271484375,-0.1982421875,0.634765625,[0. 0. 0. 0. 0. 0. 0. 0. 0.]
6.239313125610352,-0.012310956604778767,0.020067576318979263,-0.9991441965103149,0.03401176258921623,[0. 0. 0. 0. 0. 0. 0. 0. 0.],0.30517578125,-12.3291015625,177.24609375,[0. 0. 0. 0. 0. 0. 0. 0. 0.],0.39501953125,-0.36328125,1.1103515625,[0. 0. 0. 0. 0. 0. 0. 0. 0.]
6.259544849395752,-0.013152625411748886,0.019695114344358444,-0.9975744485855103,0.0654556155204773,[0. 0. 0. 0. 0. 0. 0. 0. 0.],12.5732421875,-7.62939453125,181.82373046875,[0. 0. 0. 0. 0. 0. 0. 0. 0.],0.4658203125,-0.36669921875,1.2275390625,[0. 0. 0. 0. 0. 0. 0. 0. 0.]
6.279507160186768,-0.016748545691370964,0.01912125200033188,-0.994914174079895,0.09746676683425903,[0. 0. 0. 0. 0. 0. 0. 0. 0.],11.65771484375,-18.12744140625,186.6455078125,[0. 0. 0. 0. 0. 0. 0. 0. 0.],0.32666015625,-0.30322265625,1.02099609375,[0. 0. 0. 0. 0. 0. 0. 0. 0.]
6.2997260093688965,-0.016208244487643242,0.019299380481243134,-0.9910763502120972,0.13089120388031006,[0. 0. 0. 0. 0. 0. 0. 0. 0.],-4.08935546875,18.4326171875,197.3876953125,[0. 0. 0. 0. 0. 0. 0. 0. 0.],0.388671875,-0.203125,0.82421875,[0. 0. 0. 0. 0. 0. 0. 0. 0.]
6.319318056106567,-0.022064631804823875,0.020658649504184723,-0.9858656525611877,0.1647888720035553,[0. 0. 0. 0. 0. 0. 0. 0. 0.],4.39453125,-51.45263671875,198.42529296875,[0. 0. 0. 0. 0. 0. 0. 0. 0.],0.1201171875,-0.30908203125,0.7763671875,[0. 0. 0. 0. 0. 0. 0. 0. 0.]
6.3391289710998535,-0.02493952214717865,0.02217160351574421,-0.9792540669441223,0.19986967742443085,[0. 0. 0. 0. 0. 0. 0. 0. 0.],4.57763671875,3.47900390625,207.45849609375,[0. 0. 0. 0. 0. 0. 0. 0. 0.],0.52685546875,-0.3818359375,1.10986328125,[0. 0. 0. 0. 0. 0. 0. 0. 0.]
6.359748125076294,-0.027167504653334618,0.021172935143113136,-0.9714736342430115,0.23463279008865356,[0. 0. 0. 0. 0. 0. 0. 0. 0.],14.95361328125,-29.96826171875,203.369140625,[0. 0. 0. 0. 0. 0. 0. 0. 0.],0.40380859375,-0.42236328125,1.14306640625,[0. 0. 0. 0. 0. 0. 0. 0. 0.]
6.380581378936768,-0.028057783842086792,0.02025808021426201,-0.9620944261550903,0.2705119848251343,[0. 0. 0. 0. 0. 0. 0. 0. 0.],7.6904296875,-6.04248046875,214.111328125,[0. 0. 0. 0. 0. 0. 0. 0. 0.],0.392578125,-0.283203125,0.86083984375,[0. 0. 0. 0. 0. 0. 0. 0. 0.]
6.399355411529541,-0.03210016340017319,0.0192257147282362,-0.9511227607727051,0.3065379858016968,[0. 0. 0. 0. 0. 0. 0. 0. 0.],9.94873046875,-33.02001953125,214.90478515625,[0. 0. 0. 0. 0. 0. 0. 0. 0.],0.31982421875,-0.29638671875,0.841796875,[0. 0. 0. 0. 0. 0. 0. 0. 0.]
6.420284032821655,-0.03580724820494652,0.01845867931842804,-0.938589870929718,0.34267520904541016,[0. 0. 0. 0. 0. 0. 0. 0. 0.],4.0283203125,-8.1787109375,218.994140625,[0. 0. 0. 0. 0. 0. 0. 0. 0.],0.58642578125,-0.2890625,0.994140625,[0. 0. 0. 0. 0. 0. 0. 0. 0.]
6.439141750335693,-0.03593709319829941,0.017890704795718193,-0.925121545791626,0.3775427043437958,[0. 0. 0. 0. 0. 0. 0. 0. 0.],6.28662109375,21.78955078125,213.9892578125,[0. 0. 0. 0. 0. 0. 0. 0. 0.],0.703125,-0.2939453125,1.1123046875,[0. 0. 0. 0. 0. 0. 0. 0. 0.]
6.459179639816284,-0.03671836480498314,0.01744965836405754,-0.910325288772583,0.41189220547676086,[0. 0. 0. 0. 0. 0. 0. 0. 0.],5.9814453125,-6.2255859375,213.623046875,[0. 0. 0. 0. 0. 0. 0. 0. 0.],0.4765625,-0.24609375,0.81982421875,[0. 0. 0. 0. 0. 0. 0. 0. 0.]
6.47901177406311,-0.04052004590630531,0.01699906587600708,-0.8945376873016357,0.4448275566101074,[0. 0. 0. 0. 0. 0. 0. 0. 0.],-1.03759765625,-25.69580078125,207.763671875,[0. 0. 0. 0. 0. 0. 0. 0. 0.],0.55908203125,-0.28515625,0.935546875,[0. 0. 0. 0. 0. 0. 0. 0. 0.]
6.499423503875732,-0.04319743067026138,0.01751399226486683,-0.8780322670936584,0.4763261079788208,[0. 0. 0. 0. 0. 0. 0. 0. 0.],5.2490234375,-8.36181640625,202.20947265625,[0. 0. 0. 0. 0. 0. 0. 0. 0.],0.5908203125,-0.27490234375,0.8828125,[0. 0. 0. 0. 0. 0. 0. 0. 0.]
6.525410890579224,-0.044842980802059174,0.01640218310058117,-0.861168622970581,0.5060719847679138,[0. 0. 0. 0. 0. 0. 0. 0. 0.],12.451171875,-12.3291015625,193.2373046875,[0. 0. 0. 0. 0. 0. 0. 0. 0.],0.626953125,-0.33447265625,1.0673828125,[0. 0. 0. 0. 0. 0. 0. 0. 0.]
6.53507399559021,-0.04505079239606857,0.014802547171711922,-0.8439379334449768,0.5343408584594727,[0. 0. 0. 0. 0. 0. 0. 0. 0.],15.625,1.46484375,189.75830078125,[0. 0. 0. 0. 0. 0. 0. 0. 0.],0.69775390625,-0.26806640625,1.07275390625,[0. 0. 0. 0. 0. 0. 0. 0. 0.]
6.559022903442383,-0.04617481678724289,0.015051201917231083,-0.8256980180740356,0.5620179176330566,[0. 0. 0. 0. 0. 0. 0. 0. 0.],-0.1220703125,-17.578125,187.98828125,[0. 0. 0. 0. 0. 0. 0. 0. 0.],0.5400390625,-0.1865234375,0.8447265625,[0. 0. 0. 0. 0. 0. 0. 0. 0.]
6.579142093658447,-0.048536740243434906,0.014235766604542732,-0.8069577813148499,0.5884391665458679,[0. 0. 0. 0. 0. 0. 0. 0. 0.],6.34765625,-12.87841796875,183.41064453125,[0. 0. 0. 0. 0. 0. 0. 0. 0.],0.6982421875,-0.26611328125,1.07080078125,[0. 0. 0. 0. 0. 0. 0. 0. 0.]
6.599326848983765,-0.05082964897155762,0.013273593038320541,-0.7880069017410278,0.6134209632873535,[0. 0. 0. 0. 0. 0. 0. 0. 0.],9.21630859375,-11.90185546875,178.955078125,[0. 0. 0. 0. 0. 0. 0. 0. 0.],0.58935546875,-0.232421875,0.89208984375,[0. 0. 0. 0. 0. 0. 0. 0. 0.]
6.619528770446777,-0.05132434144616127,0.0142093226313591,-0.7683921456336975,0.6377596855163574,[0. 0. 0. 0. 0. 0. 0. 0. 0.],-2.13623046875,-4.21142578125,178.7109375,[0. 0. 0. 0. 0. 0. 0. 0. 0.],0.560546875,-0.18212890625,0.80126953125,[0. 0. 0. 0. 0. 0. 0. 0. 0.]
6.640648365020752,-0.054095424711704254,0.013254787772893906,-0.74872225522995,0.660539984703064,[0. 0. 0. 0. 0. 0. 0. 0. 0.],2.25830078125,-15.68603515625,166.6259765625,[0. 0. 0. 0. 0. 0. 0. 0. 0.],0.7236328125,-0.267578125,1.11767578125,[0. 0. 0. 0. 0. 0. 0. 0. 0.]
6.659322500228882,-0.05279304459691048,0.01308575551956892,-0.7304990291595459,0.6807444095611572,[0. 0. 0. 0. 0. 0. 0. 0. 0.],15.07568359375,19.04296875,151.06201171875,[0. 0. 0. 0. 0. 0. 0. 0. 0.],0.8515625,-0.22265625,1.14208984375,[0. 0. 0. 0. 0. 0. 0. 0. 0.]
6.675711393356323,-0.051814138889312744,0.01372733898460865,-0.7084017395973206,0.70377117395401,[0. 0. 0. 0. 0. 0. 0. 0. 0.],-2.685546875,-22.03369140625,140.9912109375,[0. 0. 0. 0. 0. 0. 0. 0. 0.],0.3974609375,-0.1181640625,0.71142578125,[0. 0. 0. 0. 0. 0. 0. 0. 0.]
6.699224233627319,-0.05373102053999901,0.012371226213872433,-0.6961603164672852,0.7157658338546753,[0. 0. 0. 0. 0. 0. 0. 0. 0.],-0.67138671875,-2.86865234375,125.1220703125,[0. 0. 0. 0. 0. 0. 0. 0. 0.],0.65625,-0.17431640625,0.9990234375,[0. 0. 0. 0. 0. 0. 0. 0. 0.]
6.719310522079468,-0.05229231342673302,0.013017279095947742,-0.6825863122940063,0.7288155555725098,[0. 0. 0. 0. 0. 0. 0. 0. 0.],9.521484375,4.8828125,97.59521484375,[0. 0. 0. 0. 0. 0. 0. 0. 0.],0.77490234375,-0.1083984375,1.12646484375,[0. 0. 0. 0. 0. 0. 0. 0. 0.]
6.743237495422363,-0.0536893755197525,0.009936671704053879,-0.670082151889801,0.7402760982513428,[0. 0. 0. 0. 0. 0. 0. 0. 0.],0.79345703125,-2.685546875,66.650390625,[0. 0. 0. 0. 0. 0. 0. 0. 0.],0.57666015625,-0.03515625,0.818359375,[0. 0. 0. 0. 0. 0. 0. 0. 0.]
6.759523153305054,-0.054400522261857986,0.009584740735590458,-0.6646246314048767,0.7451328039169312,[0. 0. 0. 0. 0. 0. 0. 0. 0.],-0.91552734375,-4.2724609375,50.10986328125,[0. 0. 0. 0. 0. 0. 0. 0. 0.],0.603515625,-0.04248046875,0.8798828125,[0. 0. 0. 0. 0. 0. 0. 0. 0.]
6.7795090675354,-0.05511648952960968,0.007139456924051046,-0.6598877310752869,0.7493060231208801,[0. 0. 0. 0. 0. 0. 0. 0. 0.],8.72802734375,-7.62939453125,26.91650390625,[0. 0. 0. 0. 0. 0. 0. 0. 0.],0.6845703125,-0.07861328125,1.080078125,[0. 0. 0. 0. 0. 0. 0. 0. 0.]
6.799205780029297,-0.05454336479306221,0.005221838131546974,-0.657971978187561,0.7510464191436768,[0. 0. 0. 0. 0. 0. 0. 0. 0.],9.09423828125,-2.8076171875,7.38525390625,[0. 0. 0. 0. 0. 0. 0. 0. 0.],0.72314453125,-0.0283203125,1.13818359375,[0. 0. 0. 0. 0. 0. 0. 0. 0.]
6.818059921264648,-0.05369027704000473,0.0038866878021508455,-0.6584402322769165,0.7507054805755615,[0. 0. 0. 0. 0. 0. 0. 0. 0.],7.62939453125,13.18359375,-9.6435546875,[0. 0. 0. 0. 0. 0. 0. 0. 0.],0.65576171875,0.0078125,1.0224609375,[0. 0. 0. 0. 0. 0. 0. 0. 0.]
6.835438251495361,-0.05203551799058914,0.0029056898783892393,-0.6610559821128845,0.7485244274139404,[0. 0. 0. 0. 0. 0. 0. 0. 0.],7.62939453125,1.953125,-25.69580078125,[0. 0. 0. 0. 0. 0. 0. 0. 0.],0.50439453125,0.03662109375,0.86767578125,[0. 0. 0. 0. 0. 0. 0. 0. 0.]
6.859344959259033,-0.05201341211795807,0.0011306654196232557,-0.6658807992935181,0.7442419528961182,[0. 0. 0. 0. 0. 0. 0. 0. 0.],0.67138671875,-0.1220703125,-44.73876953125,[0. 0. 0. 0. 0. 0. 0. 0. 0.],0.49951171875,0.0908203125,0.86669921875,[0. 0. 0. 0. 0. 0. 0. 0. 0.]
6.879060506820679,-0.05187024176120758,-0.0014816359616816044,-0.6732805371284485,0.737563967704773,[0. 0. 0. 0. 0. 0. 0. 0. 0.],9.1552734375,0.91552734375,-66.7724609375,[0. 0. 0. 0. 0. 0. 0. 0. 0.],0.56103515625,0.080078125,1.046875,[0. 0. 0. 0. 0. 0. 0. 0. 0.]
6.900310039520264,-0.04798117280006409,-0.0025949631817638874,-0.6874216794967651,0.7246671915054321,[0. 0. 0. 0. 0. 0. 0. 0. 0.],11.65771484375,21.30126953125,-95.03173828125,[0. 0. 0. 0. 0. 0. 0. 0. 0.],0.41796875,0.12353515625,1.11328125,[0. 0. 0. 0. 0. 0. 0. 0. 0.]
6.919346570968628,-0.04449544474482536,-0.0035880107898265123,-0.6967917680740356,0.7158831357955933,[0. 0. 0. 0. 0. 0. 0. 0. 0.],16.54052734375,16.17431640625,-99.79248046875,[0. 0. 0. 0. 0. 0. 0. 0. 0.],0.11376953125,0.20068359375,1.01806640625,[0. 0. 0. 0. 0. 0. 0. 0. 0.]
6.940016508102417,-0.03914791718125343,-0.004505311604589224,-0.7096027135848999,0.7034992575645447,[0. 0. 0. 0. 0. 0. 0. 0. 0.],15.80810546875,21.30126953125,-103.69873046875,[0. 0. 0. 0. 0. 0. 0. 0. 0.],-0.07568359375,0.2744140625,0.94677734375,[0. 0. 0. 0. 0. 0. 0. 0. 0.]
6.96003794670105,-0.03394880145788193,-0.0034558295737951994,-0.722523033618927,0.6905041337013245,[0. 0. 0. 0. 0. 0. 0. 0. 0.],1.40380859375,20.69091796875,-104.3701171875,[0. 0. 0. 0. 0. 0. 0. 0. 0.],-0.16357421875,0.34716796875,0.84130859375,[0. 0. 0. 0. 0. 0. 0. 0. 0.]
6.974622488021851,-0.030382828786969185,-0.004388703964650631,-0.735421895980835,0.676913857460022,[0. 0. 0. 0. 0. 0. 0. 0. 0.],7.32421875,4.8828125,-106.93359375,[0. 0. 0. 0. 0. 0. 0. 0. 0.],-0.21240234375,0.306640625,0.962890625,[0. 0. 0. 0. 0. 0. 0. 0. 0.]
6.999338388442993,-0.027217557653784752,-0.004902487620711327,-0.7477425336837769,0.6634125709533691,[0. 0. 0. 0. 0. 0. 0. 0. 0.],2.99072265625,12.14599609375,-104.248046875,[0. 0. 0. 0. 0. 0. 0. 0. 0.],-0.16357421875,0.3369140625,1.02001953125,[0. 0. 0. 0. 0. 0. 0. 0. 0.]
7.019124507904053,-0.023509474471211433,-0.004870950244367123,-0.7595216631889343,0.6500388979911804,[0. 0. 0. 0. 0. 0. 0. 0. 0.],3.47900390625,6.8359375,-101.1962890625,[0. 0. 0. 0. 0. 0. 0. 0. 0.],-0.2119140625,0.34228515625,1.041015625,[0. 0. 0. 0. 0. 0. 0. 0. 0.]
7.039213418960571,-0.021674321964383125,-0.005523864645510912,-0.7707620859146118,0.636730432510376,[0. 0. 0. 0. 0. 0. 0. 0. 0.],-0.1220703125,2.50244140625,-98.32763671875,[0. 0. 0. 0. 0. 0. 0. 0. 0.],-0.25390625,0.36376953125,1.03466796875,[0. 0. 0. 0. 0. 0. 0. 0. 0.]
7.059006452560425,-0.0193758737295866,-0.006179247051477432,-0.781527578830719,0.6235391497612,[0. 0. 0. 0. 0. 0. 0. 0. 0.],3.7841796875,7.568359375,-96.13037109375,[0. 0. 0. 0. 0. 0. 0. 0. 0.],-0.1591796875,0.3134765625,1.0126953125,[0. 0. 0. 0. 0. 0. 0. 0. 0.]
7.079034805297852,-0.016927646473050117,-0.007357891649007797,-0.7918161153793335,0.6104806661605835,[0. 0. 0. 0. 0. 0. 0. 0. 0.],4.150390625,-3.0517578125,-93.8720703125,[0. 0. 0. 0. 0. 0. 0. 0. 0.],-0.20703125,0.31005859375,0.93798828125,[0. 0. 0. 0. 0. 0. 0. 0. 0.]
7.099186182022095,-0.015308419242501259,-0.007672903593629599,-0.8015946745872498,0.5976227521896362,[0. 0. 0. 0. 0. 0. 0. 0. 0.],-4.0283203125,3.47900390625,-90.8203125,[0. 0. 0. 0. 0. 0. 0. 0. 0.],-0.18505859375,0.3525390625,0.9150390625,[0. 0. 0. 0. 0. 0. 0. 0. 0.]
7.119359970092773,-0.013368437066674232,-0.008041505701839924,-0.8107308745384216,0.5852112770080566,[0. 0. 0. 0. 0. 0. 0. 0. 0.],-0.18310546875,3.47900390625,-85.3271484375,[0. 0. 0. 0. 0. 0. 0. 0. 0.],-0.197265625,0.314453125,1.0390625,[0. 0. 0. 0. 0. 0. 0. 0. 0.]
7.139673948287964,-0.011418935842812061,-0.008576336316764355,-0.8190223574638367,0.5735838413238525,[0. 0. 0. 0. 0. 0. 0. 0. 0.],1.0986328125,2.3193359375,-80.99365234375,[0. 0. 0. 0. 0. 0. 0. 0. 0.],-0.20849609375,0.33154296875,1.05224609375,[0. 0. 0. 0. 0. 0. 0. 0. 0.]
7.1551597118377686,-0.009623774327337742,-0.00912268366664648,-0.8267027735710144,0.5624827146530151,[0. 0. 0. 0. 0. 0. 0. 0. 0.],0.18310546875,2.685546875,-76.0498046875,[0. 0. 0. 0. 0. 0. 0. 0. 0.],-0.19580078125,0.33984375,1.02587890625,[0. 0. 0. 0. 0. 0. 0. 0. 0.]
7.179241895675659,-0.007973234169185162,-0.009355801157653332,-0.8337579965591431,0.5519932508468628,[0. 0. 0. 0. 0. 0. 0. 0. 0.],-1.708984375,2.13623046875,-70.73974609375,[0. 0. 0. 0. 0. 0. 0. 0. 0.],-0.1865234375,0.322265625,0.97802734375,[0. 0. 0. 0. 0. 0. 0. 0. 0.]
7.199303865432739,-0.006672166287899017,-0.009771553799510002,-0.8401424884796143,0.5422366857528687,[0. 0. 0. 0. 0. 0. 0. 0. 0.],-0.30517578125,-0.54931640625,-64.02587890625,[0. 0. 0. 0. 0. 0. 0. 0. 0.],-0.18505859375,0.3173828125,1.01220703125,[0. 0. 0. 0. 0. 0. 0. 0. 0.]
7.219450235366821,-0.0051875910721719265,-0.010550708509981632,-0.8458187580108643,0.5333408117294312,[0. 0. 0. 0. 0. 0. 0. 0. 0.],1.220703125,-1.03759765625,-57.80029296875,[0. 0. 0. 0. 0. 0. 0. 0. 0.],-0.1572265625,0.3173828125,1.05712890625,[0. 0. 0. 0. 0. 0. 0. 0. 0.]
7.239985704421997,-0.004079890437424183,-0.011258264072239399,-0.850816011428833,0.5253273844718933,[0. 0. 0. 0. 0. 0. 0. 0. 0.],-1.28173828125,-2.3193359375,-52.001953125,[0. 0. 0. 0. 0. 0. 0. 0. 0.],-0.15185546875,0.3095703125,1.00732421875,[0. 0. 0. 0. 0. 0. 0. 0. 0.]
7.259320974349976,-0.003702169982716441,-0.0123667037114501,-0.8550921082496643,0.518315315246582,[0. 0. 0. 0. 0. 0. 0. 0. 0.],-2.3193359375,-3.72314453125,-44.49462890625,[0. 0. 0. 0. 0. 0. 0. 0. 0.],-0.11279296875,0.30859375,0.9775390625,[0. 0. 0. 0. 0. 0. 0. 0. 0.]
7.279905319213867,-0.0028936476446688175,-0.013571935705840588,-0.8587005138397217,0.512289822101593,[0. 0. 0. 0. 0. 0. 0. 0. 0.],1.220703125,-6.28662109375,-36.43798828125,[0. 0. 0. 0. 0. 0. 0. 0. 0.],-0.07666015625,0.2744140625,0.99853515625,[0. 0. 0. 0. 0. 0. 0. 0. 0.]
7.299691677093506,-0.0021505719050765038,-0.015070111490786076,-0.8612625598907471,0.5079322457313538,[0. 0. 0. 0. 0. 0. 0. 0. 0.],1.89208984375,-2.197265625,-25.146484375,[0. 0. 0. 0. 0. 0. 0. 0. 0.],-0.0390625,0.26025390625,1.0234375,[0. 0. 0. 0. 0. 0. 0. 0. 0.]
7.319544792175293,-0.0008758977637626231,-0.01664852164685726,-0.8629589676856995,0.5049989819526672,[0. 0. 0. 0. 0. 0. 0. 0. 0.],1.8310546875,3.173828125,-15.93017578125,[0. 0. 0. 0. 0. 0. 0. 0. 0.],0.00732421875,0.294921875,1.03662109375,[0. 0. 0. 0. 0. 0. 0. 0. 0.]
7.339501857757568,-1.878684270195663e-05,-0.017785903066396713,-0.863825261592865,0.5034775733947754,[0. 0. 0. 0. 0. 0. 0. 0. 0.],-1.46484375,-1.89208984375,-6.16455078125,[0. 0. 0. 0. 0. 0. 0. 0. 0.],-0.05419921875,0.3115234375,0.9951171875,[0. 0. 0. 0. 0. 0. 0. 0. 0.]
7.359816789627075,0.0006498362636193633,-0.019044525921344757,-0.8641116619110107,0.5029392838478088,[0. 0. 0. 0. 0. 0. 0. 0. 0.],0.06103515625,-4.08935546875,-2.0751953125,[0. 0. 0. 0. 0. 0. 0. 0. 0.],-0.03173828125,0.30712890625,1.02490234375,[0. 0. 0. 0. 0. 0. 0. 0. 0.]
7.379129886627197,0.0014241475146263838,-0.020417576655745506,-0.8642528057098389,0.5026411414146423,[0. 0. 0. 0. 0. 0. 0. 0. 0.],1.5869140625,0.0,-2.01416015625,[0. 0. 0. 0. 0. 0. 0. 0. 0.],-0.01953125,0.27490234375,1.01611328125,[0. 0. 0. 0. 0. 0. 0. 0. 0.]
7.399188995361328,0.002465913537889719,-0.021589290350675583,-0.8644049167633057,0.5023266077041626,[0. 0. 0. 0. 0. 0. 0. 0. 0.],-0.8544921875,-0.244140625,-1.8310546875,[0. 0. 0. 0. 0. 0. 0. 0. 0.],-0.0517578125,0.27294921875,0.9716796875,[0. 0. 0. 0. 0. 0. 0. 0. 0.]
7.419307708740234,0.0034926484804600477,-0.022541005164384842,-0.8646106719970703,0.501924455165863,[0. 0. 0. 0. 0. 0. 0. 0. 0.],-0.48828125,-0.8544921875,-2.5634765625,[0. 0. 0. 0. 0. 0. 0. 0. 0.],-0.0498046875,0.2509765625,1.013671875,[0. 0. 0. 0. 0. 0. 0. 0. 0.]
7.44128155708313,0.0046582650393247604,-0.02397514507174492,-0.8648263812065125,0.5014768242835999,[0. 0. 0. 0. 0. 0. 0. 0. 0.],-0.244140625,-1.15966796875,-1.03759765625,[0. 0. 0. 0. 0. 0. 0. 0. 0.],-0.04736328125,0.22119140625,1.00927734375,[0. 0. 0. 0. 0. 0. 0. 0. 0.]
7.459380626678467,0.005356708541512489,-0.024740589782595634,-0.8648768067359924,0.5013456344604492,[0. 0. 0. 0. 0. 0. 0. 0. 0.],-2.25830078125,-1.0986328125,-0.91552734375,[0. 0. 0. 0. 0. 0. 0. 0. 0.],-0.025390625,0.193359375,0.990234375,[0. 0. 0. 0. 0. 0. 0. 0. 0.]
7.480675458908081,0.00534225907176733,-0.025311574339866638,-0.8650956749916077,0.5009395480155945,[0. 0. 0. 0. 0. 0. 0. 0. 0.],-5.18798828125,-0.54931640625,-3.7841796875,[0. 0. 0. 0. 0. 0. 0. 0. 0.],0.03466796875,0.06884765625,0.98779296875,[0. 0. 0. 0. 0. 0. 0. 0. 0.]
7.4994752407073975,0.005426233634352684,-0.02329743467271328,-0.865321695804596,0.5006458163261414,[0. 0. 0. 0. 0. 0. 0. 0. 0.],-1.77001953125,3.7841796875,-0.91552734375,[0. 0. 0. 0. 0. 0. 0. 0. 0.],-0.0390625,0.0205078125,1.044921875,[0. 0. 0. 0. 0. 0. 0. 0. 0.]
7.514642000198364,0.006488430313766003,-0.02159092389047146,-0.8653552532196045,0.5006517171859741,[0. 0. 0. 0. 0. 0. 0. 0. 0.],-3.84521484375,4.21142578125,1.8310546875,[0. 0. 0. 0. 0. 0. 0. 0. 0.],-0.10107421875,-0.01513671875,1.0048828125,[0. 0. 0. 0. 0. 0. 0. 0. 0.]
7.5352277755737305,0.006930141244083643,-0.02003045566380024,-0.865465521812439,0.5005200505256653,[0. 0. 0. 0. 0. 0. 0. 0. 0.],0.732421875,0.67138671875,-0.244140625,[0. 0. 0. 0. 0. 0. 0. 0. 0.],-0.041015625,0.02734375,1.03076171875,[0. 0. 0. 0. 0. 0. 0. 0. 0.]
7.559187412261963,0.008191372267901897,-0.019820768386125565,-0.8656031489372253,0.5002711415290833,[0. 0. 0. 0. 0. 0. 0. 0. 0.],-2.99072265625,-2.74658203125,-1.03759765625,[0. 0. 0. 0. 0. 0. 0. 0. 0.],-0.03857421875,0.03125,0.947265625,[0. 0. 0. 0. 0. 0. 0. 0. 0.]
7.579475164413452,0.007310563698410988,-0.01746349036693573,-0.8657937049865723,0.5000430345535278,[0. 0. 0. 0. 0. 0. 0. 0. 0.],-3.11279296875,-3.0517578125,-3.5400390625,[0. 0. 0. 0. 0. 0. 0. 0. 0.],-0.005859375,-0.06396484375,1.013671875,[0. 0. 0. 0. 0. 0. 0. 0. 0.]
7.599267959594727,0.006414886098355055,-0.014702708460390568,-0.8658621311187744,0.5000256299972534,[0. 0. 0. 0. 0. 0. 0. 0. 0.],-5.31005859375,0.54931640625,-1.15966796875,[0. 0. 0. 0. 0. 0. 0. 0. 0.],-0.01123046875,-0.16064453125,0.990234375,[0. 0. 0. 0. 0. 0. 0. 0. 0.]
7.61894965171814,0.005308241117745638,-0.01272332388907671,-0.8661511540412903,0.4995920956134796,[0. 0. 0. 0. 0. 0. 0. 0. 0.],-6.28662109375,2.13623046875,0.79345703125,[0. 0. 0. 0. 0. 0. 0. 0. 0.],-0.05517578125,-0.10302734375,1.02685546875,[0. 0. 0. 0. 0. 0. 0. 0. 0.]
7.639750242233276,0.004830796271562576,-0.010524171404540539,-0.8662098050117493,0.4995463192462921,[0. 0. 0. 0. 0. 0. 0. 0. 0.],-0.48828125,-4.0283203125,-3.2958984375,[0. 0. 0. 0. 0. 0. 0. 0. 0.],-0.06201171875,-0.1552734375,1.015625,[0. 0. 0. 0. 0. 0. 0. 0. 0.]
7.659075736999512,0.004233186598867178,-0.00825994461774826,-0.8661500215530396,0.4996979832649231,[0. 0. 0. 0. 0. 0. 0. 0. 0.],-4.5166015625,-3.23486328125,0.30517578125,[0. 0. 0. 0. 0. 0. 0. 0. 0.],-0.06884765625,-0.15771484375,0.9580078125,[0. 0. 0. 0. 0. 0. 0. 0. 0.]
7.679082155227661,0.0028294881340116262,-0.006091008894145489,-0.866275429725647,0.49952152371406555,[0. 0. 0. 0. 0. 0. 0. 0. 0.],-2.25830078125,-2.5634765625,-1.77001953125,[0. 0. 0. 0. 0. 0. 0. 0. 0.],-0.0146484375,-0.17578125,1.013671875,[0. 0. 0. 0. 0. 0. 0. 0. 0.]
7.699580907821655,0.0020905386190861464,-0.004208951257169247,-0.866447925567627,0.4992455542087555,[0. 0. 0. 0. 0. 0. 0. 0. 0.],-2.9296875,1.64794921875,-0.54931640625,[0. 0. 0. 0. 0. 0. 0. 0. 0.],-0.0361328125,-0.1533203125,0.99072265625,[0. 0. 0. 0. 0. 0. 0. 0. 0.]
7.719516754150391,0.0013585101114585996,-0.0029395611491054296,-0.8666093945503235,0.4989766478538513,[0. 0. 0. 0. 0. 0. 0. 0. 0.],-0.48828125,-5.615234375,-4.57763671875,[0. 0. 0. 0. 0. 0. 0. 0. 0.],-0.01318359375,-0.169921875,1.02099609375,[0. 0. 0. 0. 0. 0. 0. 0. 0.]
7.740784406661987,0.0008944566361606121,-0.0007368505466729403,-0.8668211102485657,0.4986180067062378,[0. 0. 0. 0. 0. 0. 0. 0. 0.],-1.89208984375,2.197265625,-1.5869140625,[0. 0. 0. 0. 0. 0. 0. 0. 0.],-0.02783203125,-0.1435546875,0.9794921875,[0. 0. 0. 0. 0. 0. 0. 0. 0.]
7.761759996414185,0.0003204049135092646,0.0012579169124364853,-0.8670655488967896,0.4981924295425415,[0. 0. 0. 0. 0. 0. 0. 0. 0.],-1.708984375,1.3427734375,-2.50244140625,[0. 0. 0. 0. 0. 0. 0. 0. 0.],-0.03466796875,-0.1591796875,1.00244140625,[0. 0. 0. 0. 0. 0. 0. 0. 0.]
7.779519319534302,0.000206593336770311,0.002721579512581229,-0.8671469688415527,0.4980449378490448,[0. 0. 0. 0. 0. 0. 0. 0. 0.],-1.64794921875,-0.30517578125,-2.5634765625,[0. 0. 0. 0. 0. 0. 0. 0. 0.],-0.0615234375,-0.15625,0.99853515625,[0. 0. 0. 0. 0. 0. 0. 0. 0.]
7.800096035003662,-0.0007952066953293979,0.005989170167595148,-0.8672850131988525,0.4977753460407257,[0. 0. 0. 0. 0. 0. 0. 0. 0.],-6.9580078125,0.06103515625,-2.25830078125,[0. 0. 0. 0. 0. 0. 0. 0. 0.],-0.0400390625,-0.2109375,0.92431640625,[0. 0. 0. 0. 0. 0. 0. 0. 0.]
7.814244031906128,-0.0013417357113212347,0.007740821689367294,-0.8674135208129883,0.49752599000930786,[0. 0. 0. 0. 0. 0. 0. 0. 0.],-3.23486328125,0.91552734375,-1.708984375,[0. 0. 0. 0. 0. 0. 0. 0. 0.],-0.04931640625,-0.21875,1.0322265625,[0. 0. 0. 0. 0. 0. 0. 0. 0.]
7.834310531616211,-0.0021535800769925117,0.009879378601908684,-0.8675340414047241,0.49727511405944824,[0. 0. 0. 0. 0. 0. 0. 0. 0.],-2.9296875,-2.13623046875,-0.48828125,[0. 0. 0. 0. 0. 0. 0. 0. 0.],-0.0859375,-0.2470703125,0.98193359375,[0. 0. 0. 0. 0. 0. 0. 0. 0.]
7.859294176101685,-0.0029405751265585423,0.010854441672563553,-0.8675171136856079,0.49728018045425415,[0. 0. 0. 0. 0. 0. 0. 0. 0.],4.150390625,-4.33349609375,1.708984375,[0. 0. 0. 0. 0. 0. 0. 0. 0.],-0.0908203125,-0.20849609375,1.048828125,[0. 0. 0. 0. 0. 0. 0. 0. 0.]
7.879572868347168,-0.003940251190215349,0.011482729576528072,-0.8675934672355652,0.49712589383125305,[0. 0. 0. 0. 0. 0. 0. 0. 0.],1.953125,-3.60107421875,-1.220703125,[0. 0. 0. 0. 0. 0. 0. 0. 0.],-0.00341796875,-0.12353515625,1.017578125,[0. 0. 0. 0. 0. 0. 0. 0. 0.]
7.898819446563721,-0.00490208575502038,0.013120793737471104,-0.8676255941390991,0.497020959854126,[0. 0. 0. 0. 0. 0. 0. 0. 0.],-2.62451171875,-5.67626953125,-0.8544921875,[0. 0. 0. 0. 0. 0. 0. 0. 0.],-0.0732421875,-0.1044921875,0.95458984375,[0. 0. 0. 0. 0. 0. 0. 0. 0.]
7.920706510543823,-0.0059333979152143,0.015804791823029518,-0.8676512837409973,0.4968867003917694,[0. 0. 0. 0. 0. 0. 0. 0. 0.],-2.0751953125,-0.42724609375,-1.5869140625,[0. 0. 0. 0. 0. 0. 0. 0. 0.],-0.00732421875,-0.11328125,1.00439453125,[0. 0. 0. 0. 0. 0. 0. 0. 0.]
7.9393630027771,-0.006673402152955532,0.017049385234713554,-0.8677288889884949,0.49670055508613586,[0. 0. 0. 0. 0. 0. 0. 0. 0.],-0.42724609375,-0.30517578125,-1.28173828125,[0. 0. 0. 0. 0. 0. 0. 0. 0.],-0.00927734375,-0.10791015625,1.013671875,[0. 0. 0. 0. 0. 0. 0. 0. 0.]
7.955750942230225,-0.007249489426612854,0.018759621307253838,-0.86781907081604,0.4964732527732849,[0. 0. 0. 0. 0. 0. 0. 0. 0.],-0.79345703125,-0.42724609375,-1.0986328125,[0. 0. 0. 0. 0. 0. 0. 0. 0.],-0.0224609375,-0.0771484375,0.974609375,[0. 0. 0. 0. 0. 0. 0. 0. 0.]
7.982792615890503,-0.008297414518892765,0.019222311675548553,-0.8681371808052063,0.4958825409412384,[0. 0. 0. 0. 0. 0. 0. 0. 0.],-0.244140625,6.9580078125,-4.21142578125,[0. 0. 0. 0. 0. 0. 0. 0. 0.],0.0654296875,-0.05029296875,1.04833984375,[0. 0. 0. 0. 0. 0. 0. 0. 0.]
7.99942946434021,-0.007984316907823086,0.01940353587269783,-0.8685569167137146,0.49514517188072205,[0. 0. 0. 0. 0. 0. 0. 0. 0.],-1.89208984375,-5.7373046875,-2.5634765625,[0. 0. 0. 0. 0. 0. 0. 0. 0.],-0.080078125,-0.0439453125,1.041015625,[0. 0. 0. 0. 0. 0. 0. 0. 0.]
8.020148992538452,-0.007402318995445967,0.019382983446121216,-0.8688129782676697,0.494705468416214,[0. 0. 0. 0. 0. 0. 0. 0. 0.],2.01416015625,-3.47900390625,-4.69970703125,[0. 0. 0. 0. 0. 0. 0. 0. 0.],-0.037109375,-0.02880859375,1.04931640625,[0. 0. 0. 0. 0. 0. 0. 0. 0.]
8.041193723678589,-0.00502924807369709,0.018205948173999786,-0.8693015575408936,0.4939211308956146,[0. 0. 0. 0. 0. 0. 0. 0. 0.],5.79833984375,1.64794921875,-5.0048828125,[0. 0. 0. 0. 0. 0. 0. 0. 0.],-0.02197265625,-0.033203125,0.9833984375,[0. 0. 0. 0. 0. 0. 0. 0. 0.]
8.054208517074585,-0.002679196186363697,0.01849352940917015,-0.8695472478866577,0.4934961199760437,[0. 0. 0. 0. 0. 0. 0. 0. 0.],0.67138671875,7.2021484375,-3.72314453125,[0. 0. 0. 0. 0. 0. 0. 0. 0.],-0.04296875,-0.01025390625,0.9384765625,[0. 0. 0. 0. 0. 0. 0. 0. 0.]
8.079689979553223,-0.0016583906253799796,0.017863266170024872,-0.8697514533996582,0.49316394329071045,[0. 0. 0. 0. 0. 0. 0. 0. 0.],0.54931640625,-16.41845703125,-0.732421875,[0. 0. 0. 0. 0. 0. 0. 0. 0.],-0.12255859375,-0.00048828125,1.02294921875,[0. 0. 0. 0. 0. 0. 0. 0. 0.]
8.09897494316101,-0.0017813693266361952,0.016431277617812157,-0.8695763945579529,0.4935218095779419,[0. 0. 0. 0. 0. 0. 0. 0. 0.],1.40380859375,-10.43701171875,3.173828125,[0. 0. 0. 0. 0. 0. 0. 0. 0.],-0.0107421875,-0.017578125,1.0126953125,[0. 0. 0. 0. 0. 0. 0. 0. 0.]
8.11452031135559,-0.0027865665033459663,0.014981940388679504,-0.8691460490226746,0.49432069063186646,[0. 0. 0. 0. 0. 0. 0. 0. 0.],-4.0283203125,-3.5400390625,7.8125,[0. 0. 0. 0. 0. 0. 0. 0. 0.],0.0244140625,0.0,0.9365234375,[0. 0. 0. 0. 0. 0. 0. 0. 0.]
8.139362335205078,-0.004333773162215948,0.014786438085138798,-0.8681171536445618,0.4961201846599579,[0. 0. 0. 0. 0. 0. 0. 0. 0.],3.7841796875,1.28173828125,15.07568359375,[0. 0. 0. 0. 0. 0. 0. 0. 0.],0.0615234375,-0.07080078125,1.083984375,[0. 0. 0. 0. 0. 0. 0. 0. 0.]
8.159798622131348,-0.005118648987263441,0.012589039281010628,-0.8659235835075378,0.4999918043613434,[0. 0. 0. 0. 0. 0. 0. 0. 0.],5.55419921875,-3.11279296875,24.71923828125,[0. 0. 0. 0. 0. 0. 0. 0. 0.],0.0068359375,-0.00146484375,1.01171875,[0. 0. 0. 0. 0. 0. 0. 0. 0.]
8.174460887908936,-0.005208901595324278,0.011191689409315586,-0.864186704158783,0.5030200481414795,[0. 0. 0. 0. 0. 0. 0. 0. 0.],-4.39453125,-2.44140625,27.7099609375,[0. 0. 0. 0. 0. 0. 0. 0. 0.],0.0078125,0.04052734375,0.87158203125,[0. 0. 0. 0. 0. 0. 0. 0. 0.]
8.198798418045044,-0.0066658672876656055,0.009927116334438324,-0.8608774542808533,0.5086719393730164,[0. 0. 0. 0. 0. 0. 0. 0. 0.],-4.5166015625,-2.38037109375,31.55517578125,[0. 0. 0. 0. 0. 0. 0. 0. 0.],0.01513671875,-0.0166015625,0.95556640625,[0. 0. 0. 0. 0. 0. 0. 0. 0.]
8.220107316970825,-0.006997761782258749,0.009864849038422108,-0.8586453199386597,0.5124276280403137,[0. 0. 0. 0. 0. 0. 0. 0. 0.],0.8544921875,-6.34765625,33.87451171875,[0. 0. 0. 0. 0. 0. 0. 0. 0.],-0.021484375,-0.0341796875,1.0390625,[0. 0. 0. 0. 0. 0. 0. 0. 0.]
8.239340543746948,-0.008097986690700054,0.009421112947165966,-0.8555843234062195,0.5175143480300903,[0. 0. 0. 0. 0. 0. 0. 0. 0.],5.859375,-3.72314453125,33.8134765625,[0. 0. 0. 0. 0. 0. 0. 0. 0.],0.03271484375,-0.02880859375,1.0703125,[0. 0. 0. 0. 0. 0. 0. 0. 0.]
8.264105319976807,-0.008604546077549458,0.007127388380467892,-0.8524267673492432,0.5227271318435669,[0. 0. 0. 0. 0. 0. 0. 0. 0.],-3.23486328125,-6.65283203125,36.19384765625,[0. 0. 0. 0. 0. 0. 0. 0. 0.],0.0009765625,0.03515625,0.927734375,[0. 0. 0. 0. 0. 0. 0. 0. 0.]
8.280474662780762,-0.010073755867779255,0.005410836078226566,-0.8484894633293152,0.5290887355804443,[0. 0. 0. 0. 0. 0. 0. 0. 0.],-1.28173828125,-1.15966796875,33.38623046875,[0. 0. 0. 0. 0. 0. 0. 0. 0.],0.0830078125,-0.0078125,1.05224609375,[0. 0. 0. 0. 0. 0. 0. 0. 0.]
8.299439668655396,-0.010969751514494419,0.00461554154753685,-0.8461912870407104,0.5327463150024414,[0. 0. 0. 0. 0. 0. 0. 0. 0.],0.42724609375,4.08935546875,32.89794921875,[0. 0. 0. 0. 0. 0. 0. 0. 0.],0.095703125,0.00341796875,0.9873046875,[0. 0. 0. 0. 0. 0. 0. 0. 0.]
8.319240093231201,-0.011396769434213638,0.0032515458296984434,-0.8424372673034668,0.5386639833450317,[0. 0. 0. 0. 0. 0. 0. 0. 0.],-1.3427734375,1.3427734375,31.8603515625,[0. 0. 0. 0. 0. 0. 0. 0. 0.],0.08984375,0.02978515625,1.00927734375,[0. 0. 0. 0. 0. 0. 0. 0. 0.]
8.34141993522644,-0.011716676875948906,0.0026158688124269247,-0.8401765823364258,0.5421801805496216,[0. 0. 0. 0. 0. 0. 0. 0. 0.],-4.8828125,4.33349609375,31.92138671875,[0. 0. 0. 0. 0. 0. 0. 0. 0.],0.076171875,0.03759765625,0.9697265625,[0. 0. 0. 0. 0. 0. 0. 0. 0.]
8.360028266906738,-0.012300757691264153,0.00020970018522348255,-0.8366038799285889,0.5476701855659485,[0. 0. 0. 0. 0. 0. 0. 0. 0.],5.67626953125,-5.0048828125,28.9306640625,[0. 0. 0. 0. 0. 0. 0. 0. 0.],0.03173828125,-0.00439453125,1.10595703125,[0. 0. 0. 0. 0. 0. 0. 0. 0.]
8.379401445388794,-0.012045676819980145,-0.0014940118417143822,-0.8346326351165771,0.550673246383667,[0. 0. 0. 0. 0. 0. 0. 0. 0.],3.173828125,3.60107421875,27.2216796875,[0. 0. 0. 0. 0. 0. 0. 0. 0.],0.05517578125,0.0302734375,1.05029296875,[0. 0. 0. 0. 0. 0. 0. 0. 0.]
8.397143840789795,-0.011098095215857029,-0.0027634662110358477,-0.8312631845474243,0.5557613372802734,[0. 0. 0. 0. 0. 0. 0. 0. 0.],-0.91552734375,-4.150390625,29.052734375,[0. 0. 0. 0. 0. 0. 0. 0. 0.],-0.001953125,0.03271484375,0.95849609375,[0. 0. 0. 0. 0. 0. 0. 0. 0.]
8.419766664505005,-0.010094605386257172,-0.0027489233762025833,-0.8284140229225159,0.5600185990333557,[0. 0. 0. 0. 0. 0. 0. 0. 0.],4.94384765625,-4.638671875,30.029296875,[0. 0. 0. 0. 0. 0. 0. 0. 0.],-0.01171875,-0.01513671875,0.93505859375,[0. 0. 0. 0. 0. 0. 0. 0. 0.]
8.440513849258423,-0.008497709408402443,-0.0037222292739897966,-0.8255501985549927,0.5642523765563965,[0. 0. 0. 0. 0. 0. 0. 0. 0.],1.52587890625,2.44140625,28.38134765625,[0. 0. 0. 0. 0. 0. 0. 0. 0.],0.02490234375,0.0458984375,1.00927734375,[0. 0. 0. 0. 0. 0. 0. 0. 0.]
8.459338665008545,-0.007422538008540869,-0.004748795181512833,-0.8234708905220032,0.567290186882019,[0. 0. 0. 0. 0. 0. 0. 0. 0.],1.64794921875,2.01416015625,27.9541015625,[0. 0. 0. 0. 0. 0. 0. 0. 0.],0.02294921875,0.0517578125,1.1201171875,[0. 0. 0. 0. 0. 0. 0. 0. 0.]
8.479582786560059,-0.006457283161580563,-0.005748662166297436,-0.8206831216812134,0.5713183283805847,[0. 0. 0. 0. 0. 0. 0. 0. 0.],-2.01416015625,-3.47900390625,28.99169921875,[0. 0. 0. 0. 0. 0. 0. 0. 0.],-0.01171875,0.0458984375,1.04296875,[0. 0. 0. 0. 0. 0. 0. 0. 0.]
8.498995780944824,-0.005528514739125967,-0.006494478322565556,-0.8176806569099426,0.575609028339386,[0. 0. 0. 0. 0. 0. 0. 0. 0.],0.48828125,-4.08935546875,30.2734375,[0. 0. 0. 0. 0. 0. 0. 0. 0.],0.00927734375,0.0146484375,0.93310546875,[0. 0. 0. 0. 0. 0. 0. 0. 0.]
8.520185232162476,-0.004386599175632,-0.007194214034825563,-0.8145787119865417,0.5799919962882996,[0. 0. 0. 0. 0. 0. 0. 0. 0.],-0.30517578125,-4.33349609375,30.82275390625,[0. 0. 0. 0. 0. 0. 0. 0. 0.],-0.00634765625,0.01318359375,0.861328125,[0. 0. 0. 0. 0. 0. 0. 0. 0.]
8.539402723312378,-0.0037655248306691647,-0.007290837354958057,-0.8115198612213135,0.5842671990394592,[0. 0. 0. 0. 0. 0. 0. 0. 0.],-1.77001953125,-2.74658203125,30.21240234375,[0. 0. 0. 0. 0. 0. 0. 0. 0.],-0.00537109375,0.02392578125,0.9609375,[0. 0. 0. 0. 0. 0. 0. 0. 0.]
8.559289932250977,-0.0031424672342836857,-0.007927478291094303,-0.8084418177604675,0.588514506816864,[0. 0. 0. 0. 0. 0. 0. 0. 0.],-2.0751953125,-5.92041015625,30.94482421875,[0. 0. 0. 0. 0. 0. 0. 0. 0.],-0.00927734375,0.03271484375,1.07958984375,[0. 0. 0. 0. 0. 0. 0. 0. 0.]
8.574581623077393,-0.0021040095016360283,-0.008642932400107384,-0.8051611185073853,0.5929893851280212,[0. 0. 0. 0. 0. 0. 0. 0. 0.],1.64794921875,-3.5400390625,31.67724609375,[0. 0. 0. 0. 0. 0. 0. 0. 0.],0.005859375,0.025390625,1.15625,[0. 0. 0. 0. 0. 0. 0. 0. 0.]
8.599115133285522,-0.0015386327868327498,-0.01065453514456749,-0.801753580570221,0.597557783126831,[0. 0. 0. 0. 0. 0. 0. 0. 0.],3.7841796875,-2.685546875,33.0810546875,[0. 0. 0. 0. 0. 0. 0. 0. 0.],0.01171875,0.0234375,1.00927734375,[0. 0. 0. 0. 0. 0. 0. 0. 0.]
8.619694471359253,-0.0008288120152428746,-0.012720640748739243,-0.7973979711532593,0.6033192873001099,[0. 0. 0. 0. 0. 0. 0. 0. 0.],0.6103515625,-1.03759765625,32.2265625,[0. 0. 0. 0. 0. 0. 0. 0. 0.],0.056640625,0.0517578125,0.990234375,[0. 0. 0. 0. 0. 0. 0. 0. 0.]
8.639849424362183,-0.0016463526990264654,-0.013960402458906174,-0.7939404845237732,0.6078330278396606,[0. 0. 0. 0. 0. 0. 0. 0. 0.],-5.7373046875,0.6103515625,32.8369140625,[0. 0. 0. 0. 0. 0. 0. 0. 0.],0.0546875,0.0556640625,0.93798828125,[0. 0. 0. 0. 0. 0. 0. 0. 0.]
8.659050703048706,-0.0024009314365684986,-0.014233443886041641,-0.7914228439331055,0.6110987663269043,[0. 0. 0. 0. 0. 0. 0. 0. 0.],-4.45556640625,4.150390625,31.1279296875,[0. 0. 0. 0. 0. 0. 0. 0. 0.],0.072265625,0.02685546875,0.96484375,[0. 0. 0. 0. 0. 0. 0. 0. 0.]
8.68138837814331,-0.004282936919480562,-0.015170528553426266,-0.7873695492744446,0.6162797808647156,[0. 0. 0. 0. 0. 0. 0. 0. 0.],0.54931640625,1.708984375,27.9541015625,[0. 0. 0. 0. 0. 0. 0. 0. 0.],0.0751953125,0.02001953125,1.0029296875,[0. 0. 0. 0. 0. 0. 0. 0. 0.]
8.699045658111572,-0.004458446986973286,-0.015511048957705498,-0.7851383686065674,0.6191100478172302,[0. 0. 0. 0. 0. 0. 0. 0. 0.],-4.0283203125,8.9111328125,27.4658203125,[0. 0. 0. 0. 0. 0. 0. 0. 0.],0.10791015625,0.06005859375,1.00390625,[0. 0. 0. 0. 0. 0. 0. 0. 0.]
8.720606088638306,-0.004450907465070486,-0.01656028814613819,-0.7814098596572876,0.6237826347351074,[0. 0. 0. 0. 0. 0. 0. 0. 0.],1.40380859375,-12.0849609375,26.91650390625,[0. 0. 0. 0. 0. 0. 0. 0. 0.],-0.02587890625,0.02099609375,1.07275390625,[0. 0. 0. 0. 0. 0. 0. 0. 0.]
8.740234613418579,-0.004219030030071735,-0.017045345157384872,-0.7785003781318665,0.6273984313011169,[0. 0. 0. 0. 0. 0. 0. 0. 0.],-1.28173828125,5.9814453125,26.18408203125,[0. 0. 0. 0. 0. 0. 0. 0. 0.],0.0576171875,0.04052734375,0.95947265625,[0. 0. 0. 0. 0. 0. 0. 0. 0.]
8.759566068649292,-0.0038952988106757402,-0.017490362748503685,-0.7763262987136841,0.63007652759552,[0. 0. 0. 0. 0. 0. 0. 0. 0.],2.25830078125,10.1318359375,27.16064453125,[0. 0. 0. 0. 0. 0. 0. 0. 0.],0.06201171875,0.03564453125,1.044921875,[0. 0. 0. 0. 0. 0. 0. 0. 0.]
8.779334545135498,-0.0027503592427819967,-0.01722041144967079,-0.7731685638427734,0.6339609026908875,[0. 0. 0. 0. 0. 0. 0. 0. 0.],6.34765625,0.244140625,29.541015625,[0. 0. 0. 0. 0. 0. 0. 0. 0.],-0.03515625,0.017578125,1.05224609375,[0. 0. 0. 0. 0. 0. 0. 0. 0.]
8.820753574371338,-0.0018858558032661676,-0.016925331205129623,-0.7690545320510864,0.6389562487602234,[0. 0. 0. 0. 0. 0. 0. 0. 0.],-8.97216796875,-5.43212890625,30.09033203125,[0. 0. 0. 0. 0. 0. 0. 0. 0.],-0.04296875,0.07275390625,0.896484375,[0. 0. 0. 0. 0. 0. 0. 0. 0.]
8.830321550369263,-0.002802860690280795,-0.01607867330312729,-0.7649053335189819,0.6439359784126282,[0. 0. 0. 0. 0. 0. 0. 0. 0.],-2.685546875,-12.26806640625,31.1279296875,[0. 0. 0. 0. 0. 0. 0. 0. 0.],-0.01806640625,0.00439453125,1.0,[0. 0. 0. 0. 0. 0. 0. 0. 0.]
8.835777997970581,-0.003395250765606761,-0.015912115573883057,-0.7630083560943604,0.6461838483810425,[0. 0. 0. 0. 0. 0. 0. 0. 0.],3.96728515625,-10.498046875,34.66796875,[0. 0. 0. 0. 0. 0. 0. 0. 0.],0.00341796875,-0.01171875,1.06884765625,[0. 0. 0. 0. 0. 0. 0. 0. 0.]
8.85918116569519,-0.005423589143902063,-0.01794791780412197,-0.758366584777832,0.6515585780143738,[0. 0. 0. 0. 0. 0. 0. 0. 0.],7.01904296875,-7.6904296875,44.921875,[0. 0. 0. 0. 0. 0. 0. 0. 0.],0.06494140625,0.017578125,1.0146484375,[0. 0. 0. 0. 0. 0. 0. 0. 0.]
8.879181385040283,-0.006202416028827429,-0.020469332113862038,-0.752675473690033,0.6580442786216736,[0. 0. 0. 0. 0. 0. 0. 0. 0.],-0.42724609375,-4.150390625,51.33056640625,[0. 0. 0. 0. 0. 0. 0. 0. 0.],0.09423828125,0.08056640625,0.919921875,[0. 0. 0. 0. 0. 0. 0. 0. 0.]
8.903884172439575,-0.008168366737663746,-0.023072486743330956,-0.7446164488792419,0.6670437455177307,[0. 0. 0. 0. 0. 0. 0. 0. 0.],-1.220703125,-6.2255859375,57.55615234375,[0. 0. 0. 0. 0. 0. 0. 0. 0.],0.0947265625,0.04541015625,1.0810546875,[0. 0. 0. 0. 0. 0. 0. 0. 0.]
8.917298793792725,-0.009392565116286278,-0.024914152920246124,-0.7375791072845459,0.6747355461120605,[0. 0. 0. 0. 0. 0. 0. 0. 0.],3.11279296875,-1.0986328125,60.24169921875,[0. 0. 0. 0. 0. 0. 0. 0. 0.],0.12158203125,0.0419921875,1.12451171875,[0. 0. 0. 0. 0. 0. 0. 0. 0.]
8.9394690990448,-0.010048642754554749,-0.026222139596939087,-0.7322348952293396,0.6804730296134949,[0. 0. 0. 0. 0. 0. 0. 0. 0.],1.28173828125,-1.0986328125,60.302734375,[0. 0. 0. 0. 0. 0. 0. 0. 0.],0.09765625,0.04833984375,1.0341796875,[0. 0. 0. 0. 0. 0. 0. 0. 0.]
8.965729475021362,-0.011343536898493767,-0.028443846851587296,-0.7211971282958984,0.6920529007911682,[0. 0. 0. 0. 0. 0. 0. 0. 0.],5.126953125,-5.9814453125,61.03515625,[0. 0. 0. 0. 0. 0. 0. 0. 0.],0.0556640625,0.01806640625,0.97900390625,[0. 0. 0. 0. 0. 0. 0. 0. 0.]
8.97428560256958,-0.012366754934191704,-0.028869185596704483,-0.7175132036209106,0.6958364844322205,[0. 0. 0. 0. 0. 0. 0. 0. 0.],4.21142578125,-6.34765625,59.9365234375,[0. 0. 0. 0. 0. 0. 0. 0. 0.],0.06787109375,0.01806640625,0.990234375,[0. 0. 0. 0. 0. 0. 0. 0. 0.]
