time,imu.ypr.x,imu.ypr.y,imu.ypr.z,imu.linear_acceleration.x,imu.linear_acceleration.y,imu.linear_acceleration.z,imu.angular_velocity.x,imu.angular_velocity.y,imu.angular_velocity.z,imu.compass.x,imu.compass.y,imu.compass.z,imu.orientation.x,imu.orientation.y,imu.orientation.z,imu.orientation.w
2.015380620956421,-0.4124395322881919,3.148710377186708,-105.44509561424967,-0.08251953125,-0.18115234375,0.91796875,0.30517578125,-6.04248046875,-7.6904296875,0.0,0.0,0.0,0.019682299345731735,-0.01950320042669773,-0.7953464984893799,-0.6055213809013367
2.040342092514038,-0.49251992512944776,3.1624548522308893,-105.33423481383119,-0.06689453125,0.046875,1.01953125,1.03759765625,1.8310546875,-5.2490234375,0.0,0.0,0.0,0.019335059449076653,-0.020150333642959595,-0.794743537902832,-0.6063026785850525
2.05600905418396,-0.13681710674989891,3.2018195802952003,-105.17728389689346,-0.0400390625,-0.24853515625,1.00927734375,2.9296875,-5.0048828125,-9.33837890625,0.0,0.0,0.0,0.021465502679347992,-0.01792093738913536,-0.7939633727073669,-0.6073222756385803
2.080702543258667,-0.22124238035735555,3.1865434353296433,-104.94328161592883,-0.05224609375,0.00146484375,0.90771484375,-2.86865234375,0.6103515625,-9.82666015625,0.0,0.0,0.0,0.02087453380227089,-0.018467597663402557,-0.7927111387252808,-0.6089600324630737
2.100365400314331,0.04035159701788496,3.2460792061168826,-104.78383767994404,-0.05029296875,-0.150390625,0.92578125,1.5869140625,-1.0986328125,-11.29150390625,0.0,0.0,0.0,0.02265285700559616,-0.01700581982731819,-0.7918918132781982,-0.6100042462348938
2.1201653480529785,-0.06061378674765752,3.28219724644791,-104.58077615591957,-0.06591796875,0.06103515625,1.0126953125,-5.31005859375,2.685546875,-11.90185546875,0.0,0.0,0.0,0.022333228960633278,-0.017935406416654587,-0.7907871007919312,-0.6114208102226257
2.1424505710601807,0.35231922003796123,3.2578911645127735,-104.25767405723211,-0.07763671875,-0.19189453125,1.025390625,2.44140625,-4.69970703125,-12.87841796875,0.0,0.0,0.0,0.024326356127858162,-0.015024630352854729,-0.789124071598053,-0.6135680079460144
2.1602115631103516,0.5508851722476761,3.2873807196977154,-104.05705091074132,-0.10595703125,-0.18017578125,1.0283203125,1.40380859375,2.62451171875,-14.16015625,0.0,0.0,0.0,0.02556833252310753,-0.013859930448234081,-0.7880685329437256,-0.6149001121520996
2.180419445037842,0.47324198300135123,3.2728093648771392,-103.73639401977674,-0.1142578125,0.03955078125,1.13623046875,16.41845703125,-8.6669921875,-12.51220703125,0.0,0.0,0.0,0.025011343881487846,-0.014385722577571869,-0.7863377332687378,-0.6171227693557739
2.1952102184295654,0.4608783267474232,3.382673598007029,-103.471894944168,-0.01806640625,-0.08154296875,0.83056640625,-7.32421875,13.3056640625,-13.5498046875,0.0,0.0,0.0,0.025663675740361214,-0.015121674165129662,-0.7848901748657227,-0.6189185380935669
2.220402240753174,0.4089004804419204,3.255996854235153,-103.1813728478215,-0.07666015625,0.123046875,1.0625,3.72314453125,-2.197265625,-11.90185546875,0.0,0.0,0.0,0.024477820843458176,-0.0148554015904665,-0.7833341956138611,-0.6209410429000854
2.240370273590088,0.15701528346652244,3.0968805538871242,-102.80493380190542,0.048828125,0.07568359375,1.0537109375,7.38525390625,-5.126953125,-18.98193359375,0.0,0.0,0.0,0.021973511204123497,-0.01578710786998272,-0.7812843322753906,-0.6235887408256531
2.2624926567077637,-0.015521361429962664,3.031652033870091,-102.48802668479517,-0.04443359375,0.10107421875,0.97216796875,1.77001953125,-1.15966796875,-17.51708984375,0.0,0.0,0.0,0.020543843507766724,-0.016665341332554817,-0.779543936252594,-0.6257887482643127
2.275179624557495,-0.24631892630716812,3.0588647881838913,-102.20940960817201,-0.1025390625,0.1953125,1.02099609375,1.64794921875,-1.953125,-12.5732421875,0.0,0.0,0.0,0.01942378282546997,-0.018431255593895912,-0.7779796123504639,-0.6277187466621399
2.2959132194519043,-0.39145036096874275,3.054576923489004,-101.97793449720028,-0.0654296875,0.10400390625,0.9208984375,-6.34765625,-1.0986328125,-11.3525390625,0.0,0.0,0.0,0.01856043003499508,-0.019430607557296753,-0.7766869068145752,-0.6293135285377502
2.316342830657959,-0.5385464888729009,2.994183963960928,-101.7605910476213,-0.021484375,0.0703125,1.03173828125,-1.0986328125,0.30517578125,-12.3291015625,0.0,0.0,0.0,0.0173050370067358,-0.020128870382905006,-0.7754786014556885,-0.6308156847953796
2.3391196727752686,-0.7593468679455494,2.903021855995591,-101.53501038990329,-0.05224609375,0.0771484375,1.0615234375,2.13623046875,-0.91552734375,-11.16943359375,0.0,0.0,0.0,0.015430839732289314,-0.021151820197701454,-0.7742142081260681,-0.6323819756507874
2.3601980209350586,-0.9766074481199859,2.917385530376716,-101.3478495462666,-0.08447265625,0.1201171875,0.99072265625,1.8310546875,-2.9296875,-8.6669921875,0.0,0.0,0.0,0.01429182942956686,-0.022722259163856506,-0.7731356620788574,-0.6336724758148193
2.381385326385498,-1.1370547815825207,2.9153593120707497,-101.20064530927449,-0.04541015625,0.11962890625,0.947265625,-2.5634765625,-1.28173828125,-7.26318359375,0.0,0.0,0.0,0.01336031872779131,-0.02381073869764805,-0.7722888588905334,-0.6346845030784607
2.4000844955444336,-1.3172450970060947,2.811611299899195,-101.0566239404356,-0.015625,0.0869140625,1.068359375,2.685546875,-0.91552734375,-7.75146484375,0.0,0.0,0.0,0.01163202989846468,-0.024465493857860565,-0.7714762091636658,-0.6356812715530396
2.4204180240631104,-1.522637743249958,2.762414087637828,-100.92670691223279,-0.0439453125,0.10546875,1.0048828125,0.54931640625,-1.15966796875,-6.77490234375,0.0,0.0,0.0,0.01013224758207798,-0.025587035343050957,-0.7707215547561646,-0.6365774869918823
2.440056085586548,-1.691287707018855,2.7826365702229428,-100.83027147134138,-0.0546875,0.09619140625,0.96435546875,-2.38037109375,0.8544921875,-5.2490234375,0.0,0.0,0.0,0.009308855049312115,-0.026841403916478157,-0.770142138004303,-0.6372393369674683
2.460142135620117,-1.8863153277538125,2.779178146625389,-100.74425206893423,-0.048828125,0.08203125,1.01611328125,0.42724609375,-0.1220703125,-4.8828125,0.0,0.0,0.0,0.00817992351949215,-0.028139030560851097,-0.7696176171302795,-0.6378323435783386
2.4810914993286133,-2.1820909067891026,2.7511585762158814,-100.65771357215017,-0.04638671875,0.13427734375,1.0205078125,0.79345703125,0.18310546875,-3.47900390625,0.0,0.0,0.0,0.006322624161839485,-0.029974406585097313,-0.7690680623054504,-0.638432502746582
2.5001606941223145,-2.338447597269034,2.7252465460521456,-100.63377375910927,-0.0478515625,0.15869140625,0.9931640625,-0.732421875,-0.6103515625,-1.52587890625,0.0,0.0,0.0,0.005271007306873798,-0.030880652368068695,-0.7689001560211182,-0.6386010646820068
2.5203933715820312,-2.535399090194114,2.6874284289480195,-100.6270050416418,-0.03369140625,0.15625,0.99462890625,-0.48828125,-0.6103515625,0.06103515625,0.0,0.0,0.0,0.003917569760233164,-0.031991876661777496,-0.7688188552856445,-0.6386539340019226
2.540520668029785,-2.731884849595163,2.629112273814451,-100.6473453449901,-0.02783203125,0.13330078125,0.99951171875,-0.42724609375,-0.54931640625,1.5869140625,0.0,0.0,0.0,0.0024367559235543013,-0.03298507630825043,-0.7688930630683899,-0.6385214328765869
2.560305118560791,-2.925785168951951,2.6047842072079233,-100.70053202805698,-0.04736328125,0.1015625,1.005859375,-0.3662109375,-0.91552734375,2.8076171875,0.0,0.0,0.0,0.001208775443956256,-0.0341501459479332,-0.7691395878791809,-0.6381666660308838
2.5803847312927246,-3.095701065594828,2.6391761306696413,-100.77194848601863,-0.0517578125,0.06005859375,0.99560546875,-1.220703125,-2.01416015625,3.41796875,0.0,0.0,0.0,0.0005156768602319062,-0.035481516271829605,-0.7694752216339111,-0.6376901268959045
2.600175142288208,-2.893773779859394,2.6717017049406535,-100.86007158669014,-0.060546875,0.01416015625,1.00537109375,-1.15966796875,-3.173828125,6.4697265625,0.0,0.0,0.0,0.0018843956058844924,-0.03430483862757683,-0.7700170874595642,-0.6370975971221924
2.6155223846435547,-2.7133453683102213,2.6274275649669847,-101.0017092195087,-0.044921875,0.001953125,1.02587890625,0.91552734375,-2.62451171875,8.11767578125,0.0,0.0,0.0,0.002630320843309164,-0.03284332528710365,-0.7708697319030762,-0.6361402273178101
2.640449285507202,-2.5700189712193815,2.4649237042340415,-101.13164673827902,-0.01953125,0.01806640625,1.0029296875,0.48828125,-2.13623046875,6.53076171875,0.0,0.0,0.0,0.0023669342044740915,-0.030975446105003357,-0.7716755867004395,-0.6352572441101074
2.6604909896850586,-2.377466547006613,2.3697808766430564,-101.24213187829315,-0.04638671875,0.0166015625,0.98828125,-0.3662109375,-2.197265625,6.04248046875,0.0,0.0,0.0,0.002821265021339059,-0.029149146750569344,-0.7723631262779236,-0.6345058083534241
2.68034291267395,-2.18479736924772,2.4446960990070488,-101.33862879088709,-0.0556640625,0.01416015625,1.0048828125,0.244140625,-0.732421875,4.45556640625,0.0,0.0,0.0,0.004417183808982372,-0.028261184692382812,-0.7729265689849854,-0.6338505148887634
2.7002789974212646,-2.013647983129421,2.5501947740402424,-101.3877105302628,-0.060546875,0.01513671875,1.00390625,-0.30517578125,-0.8544921875,1.708984375,0.0,0.0,0.0,0.006087800953537226,-0.027687137946486473,-0.7732135653495789,-0.6335118412971497
2.7203307151794434,-1.826962264526871,2.659338422212696,-101.3735173971675,-0.060546875,0.01123046875,1.00244140625,-0.732421875,-0.732421875,-1.3427734375,0.0,0.0,0.0,0.007853446528315544,-0.027031250298023224,-0.7731528282165527,-0.633594810962677
2.7403082847595215,-1.6387877781286695,2.7339198190810037,-101.33734471532313,-0.06201171875,-0.00341796875,1.00927734375,0.30517578125,-1.15966796875,-1.15966796875,0.0,0.0,0.0,0.009389118291437626,-0.026176583021879196,-0.7729783654212952,-0.6338227391242981
2.7601592540740967,-1.409088836506258,2.7070039645526878,-101.31886222342906,-0.03759765625,-0.04345703125,0.986328125,-4.21142578125,-1.220703125,-0.244140625,0.0,0.0,0.0,0.010473989881575108,-0.024480022490024567,-0.7729331851005554,-0.6339284777641296
2.77557373046875,-0.9355221527150667,2.7770780768990218,-101.34812958402257,-0.052734375,-0.29736328125,0.88623046875,-7.75146484375,-3.5400390625,0.67138671875,0.0,0.0,0.0,0.013572094962000847,-0.021669531241059303,-0.7731751799583435,-0.6336769461631775
2.8014883995056152,-0.9314718505372491,2.673730911454382,-101.38198000154915,-0.0341796875,-0.00390625,1.22509765625,12.87841796875,4.150390625,2.99072265625,0.0,0.0,0.0,0.012903176248073578,-0.021067162975668907,-0.7733843326568604,-0.6334560513496399
2.8207292556762695,-0.7429630050348341,2.68637145717396,-101.37588747280951,-0.0048828125,-0.1875,0.80322265625,-14.6484375,13.24462890625,-0.06103515625,0.0,0.0,0.0,0.014029506593942642,-0.019865473732352257,-0.773381769657135,-0.6334739327430725
2.8445231914520264,-0.18641814060572987,2.796690751657302,-101.26263610618152,-0.076171875,-0.33740234375,0.990234375,-8.1787109375,12.39013671875,-7.01904296875,0.0,0.0,0.0,0.01783410832285881,-0.0167364701628685,-0.7728239893913269,-0.6341489553451538
2.861570119857788,-0.11031497225425774,2.792834469540595,-101.08479164057273,-0.08447265625,-0.31103515625,1.17236328125,8.9111328125,-2.44140625,-12.451171875,0.0,0.0,0.0,0.01820407807826996,-0.01623014733195305,-0.7718504667282104,-0.6353362798690796
2.88161563873291,0.13887039234849433,2.80544321219185,-100.75256440915415,-0.0615234375,-0.234375,0.87353515625,-5.0048828125,-2.50244140625,-17.63916015625,0.0,0.0,0.0,0.019628062844276428,-0.014678556472063065,-0.7700368762016296,-0.6375284790992737
2.9002199172973633,0.4082110315421458,2.941119157082041,-100.36048423003872,0.001953125,-0.29931640625,1.01513671875,1.5869140625,13.3056640625,-21.3623046875,0.0,0.0,0.0,0.021991349756717682,-0.013698840513825417,-0.7678634524345398,-0.6400893926620483
2.9155728816986084,0.622987423890681,3.1062176359259435,-99.84692230634548,-0.05712890625,-0.251953125,0.95556640625,-2.9296875,8.30078125,-27.16064453125,0.0,0.0,0.0,0.024237751960754395,-0.013290834613144398,-0.7649875283241272,-0.6434515714645386
2.9402217864990234,0.9265575294294249,3.171595352887659,-99.21883177064944,-0.08984375,-0.2841796875,0.95556640625,-4.57763671875,4.57763671875,-31.31103515625,0.0,0.0,0.0,0.02631441131234169,-0.011775893159210682,-0.7614732384681702,-0.6475550532341003
2.956589460372925,1.099350749981875,3.198746208612106,-98.53042383439302,-0.06884765625,-0.38134765625,1.14892578125,5.67626953125,-0.06103515625,-34.7900390625,0.0,0.0,0.0,0.027405910193920135,-0.010946003720164299,-0.75758296251297,-0.6520715951919556
2.983548164367676,1.208169003673401,3.1742439721817433,-97.7863293658335,-0.08251953125,-0.3154296875,1.041015625,7.50732421875,-6.40869140625,-37.7197265625,0.0,0.0,0.0,0.027797125279903412,-0.010267779231071472,-0.7533460259437561,-0.6569563746452332
3.000601291656494,1.4279067547215836,3.025998771671436,-96.99748349783204,-0.087890625,-0.24609375,0.8310546875,-6.2255859375,-10.3759765625,-39.73388671875,0.0,0.0,0.0,0.028027236461639404,-0.00816578883677721,-0.7488399744033813,-0.662107527256012
3.020505905151367,1.7463822540199994,3.1640853464518184,-96.26921457757943,-0.02490234375,-0.32958984375,0.98486328125,-5.37109375,15.869140625,-34.60693359375,0.0,0.0,0.0,0.03072464093565941,-0.0070784627459943295,-0.7446252703666687,-0.6667376160621643
3.040879726409912,1.9754685063295194,3.1888213034178428,-95.57034962170373,-0.103515625,-0.306640625,0.9033203125,-5.37109375,4.21142578125,-32.3486328125,0.0,0.0,0.0,0.032182518392801285,-0.005930275656282902,-0.7405562996864319,-0.6711971759796143
3.0605008602142334,2.296695718089804,3.0118895218368937,-94.92038199009615,-0.12109375,-0.34423828125,1.02099609375,-0.1220703125,-13.36669921875,-28.9306640625,0.0,0.0,0.0,0.03290506824851036,-0.003003508085384965,-0.7367614507675171,-0.6753450632095337
3.080204963684082,2.505383610443081,2.7364337555823917,-94.42701693577861,-0.0849609375,-0.37158203125,1.0625,2.74658203125,-9.82666015625,-20.01953125,0.0,0.0,0.0,0.032365188002586365,-0.00017581119027454406,-0.7338600754737854,-0.6785293221473694
3.101088285446167,2.6258021933879334,2.722824176774318,-94.11241159241865,-0.02685546875,-0.30859375,0.98291015625,3.96728515625,4.8828125,-12.02392578125,0.0,0.0,0.0,0.03299286589026451,0.000585464877076447,-0.7319945096969604,-0.6805110573768616
3.1203842163085938,2.8663650844937787,2.994858018254644,-93.93986052341663,-0.033203125,-0.2470703125,0.89697265625,-5.37109375,13.12255859375,-6.28662109375,0.0,0.0,0.0,0.036157798022031784,0.0004503009549807757,-0.7309634685516357,-0.6814579963684082
3.1356797218322754,3.221695644223349,3.1436135619619976,-93.83066628915563,-0.11474609375,-0.330078125,1.041015625,-1.3427734375,-2.99072265625,-3.90625,0.0,0.0,0.0,0.039219994097948074,0.0017936575459316373,-0.7303085327148438,-0.6819882988929749
3.1613781452178955,3.291795156335659,3.254185146557807,-93.74155281105448,-0.0634765625,-0.404296875,1.20849609375,9.94873046875,5.859375,-3.90625,0.0,0.0,0.0,0.04034202918410301,0.0015498894499614835,-0.7297760248184204,-0.682493269443512
3.180161714553833,3.31826918300204,3.1802144112899806,-93.62548740648845,-0.12158203125,-0.24609375,0.9013671875,0.1220703125,-11.1083984375,-7.32421875,0.0,0.0,0.0,0.04003150761127472,0.0021192729473114014,-0.7290844321250916,-0.68324875831604
3.200303554534912,3.538378432308048,3.1185503962460475,-93.472846338917,-0.0458984375,-0.24560546875,0.89453125,-5.0048828125,3.72314453125,-8.056640625,0.0,0.0,0.0,0.040957260876894,0.0038334475830197334,-0.728167712688446,-0.6841634511947632
3.220191478729248,3.7582842700428363,3.140095160765795,-93.30170228888399,-0.0546875,-0.30029296875,0.91064453125,0.54931640625,2.8076171875,-6.9580078125,0.0,0.0,0.0,0.04241436719894409,0.005038619972765446,-0.72713702917099,-0.6851623058319092
3.2401890754699707,3.908994528513283,3.0529438679471363,-93.15606899540099,-0.14453125,-0.27294921875,0.92138671875,2.5634765625,-13.916015625,-6.34765625,0.0,0.0,0.0,0.042771656066179276,0.006462674587965012,-0.7262555956840515,-0.6860623955726624
3.261249303817749,4.189418617058735,2.8768767456264284,-93.02572849546962,-0.107421875,-0.2958984375,1.04248046875,-0.91552734375,-15.625,-6.4697265625,0.0,0.0,0.0,0.043347131460905075,0.009246730245649815,-0.7254470586776733,-0.6868495345115662
3.2759056091308594,4.410179295656833,2.8382919397879687,-92.87400950343613,0.03173828125,-0.30029296875,1.12255859375,0.732421875,5.79833984375,-8.48388671875,0.0,0.0,0.0,0.04444080963730812,0.01081717200577259,-0.7245151400566101,-0.6877396702766418
3.3006093502044678,4.613245088549543,3.0638975703851328,-92.69759937755305,0.0029296875,-0.23828125,0.970703125,-2.197265625,11.04736328125,-8.30078125,0.0,0.0,0.0,0.04709953814744949,0.010671845637261868,-0.7234533429145813,-0.6886820793151855
3.320152759552002,4.81401337656019,3.0449124192568475,-92.54826412153989,-0.13720703125,-0.2900390625,0.9794921875,3.90625,-8.6669921875,-6.53076171875,0.0,0.0,0.0,0.04820212721824646,0.011990892700850964,-0.7225339412689209,-0.6895487308502197
3.3403637409210205,4.886635362910351,3.0142593840354768,-92.39320516700225,-0.0234375,-0.28076171875,1.13525390625,5.67626953125,-0.42724609375,-7.75146484375,0.0,0.0,0.0,0.048463307321071625,0.01256810687482357,-0.7215897440910339,-0.6905083060264587
3.360379457473755,4.93402748424013,2.8513431506313935,-92.23212198561667,-0.1259765625,-0.19677734375,0.9140625,2.74658203125,-14.83154296875,-8.23974609375,0.0,0.0,0.0,0.047744594514369965,0.01378342229872942,-0.720596969127655,-0.691571056842804
3.380272150039673,5.172349432967978,2.9582827821360484,-92.01490147944276,0.10693359375,-0.20263671875,0.98779296875,-2.38037109375,17.63916015625,-10.986328125,0.0,0.0,0.0,0.04988141730427742,0.014540708623826504,-0.7192668914794922,-0.692788302898407
3.4007198810577393,5.380480238017075,3.05637497078801,-91.80927180429036,-0.146484375,-0.1806640625,0.85888671875,-9.94873046875,3.23486328125,-8.544921875,0.0,0.0,0.0,0.05178114399313927,0.015159727074205875,-0.71800696849823,-0.693941593170166
3.4219419956207275,5.613537391555312,2.7671489028365275,-91.70058983421711,-0.25634765625,-0.228515625,0.90771484375,-12.939453125,-19.4091796875,-7.14111328125,0.0,0.0,0.0,0.051402054727077484,0.01832713931798935,-0.7172761559486389,-0.6946487426757812
3.44063138961792,5.679667709986198,2.5309848669995816,-91.56481250370643,0.02734375,-0.27685546875,1.166015625,12.451171875,-0.9765625,-9.09423828125,0.0,0.0,0.0,0.05035189166665077,0.020116476342082024,-0.7164048552513123,-0.6955747008323669
3.4602882862091064,5.801054685689311,2.6088330152818595,-91.34264694057342,0.05859375,-0.134765625,0.97607421875,1.40380859375,14.2822265625,-11.23046875,0.0,0.0,0.0,0.05161375552415848,0.020301735028624535,-0.7150464653968811,-0.6968732476234436
3.4801371097564697,6.018908265021922,2.801039661167896,-91.14600579436876,-0.14697265625,-0.1767578125,1.0009765625,-1.15966796875,5.859375,-6.34765625,0.0,0.0,0.0,0.05417000502347946,0.020396554842591286,-0.7138432264328003,-0.6979092955589294
3.500157594680786,6.049998432350174,2.8149536102808583,-91.04275382468568,-0.1552734375,-0.21630859375,1.197265625,7.99560546875,-7.568359375,-5.615234375,0.0,0.0,0.0,0.05446426570415497,0.02045620046555996,-0.713210940361023,-0.6985308527946472
3.5204317569732666,6.007973559047555,2.895958800063563,-90.85865973598632,-0.06396484375,-0.10986328125,0.9462890625,2.9296875,5.0048828125,-11.29150390625,0.0,0.0,0.0,0.05474254861474037,0.019611600786447525,-0.7121086716651917,-0.6996569633483887
3.540361166000366,5.964323527609296,3.1671390813410487,-90.4407068002949,-0.11181640625,-0.0927734375,0.892578125,6.7138671875,-0.1220703125,-26.67236328125,0.0,0.0,0.0,0.05622084438800812,0.01747513934969902,-0.7096017003059387,-0.7021390199661255
3.5602049827575684,5.995204947281039,3.5060163556902926,-89.7965038483468,-0.17724609375,-0.06591796875,0.861328125,-0.244140625,13.3056640625,-35.400390625,0.0,0.0,0.0,0.05858893692493439,0.01525473315268755,-0.7056874632835388,-0.7059319615364075
3.580455780029297,5.959451041410138,3.509620988024767,-88.96398575079229,-0.38330078125,-0.048828125,0.98681640625,-1.46484375,-14.09912109375,-46.5087890625,0.0,0.0,0.0,0.0584983304142952,0.014587671495974064,-0.7005453109741211,-0.7110565304756165
3.6000185012817383,5.928376668894342,3.3113992933574767,-88.00590145553626,-0.20947265625,-0.078125,1.0966796875,3.96728515625,-2.197265625,-52.42919921875,0.0,0.0,0.0,0.05722620338201523,0.015153608284890652,-0.6945510506629944,-0.7170037627220154
3.6239571571350098,5.814911005081151,3.4490094624432506,-86.64448082941264,-0.083984375,-0.05322265625,0.96435546875,-8.11767578125,13.7939453125,-51.94091796875,0.0,0.0,0.0,0.0575052835047245,0.012920043431222439,-0.6860177516937256,-0.7251937389373779
3.640333890914917,5.835218438144069,3.5392108616131432,-85.92654598537426,-0.2294921875,-0.11376953125,1.07763671875,5.67626953125,0.6103515625,-45.654296875,0.0,0.0,0.0,0.05824900418519974,0.012104429304599762,-0.6814716458320618,-0.729422390460968
3.660283088684082,5.785278229367051,3.5588877828383034,-85.0970673220004,-0.138671875,-0.11279296875,1.09033203125,1.5869140625,-0.79345703125,-39.48974609375,0.0,0.0,0.0,0.05813077092170715,0.01126132719218731,-0.6761816740036011,-0.7343517541885376
3.68245792388916,5.731946831667122,3.4961635943691376,-84.45324686064583,-0.11181640625,-0.064453125,0.875,-0.91552734375,-0.67138671875,-29.11376953125,0.0,0.0,0.0,0.05748297646641731,0.011026968248188496,-0.6720411777496338,-0.7381970286369324
3.695385456085205,5.686996076078799,3.38182153190807,-83.95131674910911,-0.029296875,-0.07861328125,0.9111328125,-0.18310546875,-0.18310546875,-23.13232421875,0.0,0.0,0.0,0.05657486245036125,0.011254283599555492,-0.668788731098175,-0.7412114143371582
3.7200546264648438,5.609538315796269,3.596137286694026,-83.58887959099155,-0.1591796875,-0.0830078125,0.99462890625,5.18798828125,-1.77001953125,-16.2353515625,0.0,0.0,0.0,0.057350024580955505,0.009230919182300568,-0.66647869348526,-0.7432575821876526
3.7401137351989746,5.606595784924463,3.552005300032458,-83.3697739526067,-0.24072265625,-0.00927734375,0.9296875,-8.1787109375,-13.48876953125,-10.7421875,0.0,0.0,0.0,0.057093195617198944,0.009391685016453266,-0.6650504469871521,-0.7445536851882935
3.75614857673645,5.480326077738437,3.6241312438941464,-83.16314706983549,-0.02294921875,0.02685546875,1.033203125,5.4931640625,5.55419921875,-10.8642578125,0.0,0.0,0.0,0.056704603135585785,0.008086704649031162,-0.6637260913848877,-0.7457794547080994
3.7802798748016357,5.1158035774899115,3.6659593223713043,-82.92219848648494,-0.0908203125,0.10009765625,1.13623046875,10.25390625,1.5869140625,-11.5966796875,0.0,0.0,0.0,0.054585330188274384,0.005587578751146793,-0.6621829867362976,-0.7473304867744446
3.8001434803009033,4.754326487837565,3.6069259973748844,-82.6740303931817,-0.0927734375,0.12158203125,1.1123046875,9.3994140625,-2.5634765625,-13.0615234375,0.0,0.0,0.0,0.05189578980207443,0.00377232045866549,-0.6605716943740845,-0.7489576935768127
3.821516513824463,4.616345567545905,3.5223605714873103,-82.39755799595792,-0.091796875,0.16943359375,0.91650390625,-0.6103515625,-11.90185546875,-14.6484375,0.0,0.0,0.0,0.050516195595264435,0.003409035736694932,-0.6587594747543335,-0.7506480813026428
3.8428452014923096,4.358275407493436,3.490793358134215,-81.95367766217714,-0.01171875,0.2392578125,0.986328125,5.31005859375,-2.50244140625,-20.20263671875,0.0,0.0,0.0,0.04865245521068573,0.0019442427437752485,-0.6558499932289124,-0.7533193230628967
3.8603734970092773,4.128033145666891,3.3608675787515288,-81.75306134587552,-0.14453125,0.2734375,0.90625,12.51220703125,-8.60595703125,-11.5966796875,0.0,0.0,0.0,0.04639950767159462,0.0014011115999892354,-0.6545239090919495,-0.7546149492263794
3.8804068565368652,3.8255530956309993,3.0824011931769317,-81.75095764761116,-0.1455078125,0.30810546875,0.85888671875,-0.06103515625,-15.44189453125,8.30078125,0.0,0.0,0.0,0.042820390313863754,0.0015097955474629998,-0.6544948220252991,-0.7548514604568481
3.9019293785095215,3.5743340422028758,2.820275821748179,-82.26504549587051,0.03955078125,0.30517578125,1.07568359375,2.86865234375,0.0,26.91650390625,0.0,0.0,0.0,0.03966258093714714,0.001982321497052908,-0.6578618288040161,-0.7520910501480103
3.9160847663879395,3.2585171940388875,2.653517606935964,-82.86288512373255,-0.01708984375,0.287109375,1.09912109375,11.1083984375,-17.2119140625,45.0439453125,0.0,0.0,0.0,0.036626700311899185,0.001456309575587511,-0.6617721319198608,-0.7488084435462952
3.9402759075164795,2.860146837584717,2.55230850414495,-84.01172977231786,0.1103515625,0.3671875,1.06396484375,6.2255859375,2.74658203125,61.6455078125,0.0,0.0,0.0,0.03343970701098442,0.00015309202717617154,-0.6692453026771545,-0.7422887682914734
3.9608943462371826,2.4077394395119907,2.4681087068213827,-85.47968768911535,0.064453125,0.35400390625,1.0458984375,12.3291015625,-12.87841796875,80.62744140625,0.0,0.0,0.0,0.030040083453059196,-0.001558421878144145,-0.6786956787109375,-0.733803391456604
3.9801933765411377,2.036971158154311,2.2352419448062606,-87.29833483865796,0.13232421875,0.39208984375,1.04931640625,5.859375,-10.009765625,94.3603515625,0.0,0.0,0.0,0.026320144534111023,-0.001844457583501935,-0.6902512311935425,-0.7230886816978455
4.000061273574829,1.6124427780045782,1.9856565872502399,-89.25505426227238,0.326171875,0.333984375,1.125,13.48876953125,-8.9111328125,99.2431640625,0.0,0.0,0.0,0.022183597087860107,-0.002447240287438035,-0.7024935483932495,-0.7113401293754578
4.0201332569122314,1.22935550342684,1.699851803742699,-91.23542663098256,0.25634765625,0.3125,0.96630859375,11.16943359375,-16.357421875,99.365234375,0.0,0.0,0.0,0.018103452399373055,-0.0027082576416432858,-0.7146804928779602,-0.6992116570472717
4.040640830993652,0.9372430402207925,1.4330820104000432,-93.21930971692613,0.26416015625,0.34619140625,0.884765625,0.1220703125,1.3427734375,97.71728515625,0.0,0.0,0.0,0.014705626294016838,-0.0026476134080439806,-0.7266795635223389,-0.6868141293525696
4.0602943897247314,0.6646423464002087,1.486106369752439,-95.17625453678316,0.3193359375,0.3076171875,1.03466796875,7.4462890625,6.04248046875,97.16796875,0.0,0.0,0.0,0.013486139476299286,-0.0044645145535469055,-0.73829185962677,-0.674331784248352
4.080263614654541,0.39237254322840026,1.3234925856625408,-97.10413007153262,0.12841796875,0.29443359375,0.81884765625,1.708984375,-10.19287109375,93.505859375,0.0,0.0,0.0,0.010923271998763084,-0.005078570917248726,-0.7495293617248535,-0.6618615984916687
4.101013898849487,0.1950578629983332,1.0150795558371404,-98.84105400765603,0.20068359375,0.27099609375,0.94189453125,1.28173828125,-14.34326171875,81.6650390625,0.0,0.0,0.0,0.00783501472324133,-0.004469442646950483,-0.7594833374023438,-0.6504643559455872
4.116117238998413,0.14582053671580544,0.9989211425298886,-100.25638531689856,0.35205078125,0.3017578125,1.00634765625,-7.50732421875,16.05224609375,63.78173828125,0.0,0.0,0.0,0.007505964953452349,-0.004611697979271412,-0.7674580216407776,-0.641038715839386
4.1405463218688965,0.04264188484459453,0.898496444276368,-101.36541679281187,0.04541015625,0.25,1.048828125,-0.1220703125,-7.6904296875,49.9267578125,0.0,0.0,0.0,0.0063017853535711765,-0.004680148791521788,-0.7736270427703857,-0.6335926055908203
4.167587518692017,-0.1443345303442913,0.8645715349991493,-102.25875089473618,0.08056640625,0.283203125,1.0703125,-3.11279296875,3.7841796875,28.3203125,0.0,0.0,0.0,0.00508363451808691,-0.0057154204696416855,-0.7785362601280212,-0.6275531053543091
4.176171541213989,-0.1750616837903275,0.9647737184961156,-102.58229012553052,0.0263671875,0.27197265625,0.9931640625,-6.103515625,11.53564453125,18.37158203125,0.0,0.0,0.0,0.005614397116005421,-0.006457088515162468,-0.7802971601486206,-0.6253503561019897
4.195649147033691,-0.3565818183690045,1.09963345578049,-102.80213342434571,-0.0400390625,0.203125,1.03466796875,4.08935546875,3.72314453125,6.2255859375,0.0,0.0,0.0,0.0055582900531589985,-0.008418384939432144,-0.781473696231842,-0.6238566040992737
4.2217230796813965,-0.5195228112088287,1.2113330888064093,-102.76998372392246,-0.0458984375,0.26416015625,0.88037109375,-6.8359375,6.89697265625,-7.568359375,0.0,0.0,0.0,0.005430151242762804,-0.010139147751033306,-0.7812754511833191,-0.6240804195404053
4.240586996078491,-0.5737489636900293,1.3431837008745702,-102.3836545640882,-0.0205078125,0.21044921875,1.02197265625,-4.7607421875,5.06591796875,-25.7568359375,0.0,0.0,0.0,0.005995957180857658,-0.011247110553085804,-0.779148519039154,-0.6267098188400269
4.260772705078125,-0.6496675301709259,1.5507687311203018,-101.70635251542222,-0.02490234375,0.10498046875,1.0302734375,-3.35693359375,11.16943359375,-38.75732421875,0.0,0.0,0.0,0.006915961857885122,-0.012939506210386753,-0.775398850440979,-0.6313014626502991
4.2807252407073975,-0.7672711680432336,1.7922388634469955,-100.79999324275072,-0.0927734375,0.13232421875,1.08544921875,-1.89208984375,7.8125,-49.560546875,0.0,0.0,0.0,0.0077827987261116505,-0.015127291902899742,-0.7703349590301514,-0.637412428855896
4.301136493682861,-0.7663752393231983,2.00174851293479,-99.69657618233515,-0.17333984375,0.1279296875,0.97802734375,-4.82177734375,1.3427734375,-58.77685546875,0.0,0.0,0.0,0.009039178490638733,-0.01637413538992405,-0.764130711555481,-0.6447902917861938
4.320485830307007,-0.8329531485881323,2.2806603549093185,-98.41794427914125,-0.10986328125,0.09326171875,1.02978515625,0.3662109375,13.5498046875,-67.138671875,0.0,0.0,0.0,0.010318955406546593,-0.01850327104330063,-0.7568329572677612,-0.6532648801803589
4.3429882526397705,-0.9430878678813251,2.747818613711745,-96.67570645584357,-0.18603515625,0.04150390625,0.99951171875,2.3193359375,0.42724609375,-71.96044921875,0.0,0.0,0.0,0.012442884035408497,-0.022084426134824753,-0.7467063069343567,-0.6646707057952881
4.356300592422485,-0.8941081544563406,2.8811592742360266,-95.57754864108892,-0.22998046875,0.0576171875,0.91357421875,-2.0751953125,-3.41796875,-73.18115234375,0.0,0.0,0.0,0.013379540294408798,-0.022667594254016876,-0.7402845621109009,-0.6717782020568848
4.381930112838745,-0.7368475844892927,3.0085207444721966,-94.09849166689017,-0.19482421875,0.01806640625,0.99755859375,-5.06591796875,1.708984375,-73.3642578125,0.0,0.0,0.0,0.0148341478779912,-0.022591320797801018,-0.7315572500228882,-0.6812441349029541
4.400796175003052,-0.5639024455886625,3.3572742589178675,-92.61460574894822,-0.13330078125,-0.04833984375,1.03173828125,2.62451171875,7.75146484375,-73.486328125,0.0,0.0,0.0,0.017782708629965782,-0.023792052641510963,-0.7226365804672241,-0.6905897259712219
4.415668249130249,-0.46799447672807737,3.5041783944733247,-91.19675409990195,-0.26318359375,0.02587890625,0.947265625,-5.0048828125,-1.77001953125,-70.068359375,0.0,0.0,0.0,0.018988002091646194,-0.02430908754467964,-0.7140254974365234,-0.6994399428367615
4.435504674911499,-0.32168131261838473,3.699324796466817,-89.81352467975847,-0.20751953125,0.001953125,1.06640625,-2.01416015625,-5.4931640625,-68.66455078125,0.0,0.0,0.0,0.020798910409212112,-0.02484109252691269,-0.7055203914642334,-0.7079486846923828
4.462313652038574,-0.16029340074215834,3.758533998834365,-88.19392290300837,-0.16064453125,-0.04443359375,1.01611328125,1.5869140625,-2.8076171875,-61.09619140625,0.0,0.0,0.0,0.021816110238432884,-0.024523954838514328,-0.6954668164253235,-0.7178082466125488
4.48093056678772,-0.04446627239460857,3.8854888593715073,-87.31241868872652,-0.099609375,-0.04345703125,1.00341796875,2.25830078125,3.23486328125,-56.82373046875,0.0,0.0,0.0,0.023122135549783707,-0.024794770404696465,-0.6899232864379883,-0.7230880856513977
4.500166654586792,0.20246968546485483,4.118002159097082,-86.2832252940215,-0.15283203125,-0.01416015625,0.87841796875,-10.55908203125,-1.220703125,-48.40087890625,0.0,0.0,0.0,0.025856487452983856,-0.025008419528603554,-0.6834076642990112,-0.7291501760482788
4.521270275115967,0.5698905471392068,4.133921622505088,-85.41788130731591,-0.033203125,-0.1630859375,1.03125,-5.126953125,0.48828125,-40.34423828125,0.0,0.0,0.0,0.028115300461649895,-0.023131338879466057,-0.6779564619064331,-0.7341999411582947
4.540286302566528,0.7317484213870551,4.03293727562645,-84.72899525781759,-0.04248046875,-0.11181640625,1.16748046875,8.60595703125,-6.65283203125,-27.77099609375,0.0,0.0,0.0,0.028425194323062897,-0.02169772982597351,-0.6735796928405762,-0.7382491230964661
4.5603907108306885,0.8261367798790182,3.926538723170107,-84.34567138121812,-0.0556640625,-0.0556640625,1.076171875,4.7607421875,-3.96728515625,-14.16015625,0.0,0.0,0.0,0.028339583426713943,-0.02055204287171364,-0.6711407899856567,-0.7405029535293579
4.580937385559082,0.8627253028499832,3.7278083928530625,-84.12947540341972,-0.0361328125,-0.03515625,0.9765625,3.7841796875,-2.685546875,-8.60595703125,0.0,0.0,0.0,0.027376707643270493,-0.019104601815342903,-0.6697781682014465,-0.7418105602264404
4.600190162658691,0.9365679187100191,3.6324977987405886,-83.99101380856521,-0.00830078125,-0.03173828125,0.91015625,0.244140625,10.009765625,-5.7373046875,0.0,0.0,0.0,0.027276117354631424,-0.018088683485984802,-0.6689063906669617,-0.7426258325576782
4.620339393615723,1.0134778764767725,3.7037306953682982,-83.91196802930067,-0.123046875,-0.01416015625,0.890625,-3.11279296875,-4.7607421875,-2.62451171875,0.0,0.0,0.0,0.028177591040730476,-0.018121028319001198,-0.6683967113494873,-0.7430502772331238
4.640545845031738,1.0538116376295787,3.7536858451841253,-83.8669980638053,-0.0693359375,-0.00634765625,1.025390625,-3.5400390625,-0.9765625,-3.662109375,0.0,0.0,0.0,0.02872316725552082,-0.01822112873196602,-0.6681049466133118,-0.7432892918586731
4.6604719161987305,1.1432242566720405,3.7206691376231067,-83.73863831873325,0.04345703125,-0.0849609375,1.16796875,0.48828125,11.16943359375,-6.28662109375,0.0,0.0,0.0,0.029091162607073784,-0.017518138512969017,-0.6672900915145874,-0.7440234422683716
4.681061744689941,1.2234873037127412,3.7168416703669607,-83.62828295231336,-0.1640625,-0.048828125,0.9306640625,3.7841796875,-11.23046875,-2.99072265625,0.0,0.0,0.0,0.029573608189821243,-0.017054365947842598,-0.6665858626365662,-0.7446461319923401
4.700865268707275,1.156727967547979,3.631178291570307,-83.55767928686294,-0.03466796875,0.00244140625,0.95263671875,-4.39453125,-0.06103515625,-3.7841796875,0.0,0.0,0.0,0.02863142639398575,-0.0169033445417881,-0.6661272048950195,-0.7450968027114868
4.720608711242676,1.1867775982448614,3.520493155079546,-83.5065280001687,-0.04296875,-0.00927734375,1.01513671875,-6.16455078125,-0.30517578125,-3.41796875,0.0,0.0,0.0,0.028176704421639442,-0.01602112501859665,-0.6658115386962891,-0.7454156279563904
4.745081901550293,1.4156528617420516,3.5960066593261493,-83.45741210984714,-0.03173828125,-0.07861328125,0.935546875,-4.69970703125,1.52587890625,-0.9765625,0.0,0.0,0.0,0.03009735979139805,-0.015195667743682861,-0.665515124797821,-0.7456225752830505
4.760093927383423,1.6161498631766027,3.5615978738349177,-83.42911463611578,0.01806640625,-0.09130859375,0.86279296875,-13.97705078125,3.47900390625,-2.44140625,0.0,0.0,0.0,0.03119884617626667,-0.013814866542816162,-0.6653596758842468,-0.7457428574562073
4.781356334686279,1.9477434878279682,3.590090007957626,-83.31906662820853,0.05615234375,-0.1318359375,1.13037109375,-4.8828125,12.87841796875,-5.2490234375,0.0,0.0,0.0,0.03351030498743057,-0.01210722140967846,-0.6646784543991089,-0.7462795376777649
4.802276134490967,1.9736540238878233,3.495972562515789,-83.22820462167985,-0.08447265625,-0.09375,1.18017578125,8.97216796875,-3.47900390625,-4.0283203125,0.0,0.0,0.0,0.03312477096915245,-0.011369669809937477,-0.6640955209732056,-0.7468271255493164
4.816424131393433,1.9752584780125415,3.437764836635294,-83.15419952202276,-0.02880859375,-0.03515625,1.029296875,1.220703125,-0.06103515625,-5.126953125,0.0,0.0,0.0,0.03279119357466698,-0.011001835577189922,-0.6636168956756592,-0.7472726106643677
4.841434478759766,1.8302433166494159,3.4397750466853934,-82.92746456233502,-0.04443359375,-0.0244140625,0.92236328125,-0.3662109375,11.41357421875,-15.5029296875,0.0,0.0,0.0,0.03183360397815704,-0.011917764320969582,-0.6621223092079163,-0.7486245632171631
4.863800764083862,1.8822648121325833,3.8482805500942168,-82.47880309613522,-0.1689453125,-0.02099609375,0.89208984375,1.03759765625,13.36669921875,-24.5361328125,0.0,0.0,0.0,0.03447481617331505,-0.014423221349716187,-0.659160852432251,-0.751072883605957
4.889588356018066,1.8724814199201862,4.094039294167738,-81.8327150119762,-0.1953125,0.0205078125,1.00732421875,0.79345703125,10.25390625,-37.78076171875,0.0,0.0,0.0,0.03573120757937431,-0.01629352569580078,-0.6548922657966614,-0.7547013163566589
4.897510290145874,1.809741863525388,4.384250616906995,-80.8788176226814,-0.12939453125,0.04052734375,1.04638671875,-5.37109375,10.7421875,-53.22265625,0.0,0.0,0.0,0.03681844472885132,-0.018872417509555817,-0.6485477685928345,-0.7600486874580383
4.915350914001465,1.7856573358514536,4.55070702273526,-80.04060314735909,-0.25390625,0.01171875,1.00634765625,4.2724609375,1.03759765625,-59.87548828125,0.0,0.0,0.0,0.03745128586888313,-0.020388389006257057,-0.6429477334022522,-0.7647221684455872
4.942249774932861,1.747563663303,4.578211767636078,-78.76841894274169,-0.2939453125,0.041015625,0.9716796875,3.84521484375,-6.103515625,-66.71142578125,0.0,0.0,0.0,0.037118103355169296,-0.021199241280555725,-0.6344082355499268,-0.7718154788017273
4.96104884147644,1.709636156450448,4.703657583253471,-77.31060385686168,-0.1923828125,0.04443359375,0.97998046875,2.3193359375,3.96728515625,-74.951171875,0.0,0.0,0.0,0.0372699536383152,-0.022730935364961624,-0.6245161294937134,-0.779790997505188
4.98046612739563,1.827876442658595,4.981470405101862,-75.76924872724324,-0.2421875,0.0341796875,0.89892578125,-7.2021484375,3.41796875,-78.7353515625,0.0,0.0,0.0,0.039259977638721466,-0.02450912818312645,-0.6139623522758484,-0.7879772186279297
5.001593828201294,2.0974140634406924,5.029764538288907,-74.22045552161866,-0.22119140625,-0.0146484375,0.95703125,-8.36181640625,-4.33349609375,-76.66015625,0.0,0.0,0.0,0.04105155169963837,-0.023954400792717934,-0.6033087372779846,-0.7960901856422424
5.020323991775513,2.3320679871408307,5.074038678262576,-72.69472103463204,-0.0458984375,-0.07080078125,1.2607421875,2.99072265625,6.8359375,-74.52392578125,0.0,0.0,0.0,0.04260382428765297,-0.023596221581101418,-0.5927011370658875,-0.8039487600326538
5.040360450744629,2.3549999203923253,4.940115317224728,-71.28949840536113,-0.19873046875,-0.05908203125,1.1357421875,7.62939453125,-12.939453125,-65.49072265625,0.0,0.0,0.0,0.041794177144765854,-0.023051002994179726,-0.5828131437301636,-0.8112033009529114
5.062275648117065,2.323936006603696,4.814802263409327,-70.10702873549184,-0.03955078125,-0.0283203125,0.95166015625,3.662109375,0.67138671875,-55.35888671875,0.0,0.0,0.0,0.04070596024394035,-0.022741999477148056,-0.5744136571884155,-0.817236065864563
5.081169843673706,2.36425717459522,4.680528001402869,-69.1902875752819,-0.0439453125,-0.05810546875,0.916015625,4.08935546875,-0.18310546875,-39.4287109375,0.0,0.0,0.0,0.040148116648197174,-0.021902993321418762,-0.5678731203079224,-0.8218446969985962
5.104298114776611,2.6458391936484005,4.630208717126916,-68.46322076832321,-0.12890625,-0.11962890625,0.87255859375,-4.2724609375,-6.9580078125,-23.92578125,0.0,0.0,0.0,0.04179011657834053,-0.02041175588965416,-0.5627017021179199,-0.8253507018089294
5.121373891830444,2.8644735489805084,4.699993613650582,-68.1529525950862,-0.03271484375,-0.05712890625,1.0498046875,-4.150390625,16.78466796875,-17.51708984375,0.0,0.0,0.0,0.04365255683660507,-0.019959652796387672,-0.560501754283905,-0.8267610669136047
5.141211748123169,2.9300124157179543,4.769288870988124,-67.86590706502726,-0.18115234375,-0.19384765625,1.16064453125,5.4931640625,-5.31005859375,-9.3994140625,0.0,0.0,0.0,0.044412706047296524,-0.020251043140888214,-0.5584392547607422,-0.8281081318855286
5.1607232093811035,2.9440153707335384,4.694331813715465,-67.72278045096964,-0.1455078125,-0.05322265625,0.93798828125,1.46484375,-10.6201171875,-7.6904296875,0.0,0.0,0.0,0.04412519559264183,-0.0196954607963562,-0.5574080944061279,-0.8288312554359436
5.180367469787598,3.033072926660865,4.524543556232703,-67.5570868918943,-0.01318359375,-0.05908203125,0.8251953125,-2.0751953125,3.2958984375,-8.30078125,0.0,0.0,0.0,0.04391989856958389,-0.01809595711529255,-0.5562247633934021,-0.8296732902526855
5.200757265090942,3.1489786755550426,4.428804794636634,-67.38771186085633,-0.06005859375,-0.03076171875,0.83642578125,-11.77978515625,6.53076171875,-7.9345703125,0.0,0.0,0.0,0.044270895421504974,-0.016904644668102264,-0.555014967918396,-0.830489456653595
5.2204248905181885,3.2160822959426563,4.468247429546166,-67.24145702015883,-0.14990234375,-0.07958984375,1.19580078125,3.23486328125,-11.71875,-6.04248046875,0.0,0.0,0.0,0.04492606222629547,-0.016923246905207634,-0.5539650321006775,-0.8311547040939331
5.240160703659058,3.1057476335336816,4.365123952796844,-67.0805924048267,-0.00341796875,-0.06103515625,1.28466796875,7.32421875,0.91552734375,-7.2021484375,0.0,0.0,0.0,0.043605320155620575,-0.01676878333091736,-0.5527799129486084,-0.8320167660713196
5.260362863540649,3.1251295759640625,4.218931437575537,-66.92670141263714,-0.0771484375,-0.06396484375,0.94677734375,1.0986328125,-7.6904296875,-8.36181640625,0.0,0.0,0.0,0.04302199184894562,-0.01567014493048191,-0.5516622066497803,-0.8328099250793457
5.275702476501465,3.1457827873537116,4.090324098146074,-66.74282588999122,0.0166015625,-0.0546875,0.935546875,2.38037109375,14.0380859375,-8.30078125,0.0,0.0,0.0,0.04253127798438072,-0.014703058637678623,-0.5503246784210205,-0.8337371945381165
5.295422077178955,3.1144847261425976,4.074356396527054,-66.59913920042167,-0.14453125,-0.05126953125,0.833984375,2.3193359375,-6.53076171875,-6.40869140625,0.0,0.0,0.0,0.04220859333872795,-0.014789976179599762,-0.5492743253707886,-0.8344443440437317
5.320481777191162,3.113229465439196,4.0432286631583665,-66.51347496785137,-0.0576171875,-0.01806640625,0.9970703125,-2.8076171875,4.8828125,-5.55419921875,0.0,0.0,0.0,0.04203977435827255,-0.01460046786814928,-0.5486493110656738,-0.8348674178123474
5.3437724113464355,3.2023691970799746,4.039312830329834,-66.41378152672587,-0.15869140625,-0.14404296875,1.076171875,-4.33349609375,-7.6904296875,-2.99072265625,0.0,0.0,0.0,0.042658187448978424,-0.014182224869728088,-0.5479338765144348,-0.8353129029273987
5.36023473739624,3.361053487963,3.9074957288772887,-66.37745858071973,-0.1484375,-0.13525390625,0.90087890625,-6.77490234375,-16.90673828125,-2.0751953125,0.0,0.0,0.0,0.043182555586099625,-0.01247501466423273,-0.5476818084716797,-0.8354785442352295
5.382155656814575,3.758665906862711,3.759487663997228,-66.23852570281251,0.076171875,-0.18994140625,0.822265625,-5.31005859375,4.5166015625,-5.4931640625,0.0,0.0,0.0,0.04536464065313339,-0.009549086913466454,-0.5466967821121216,-0.8360464572906494
5.401273727416992,4.027709192703629,3.8060682734762454,-66.12480988332096,-0.04638671875,-0.2421875,0.9306640625,-9.82666015625,-0.6103515625,-7.4462890625,0.0,0.0,0.0,0.04754030704498291,-0.008652997203171253,-0.5458924770355225,-0.8364607095718384
5.4153735637664795,4.225837612600066,3.7092635754828316,-66.0083210070264,-0.09912109375,-0.32763671875,1.24755859375,4.57763671875,-9.27734375,-5.7373046875,0.0,0.0,0.0,0.04851987957954407,-0.007050777319818735,-0.5450451374053955,-0.8369718790054321
5.44032621383667,4.288666815227721,3.4526937091702377,-66.06561263378447,0.02392578125,-0.30224609375,1.16748046875,3.96728515625,-13.916015625,7.50732421875,0.0,0.0,0.0,0.04776526987552643,-0.00485116895288229,-0.5454351902008057,-0.8367767930030823
5.455295562744141,4.347266850098668,3.244903346362583,-66.43619820758185,0.0830078125,-0.24365234375,0.94677734375,2.197265625,-5.79833984375,22.705078125,0.0,0.0,0.0,0.047217149287462234,-0.002899996703490615,-0.5481122732162476,-0.8350658416748047
5.475691795349121,4.515960569766936,3.2200433787744402,-67.12505010613431,-0.017578125,-0.2685546875,0.89306640625,3.41796875,-11.3525390625,41.50390625,0.0,0.0,0.0,0.04833852872252464,-0.0016211472684517503,-0.5531216859817505,-0.8316954374313354
5.5003862380981445,4.581772003740947,2.7683501623568034,-68.21943082627794,-0.01611328125,-0.2255859375,0.91748046875,-1.89208984375,-19.83642578125,61.4013671875,0.0,0.0,0.0,0.04662186652421951,0.0024250117130577564,-0.5609671473503113,-0.8265207409858704
5.520923376083374,4.786407886369115,2.6787365863423553,-69.65690560880967,0.1728515625,-0.14453125,0.798828125,-10.009765625,2.74658203125,79.2236328125,0.0,0.0,0.0,0.04760553315281868,0.004671487025916576,-0.5712684392929077,-0.8193682432174683
5.540334463119507,5.001660017401597,2.367216354053128,-71.34118927699978,0.04833984375,-0.33349609375,1.12060546875,3.2958984375,-21.6064453125,89.599609375,0.0,0.0,0.0,0.04747360944747925,0.008673615753650665,-0.583176851272583,-0.8109105825424194
5.560330629348755,4.852422945357757,2.2453499844476448,-73.20875424137803,0.3232421875,-0.3291015625,1.2783203125,13.3056640625,8.36181640625,98.44970703125,0.0,0.0,0.0,0.04564962908625603,0.009522860869765282,-0.5963031649589539,-0.801403820514679
5.582197666168213,4.668689149137121,2.1912815666475893,-75.8515525067419,0.138671875,-0.16943359375,0.83837890625,-6.65283203125,-7.6904296875,112.548828125,0.0,0.0,0.0,0.04386584460735321,0.009959593415260315,-0.6146321296691895,-0.7875303030014038
5.60036039352417,4.6932953325089155,2.0553631500418628,-77.60857085940349,0.1533203125,-0.23291015625,0.97705078125,-1.46484375,-20.263671875,116.0888671875,0.0,0.0,0.0,0.0431332066655159,0.011689495295286179,-0.62660813331604,-0.7780522108078003
5.6201372146606445,4.898133986378067,1.961950708188418,-80.18310138401307,0.2099609375,-0.15380859375,0.7060546875,-15.380859375,-1.15966796875,132.99560546875,0.0,0.0,0.0,0.043700989335775375,0.014429930597543716,-0.6438879370689392,-0.7637344598770142
5.64054012298584,4.94948975186057,1.8853808724979901,-82.90557380604513,0.26220703125,-0.36474609375,1.171875,5.4931640625,-1.5869140625,142.2119140625,0.0,0.0,0.0,0.04323967546224594,0.016261225566267967,-0.6618281602859497,-0.7482308745384216
5.660740613937378,4.797970542860299,1.8594882656847065,-85.76452023788322,0.3271484375,-0.3095703125,1.1767578125,9.09423828125,-7.9345703125,144.59228515625,0.0,0.0,0.0,0.041699811816215515,0.01660081371665001,-0.6803057789802551,-0.7315529584884644
5.679878234863281,4.590223509065192,1.6889555175824131,-88.73278384738737,0.28662109375,-0.29345703125,1.0224609375,22.27783203125,-23.3154296875,151.611328125,0.0,0.0,0.0,0.03892294317483902,0.017471501603722572,-0.699029266834259,-0.7138192057609558
5.700480937957764,4.398566693407341,1.5393617815978515,-91.85936441166322,0.2705078125,-0.14208984375,0.7509765625,-2.01416015625,0.42724609375,162.4755859375,0.0,0.0,0.0,0.03633354604244232,0.018233301118016243,-0.7182512879371643,-0.6945953369140625
5.720381259918213,4.46273205179138,1.4628268439052141,-95.12163351399057,0.2822265625,-0.27294921875,0.92724609375,2.5634765625,-9.94873046875,164.9169921875,0.0,0.0,0.0,0.03568488731980324,0.0201238002628088,-0.7377097606658936,-0.6738739013671875
5.74070143699646,4.359251697657925,1.3826528027671352,-98.47287949063566,0.419921875,-0.37646484375,1.16015625,13.00048828125,1.8310546875,169.00634765625,0.0,0.0,0.0,0.03396310284733772,0.020931679755449295,-0.7571070194244385,-0.6520715355873108
5.760244369506836,4.110968344912438,1.1750672389128747,-101.90119049168601,0.3544921875,-0.32861328125,1.06787109375,17.2119140625,-22.52197265625,173.4619140625,0.0,0.0,0.0,0.030553175136446953,0.021397264674305916,-0.7762942314147949,-0.6292662620544434
5.781376600265503,4.060707971018076,1.093754690617519,-106.40365802274759,0.32373046875,-0.1015625,0.59765625,-16.78466796875,-7.99560546875,181.09130859375,0.0,0.0,0.0,0.02885899879038334,0.022654803469777107,-0.8004139065742493,-0.5983240008354187
5.800596714019775,4.102708084884954,0.8798770817946487,-109.1656840702632,0.25390625,-0.33154296875,0.92041015625,8.72802734375,-21.8505859375,187.3779296875,0.0,0.0,0.0,0.02699708379805088,0.024723703041672707,-0.8145673274993896,-0.5789127945899963
5.820318937301636,3.885011599903253,0.6211007442150236,-112.88468792238929,0.5654296875,-0.34521484375,1.2060546875,21.240234375,-15.2587890625,184.02099609375,0.0,0.0,0.0,0.02325109764933586,0.02525227889418602,-0.8329404592514038,-0.552297055721283
5.842264175415039,3.3596396388048073,0.4338095400147222,-117.4555666281777,0.623046875,-0.1162109375,1.02099609375,15.44189453125,-2.86865234375,182.373046875,0.0,0.0,0.0,0.018451303243637085,0.02309064194560051,-0.8543948531150818,-0.5187829732894897
5.860818147659302,3.3268235680506577,0.3286983981756473,-120.21665693977702,0.4345703125,-0.0400390625,0.650390625,-2.99072265625,-25.146484375,182.31201171875,0.0,0.0,0.0,0.016952143982052803,0.023737307637929916,-0.8666418194770813,-0.49807748198509216
5.880279779434204,3.3762237649964213,-0.16109645489773727,-123.88859395833256,0.4951171875,-0.162109375,0.8828125,-3.47900390625,-12.26806640625,182.373046875,0.0,0.0,0.0,0.012615266256034374,0.02665805257856846,-0.8820873498916626,-0.4701617658138275
5.900208950042725,3.3052324863106013,-0.20303601753679731,-127.45284621443368,0.76904296875,-0.203125,1.1376953125,4.8828125,3.41796875,173.15673828125,0.0,0.0,0.0,0.011177933774888515,0.026644140481948853,-0.8962936401367188,-0.4425187110900879
5.923474073410034,3.0932942776860446,-0.21146216311570554,-130.86374706328965,0.65869140625,-0.1806640625,1.1484375,15.31982421875,-12.3291015625,168.02978515625,0.0,0.0,0.0,0.009544404223561287,0.025314193218946457,-0.9091139435768127,-0.4156680703163147
5.9354939460754395,2.9606946926867095,-0.14790245041197672,-134.22833922957295,0.64111328125,-0.0791015625,0.86181640625,5.2490234375,6.77490234375,167.236328125,0.0,0.0,0.0,0.008858062326908112,0.024302201345562935,-0.9209604263305664,-0.38879671692848206
5.960456848144531,2.9271556890975963,-0.4095228814300378,-137.46836240577358,0.515625,-0.119140625,0.82080078125,0.9765625,-16.54052734375,158.99658203125,0.0,0.0,0.0,0.005934392102062702,0.025097906589508057,-0.9315646886825562,-0.362659752368927
5.987611770629883,3.088578672394385,-0.7652103185437409,-141.46037574921425,0.6259765625,-0.14111328125,0.92919921875,-6.89697265625,-14.83154296875,156.6162109375,0.0,0.0,0.0,0.002592387842014432,0.02764219231903553,-0.9435516595840454,-0.330059677362442
6.000291109085083,3.1739859190971633,-0.7170087664364617,-143.7264002893927,0.826171875,-0.17236328125,1.1259765625,-3.0517578125,4.2724609375,144.59228515625,0.0,0.0,0.0,0.002676947508007288,0.028265196830034256,-0.949878990650177,-0.31132614612579346
6.020716190338135,3.019412334877428,-0.7482031475104092,-146.5395366424675,0.72998046875,-0.19287109375,1.19580078125,11.3525390625,-6.9580078125,135.7421875,0.0,0.0,0.0,0.0013333279639482498,0.027109432965517044,-0.9572684168815613,-0.28792455792427063
6.041297912597656,2.934641789871342,-0.8673717524762959,-149.28338755660172,0.6025390625,-0.07421875,0.84912109375,3.60107421875,5.0048828125,138.48876953125,0.0,0.0,0.0,-0.0005145965842530131,0.02669568546116352,-0.9638932943344116,-0.26494696736335754
6.055266380310059,3.047127108095224,-0.6121202727560734,-151.94429265345528,0.6220703125,-0.0908203125,0.85693359375,-0.06103515625,-4.21142578125,132.14111328125,0.0,0.0,0.0,0.0012640865752473474,0.027089130133390427,-0.9697868227958679,-0.24244225025177002
6.080229759216309,3.114964120044968,-1.0106516722642682,-154.4445380406518,0.607421875,-0.11962890625,0.93310546875,3.7841796875,-18.00537109375,120.42236328125,0.0,0.0,0.0,-0.002586779184639454,0.028455590829253197,-0.9747841954231262,-0.22131294012069702
6.100435972213745,3.0183754267840555,-1.1109097779350638,-156.7127345809863,0.77880859375,-0.095703125,1.05712890625,7.6904296875,3.7841796875,111.083984375,0.0,0.0,0.0,-0.004176344722509384,0.027749938890337944,-0.978984534740448,-0.2019944041967392
6.1203391551971436,2.8988005856451116,-1.1794685487810073,-158.81454771313932,0.7001953125,-0.0771484375,1.060546875,10.31494140625,-13.73291015625,102.35595703125,0.0,0.0,0.0,-0.005464501213282347,0.026753200218081474,-0.9825443625450134,-0.1840139627456665
6.140217542648315,2.721027837022605,-1.1761015856853085,-160.73425434164145,0.78662109375,-0.0556640625,1.140625,13.7939453125,7.75146484375,93.07861328125,0.0,0.0,0.0,-0.00614283187314868,0.025124117732048035,-0.9855296015739441,-0.16751867532730103
6.162381172180176,2.513683144058293,-1.3432143300041295,-163.0353587333971,0.51025390625,0.02294921875,0.74462890625,0.42724609375,-8.85009765625,92.71240234375,0.0,0.0,0.0,-0.008355309255421162,0.023421399295330048,-0.9887176156044006,-0.1477128267288208
6.180623531341553,2.5207888886726333,-1.282451473043815,-164.34574418604237,0.66064453125,-0.00048828125,0.86572265625,4.7607421875,8.23974609375,84.89990234375,0.0,0.0,0.0,-0.008088955655694008,0.023313675075769424,-0.990348219871521,-0.13638703525066376
6.201363563537598,2.3003812454772605,-1.496247279679204,-165.97919758642925,0.60302734375,-0.013671875,0.99755859375,8.544921875,-14.09912109375,79.40673828125,0.0,0.0,0.0,-0.01050690095871687,0.021514760330319405,-0.9922074675559998,-0.1222747266292572
6.215428829193115,2.2001682830880105,-1.837917034181925,-167.57855468247945,0.65966796875,0.05712890625,0.9140625,1.89208984375,-3.90625,77.0263671875,0.0,0.0,0.0,-0.01386431697756052,0.020818546414375305,-0.9937863349914551,-0.10845768451690674
6.240606307983398,2.098843067081106,-1.9267278495254854,-169.06573275160133,0.6513671875,0.02490234375,0.9697265625,11.23046875,-2.13623046875,72.08251953125,0.0,0.0,0.0,-0.01498909667134285,0.01983053795993328,-0.9951140284538269,-0.09555178135633469
6.260594606399536,1.9121646055545487,-2.1605218097204366,-170.4180555657505,0.6572265625,0.04638671875,0.9970703125,9.58251953125,5.31005859375,65.00244140625,0.0,0.0,0.0,-0.01739112287759781,0.018199151381850243,-0.9961639642715454,-0.08380783349275589
6.282073974609375,1.6852181234459467,-2.233601205301577,-171.52406809805066,0.685546875,0.07861328125,1.04931640625,17.08984375,-9.33837890625,51.33056640625,0.0,0.0,0.0,-0.018348682671785355,0.016102958470582962,-0.9969472885131836,-0.07416290044784546
6.3005452156066895,1.4560357148795173,-2.4631233090575084,-172.3309593258393,0.69189453125,0.10302734375,1.0595703125,9.70458984375,-0.6103515625,36.865234375,0.0,0.0,0.0,-0.020593788474798203,0.014111833646893501,-0.9974321126937866,-0.06712666898965836
6.320330858230591,1.2888327907193111,-2.5299287489991684,-172.87007981740675,0.6328125,0.12939453125,0.994140625,11.8408203125,1.953125,23.4375,0.0,0.0,0.0,-0.021332720294594765,0.01259505283087492,-0.9977431893348694,-0.06240886449813843
6.336568593978882,1.0876099749637407,-2.500288716209075,-173.27229599725047,0.41357421875,0.20166015625,0.75390625,2.74658203125,1.15966796875,21.484375,0.0,0.0,0.0,-0.021222064271569252,0.010752549394965172,-0.9979823231697083,-0.05886665731668472
6.360018730163574,0.9370558503488519,-2.5571820575611657,-173.64918583565176,0.451171875,0.236328125,0.94189453125,6.28662109375,8.9111328125,16.9677734375,0.0,0.0,0.0,-0.021825915202498436,0.00939866155385971,-0.9981725811958313,-0.05555954575538635
6.375381946563721,0.8664126445064381,-2.3814534564911964,-173.97152978334134,0.3544921875,0.30126953125,0.96728515625,1.40380859375,8.72802734375,16.7236328125,0.0,0.0,0.0,-0.0203537717461586,0.008641411550343037,-0.9983640313148499,-0.052728068083524704
6.400616884231567,0.7134823077514725,-2.4413044831973143,-174.24480565203356,0.201171875,0.3251953125,0.9912109375,-2.74658203125,1.89208984375,12.451171875,0.0,0.0,0.0,-0.02096301130950451,0.007286435458809137,-0.9984864592552185,-0.050322506576776505
6.421017169952393,0.5536702352426016,-2.4893945644829047,-174.4113393243768,0.22314453125,0.328125,1.02880859375,4.7607421875,3.84521484375,5.37109375,0.0,0.0,0.0,-0.02146078087389469,0.005883754231035709,-0.9985585808753967,-0.048843707889318466
6.435541391372681,0.29582157609048176,-2.384353725567513,-174.4400124585125,0.13134765625,0.302734375,0.9716796875,6.103515625,5.18798828125,1.0986328125,0.0,0.0,0.0,-0.020656174048781395,0.0035870361607521772,-0.9986010193824768,-0.048544034361839294
6.460538625717163,0.13853810097733057,-2.1484757039020614,-174.3240358464057,0.099609375,0.3916015625,0.95361328125,-2.9296875,18.6767578125,-11.8408203125,0.0,0.0,0.0,-0.01866503246128559,0.0021355210337787867,-0.99859619140625,-0.04952583089470863
6.480534791946411,-0.06268744285184397,-1.8213489162461782,-173.83584124528986,0.0,0.3837890625,1.07080078125,3.47900390625,11.1083984375,-30.1513671875,0.0,0.0,0.0,-0.015900015830993652,0.00030835194047540426,-0.9984277486801147,-0.05375100299715996
6.500428199768066,-0.3087021389263622,-1.6068851384543035,-173.03429122543218,-0.03173828125,0.4013671875,1.0263671875,-0.06103515625,12.51220703125,-44.7998046875,0.0,0.0,0.0,-0.014159947633743286,-0.001836843672208488,-0.9980536103248596,-0.06070597469806671
6.520521879196167,-0.4562763267115684,-1.3185021719784944,-171.9468021661611,-0.0341796875,0.41455078125,1.02734375,-0.9765625,10.55908203125,-58.837890625,0.0,0.0,0.0,-0.011756934225559235,-0.003163730027154088,-0.9974609017372131,-0.07016871124505997
6.540520191192627,-0.6095456649649488,-1.0475156973187079,-170.6084949001888,-0.08056640625,0.35693359375,0.98876953125,-0.67138671875,16.4794921875,-69.76318359375,0.0,0.0,0.0,-0.00954580120742321,-0.00455285981297493,-0.9965917468070984,-0.08181163668632507
6.560502767562866,-0.9117254534816249,-0.7911364359726399,-169.162338947222,-0.13427734375,0.34716796875,1.11376953125,4.33349609375,5.0048828125,-71.533203125,0.0,0.0,0.0,-0.007624173536896706,-0.007268521003425121,-0.995481014251709,-0.09437564760446548
6.581140041351318,-1.029789862318644,-0.7140569507762526,-167.67786563301144,-0.15380859375,0.39892578125,0.93798828125,-5.67626953125,-2.74658203125,-74.03564453125,0.0,0.0,0.0,-0.0071594868786633015,-0.008265674114227295,-0.9941707253456116,-0.1072617694735527
6.600398540496826,-1.1956133017099193,-0.5822117281542338,-166.19453979058142,-0.08056640625,0.3134765625,1.01513671875,2.44140625,4.7607421875,-73.8525390625,0.0,0.0,0.0,-0.006297558080404997,-0.009747154079377651,-0.9926910996437073,-0.12012343108654022
6.620215177536011,-1.422363629323295,-0.4863595213849194,-164.7867421799934,-0.12744140625,0.34423828125,1.0029296875,-0.8544921875,0.67138671875,-68.54248046875,0.0,0.0,0.0,-0.0058495961129665375,-0.01174103282392025,-0.9911220073699951,-0.1323075145483017
6.640793085098267,-1.5201420561602588,-0.34479517969781037,-163.48400653921854,-0.1181640625,0.35791015625,1.02099609375,-3.96728515625,1.40380859375,-64.14794921875,0.0,0.0,0.0,-0.004882744047790766,-0.0126956170424819,-0.9895455837249756,-0.1435779333114624
6.661293983459473,-1.6456823204872684,-0.22182344002469587,-162.26894320662996,-0.12158203125,0.31982421875,1.03271484375,-0.06103515625,0.67138671875,-59.50927734375,0.0,0.0,0.0,-0.004125671926885843,-0.013890891335904598,-0.9879533648490906,-0.15407229959964752
6.68070387840271,-1.8393661015030258,-0.11026896185885271,-161.15019920171687,-0.10595703125,0.30859375,0.9794921875,2.25830078125,0.79345703125,-54.13818359375,0.0,0.0,0.0,-0.0035775606520473957,-0.015676574781537056,-0.9863761067390442,-0.1637183278799057
6.700910329818726,-2.025892804763962,-0.03122630753924256,-160.12989188312204,-0.10791015625,0.32861328125,0.96484375,-1.03759765625,-1.89208984375,-49.4384765625,0.0,0.0,0.0,-0.003318444825708866,-0.017366215586662292,-0.9848508238792419,-0.17249999940395355
6.720376968383789,-2.138001181923024,-0.020052459900065527,-159.223512119883,-0.09033203125,0.33154296875,1.009765625,-3.11279296875,-5.06591796875,-43.64013671875,0.0,0.0,0.0,-0.0035361817572265863,-0.01831914111971855,-0.9834378361701965,-0.18028269708156586
6.740929365158081,-2.2931549053353875,-0.03189670994958848,-158.42722134568623,-0.03076171875,0.2890625,1.03515625,1.40380859375,-3.23486328125,-37.9638671875,0.0,0.0,0.0,-0.0040182508528232574,-0.01960458606481552,-0.9821361303329468,-0.18710510432720184
6.7563581466674805,-2.4958890071665287,-0.07595690625369864,-157.8166707357788,-0.0283203125,0.27978515625,0.99462890625,0.8544921875,-3.72314453125,-25.69580078125,0.0,0.0,0.0,-0.004840142093598843,-0.021244708448648453,-0.9810904860496521,-0.1923193484544754
6.780316591262817,-2.7266264577078996,-0.12265293525751886,-157.42177651872535,0.009765625,0.29833984375,1.01806640625,2.8076171875,-3.23486328125,-15.93017578125,0.0,0.0,0.0,-0.0057068681344389915,-0.023122243583202362,-0.9803786873817444,-0.19567927718162537
6.8003480434417725,-2.95611974660327,-0.15725116511672588,-157.17498812363445,0.02880859375,0.31689453125,1.03076171875,2.99072265625,-1.953125,-9.94873046875,0.0,0.0,0.0,-0.00644861301407218,-0.025012679398059845,-0.9799079895019531,-0.19777065515518188
6.820714712142944,-3.1601520112635373,-0.14833261892755528,-157.05103385057706,0.0087890625,0.3173828125,1.0078125,1.46484375,0.91552734375,-4.8828125,0.0,0.0,0.0,-0.00675343070179224,-0.02676549181342125,-0.9796470999717712,-0.19882071018218994
6.840702056884766,-3.2999553114031204,-0.1045017875794893,-156.978114750998,-0.01123046875,0.3271484375,0.96875,-2.197265625,3.5400390625,-2.685546875,0.0,0.0,0.0,-0.006639137864112854,-0.02803250588476658,-0.9794851541519165,-0.19944657385349274
6.860828638076782,-3.4241388226845304,-0.02133793118383635,-156.92826803043525,-0.03076171875,0.30517578125,0.974609375,-3.5400390625,3.173828125,-2.25830078125,0.0,0.0,0.0,-0.006157166324555874,-0.02923605777323246,-0.9793634414672852,-0.19988656044006348
6.880808353424072,-3.5635741463825785,0.0516738161760513,-156.87510183793586,-0.0205078125,0.27490234375,1.01904296875,-1.89208984375,1.8310546875,-2.9296875,0.0,0.0,0.0,-0.005790583789348602,-0.030552398413419724,-0.9792302846908569,-0.20035265386104584
6.901038408279419,-3.7044517072125576,0.11243902768399948,-156.8215668152213,-0.02685546875,0.25634765625,1.01318359375,-2.38037109375,2.9296875,-2.8076171875,0.0,0.0,0.0,-0.005532531533390284,-0.0318598635494709,-0.9790944457054138,-0.20081962645053864
6.916369199752808,-3.72767563105107,0.15554724636221928,-156.74456326251857,0.02197265625,0.115234375,0.9306640625,-12.5732421875,5.2490234375,-5.4931640625,0.0,0.0,0.0,-0.005226495210081339,-0.03213031217455864,-0.9789499044418335,-0.20148827135562897
6.941580533981323,-3.5304069612164084,0.2608246739591149,-156.67220423845146,-0.03564453125,0.05078125,1.08056640625,-3.84521484375,8.9111328125,-2.13623046875,0.0,0.0,0.0,-0.003999520093202591,-0.030627520754933357,-0.9788689613342285,-0.20214247703552246
6.960277557373047,-3.136372494224726,0.4897342218042875,-156.6765482387636,-0.04296875,-0.1259765625,0.9345703125,-15.625,6.4697265625,-1.0986328125,0.0,0.0,0.0,-0.0013477073516696692,-0.02766498550772667,-0.978958785533905,-0.20217017829418182
6.975680828094482,-2.7602230910181347,0.5703095899169577,-156.64519767047324,-0.0166015625,-0.12255859375,0.962890625,-17.08984375,17.2119140625,1.03759765625,0.0,0.0,0.0,-2.353271383981337e-06,-0.024593401700258255,-0.9789823293685913,-0.2024572193622589
7.000313758850098,-2.5252833665899135,0.7220474183315213,-156.60059653519306,-0.0615234375,-0.0185546875,1.03076171875,-5.55419921875,9.033203125,-0.54931640625,0.0,0.0,0.0,0.0017002896638587117,-0.022854652255773544,-0.9789385199546814,-0.2028648853302002
7.020440340042114,-2.2725040418232654,0.8574125896144769,-156.5761717787211,-0.07373046875,-0.138671875,1.02392578125,3.96728515625,-1.5869140625,-3.173828125,0.0,0.0,0.0,0.003299844218418002,-0.0209351759403944,-0.978930652141571,-0.20309065282344818
7.041080951690674,-1.9334186601477474,1.0237259349961418,-156.5947772140202,-0.08740234375,-0.15869140625,0.927734375,-6.7138671875,1.89208984375,1.40380859375,0.0,0.0,0.0,0.005324698053300381,-0.0183318592607975,-0.9790045619010925,-0.2029426246881485
7.060746192932129,-1.6475984019928684,1.0442347519178687,-156.58793336447184,-0.029296875,-0.1572265625,1.0234375,-3.7841796875,3.5400390625,0.732421875,0.0,0.0,0.0,0.006005153059959412,-0.015926552936434746,-0.9790330529212952,-0.20298926532268524
7.084100723266602,-1.4974016883706418,1.0544991388582228,-156.55428785262038,0.02099609375,-0.15478515625,1.11376953125,5.55419921875,0.30517578125,-2.86865234375,0.0,0.0,0.0,0.006354604382067919,-0.0146633330732584,-0.9789924621582031,-0.20326973497867584
7.100628614425659,-1.3776092416736097,1.0389459443444575,-156.50224181114487,-0.02685546875,-0.08154296875,0.98583984375,-2.01416015625,3.11279296875,-1.40380859375,0.0,0.0,0.0,0.006428028456866741,-0.013615263625979424,-0.978916347026825,-0.20370632410049438
7.120301008224487,-1.1184338716360676,1.0527673657385073,-156.4462479203291,-0.025390625,-0.13720703125,0.98583984375,0.0,-1.40380859375,-2.38037109375,0.0,0.0,0.0,0.007001236546784639,-0.011429153382778168,-0.978843629360199,-0.20417043566703796
7.14264178276062,-0.8576392665175566,1.0471220009460802,-156.44299675028418,-0.04541015625,-0.1337890625,0.978515625,1.0986328125,-3.90625,1.953125,0.0,0.0,0.0,0.007417394779622555,-0.009191572666168213,-0.9788618683815002,-0.20418153703212738
7.1606690883636475,-0.6793076163218723,1.0030201098055425,-156.50893539653148,-0.0546875,-0.1181640625,0.93896484375,-2.25830078125,-6.04248046875,6.16455078125,0.0,0.0,0.0,0.007362767122685909,-0.007585449144244194,-0.9789960980415344,-0.2036048173904419
7.181098222732544,-0.4290688818026309,0.9031848355330528,-156.6270976691727,0.02392578125,-0.09814453125,1.00439453125,-1.15966796875,-1.89208984375,7.50732421875,0.0,0.0,0.0,0.006959846243262291,-0.005263063125312328,-0.9792275428771973,-0.2025769203901291
7.200693130493164,-0.2436048332465872,0.792028042463591,-156.776036774214,0.03857421875,-0.10498046875,1.0546875,3.41796875,-2.74658203125,9.033203125,0.0,0.0,0.0,0.006342330947518349,-0.003473494201898575,-0.9795045852661133,-0.20129188895225525
7.216986656188965,-0.07562159999434655,0.749014339196054,-157.02252464098143,-0.041015625,-0.0751953125,0.98291015625,2.01416015625,-5.37109375,13.85498046875,0.0,0.0,0.0,0.006273934151977301,-0.0019485637312754989,-0.9799419045448303,-0.19917532801628113
7.24020791053772,0.08189397481855949,0.8013912713203265,-157.34152179597768,-0.0703125,-0.06884765625,0.94775390625,1.52587890625,-5.06591796875,16.78466796875,0.0,0.0,0.0,0.006997518707066774,-0.0006731125176884234,-0.9804912805557251,-0.19643685221672058
7.261898517608643,0.2833257716843699,0.7898362987919574,-157.70072144442867,-0.0283203125,-0.10205078125,0.9482421875,-4.69970703125,-5.126953125,17.7001953125,0.0,0.0,0.0,0.007240550592541695,0.0010929309064522386,-0.981102466583252,-0.1933501660823822
7.2802510261535645,0.5767568616066265,0.6268432791205648,-158.02708154335022,0.05126953125,-0.13525390625,1.0517578125,-1.5869140625,-5.18798828125,15.80810546875,0.0,0.0,0.0,0.0063290721736848354,0.0038983274716883898,-0.9816504716873169,-0.19054482877254486
7.302953243255615,0.7365777386562243,0.5365302490464249,-158.4116075332436,-0.0146484375,-0.0693359375,1.1064453125,2.0751953125,-3.173828125,20.44677734375,0.0,0.0,0.0,0.005802952218800783,0.005437154322862625,-0.9822808504104614,-0.18724636733531952
7.320581912994385,0.8677125148828561,0.5360870871631674,-158.85178590449422,-0.015625,-0.03515625,0.96728515625,0.244140625,-0.48828125,23.8037109375,0.0,0.0,0.0,0.005988177843391895,0.006585015915334225,-0.9829859137535095,-0.18346507847309113
7.34083366394043,1.070018716034667,0.599533141250239,-159.34839529866753,-0.02587890625,-0.033203125,0.93896484375,-2.0751953125,-5.18798828125,25.146484375,0.0,0.0,0.0,0.006820618640631437,0.008248435333371162,-0.9837568998336792,-0.17918699979782104
7.3602683544158936,1.2079490502377854,0.5076406832913866,-159.85060544796022,0.037109375,-0.04736328125,1.08447265625,2.62451171875,1.64794921875,24.5361328125,0.0,0.0,0.0,0.006205401383340359,0.009603604674339294,-0.9845243096351624,-0.17487451434135437
7.380636930465698,1.1819991338684972,0.37835886268138524,-160.34164140777077,-0.0048828125,-0.0263671875,1.03662109375,5.67626953125,-1.8310546875,24.71923828125,0.0,0.0,0.0,0.005013985093683004,0.009599616751074791,-0.9852691292762756,-0.17066773772239685
7.401010036468506,1.0983396685413016,0.4002927345404118,-160.861910577229,-0.06298828125,0.0029296875,0.92041015625,-1.708984375,-8.30078125,26.2451171875,0.0,0.0,0.0,0.005037751514464617,0.008870585821568966,-0.9860402941703796,-0.1661943644285202
7.420387506484985,1.0125241045922038,0.2829549404372058,-161.37619650097426,0.06103515625,-0.01708984375,1.01806640625,1.64794921875,1.28173828125,25.32958984375,0.0,0.0,0.0,0.003866320475935936,0.00831983145326376,-0.9867841601371765,-0.161780446767807
7.440125465393066,0.9515515394800288,0.07075539036550997,-161.87109834785505,0.046875,-0.0234375,1.01513671875,5.43212890625,-2.8076171875,24.658203125,0.0,0.0,0.0,0.0019179437076672912,0.008102783001959324,-0.9874783158302307,-0.15753485262393951
7.460571050643921,0.8227419624181104,-0.05000891421016772,-162.37874532772707,0.03857421875,0.02978515625,0.96875,-2.44140625,1.708984375,25.57373046875,0.0,0.0,0.0,0.0006684617255814373,0.007161837071180344,-0.9881740212440491,-0.15316832065582275
7.482843399047852,0.7360386873203222,-0.20859150931274323,-162.89223894952863,0.03271484375,-0.001953125,1.01806640625,-0.79345703125,0.30517578125,25.5126953125,0.0,0.0,0.0,-0.0008446499123238027,0.006622391287237406,-0.9888527393341064,-0.1487477570772171
7.504080057144165,0.6596819748763398,-0.4144096149769175,-163.3783981542718,0.01953125,0.005859375,0.9697265625,-1.0986328125,-2.44140625,24.169921875,0.0,0.0,0.0,-0.002746265847235918,0.0062190028838813305,-0.9894727468490601,-0.1445600688457489
7.516860723495483,0.5128487025335213,-0.41195368172262187,-163.85364271672128,-0.00439453125,0.017578125,1.02734375,0.67138671875,-3.96728515625,23.681640625,0.0,0.0,0.0,-0.0029307869262993336,0.004935915116220713,-0.9900709986686707,-0.1404513716697693
7.540250301361084,0.3553491293063759,-0.48231065995012984,-164.295993088128,0.08544921875,0.0322265625,1.14599609375,3.90625,4.33349609375,22.0947265625,0.0,0.0,0.0,-0.003745820838958025,0.0036469006445258856,-0.9906089901924133,-0.13662590086460114
7.560248136520386,0.15684352822128042,-0.5325840005317443,-164.76058255547227,-0.00341796875,0.0322265625,1.001953125,2.62451171875,-2.74658203125,23.8037109375,0.0,0.0,0.0,-0.004425125662237406,0.0019728830084204674,-0.991157591342926,-0.13260208070278168
7.580465078353882,0.01844063030496173,-0.4026685731545184,-165.2487498358314,-0.0244140625,0.013671875,0.86669921875,1.5869140625,-0.67138671875,24.84130859375,0.0,0.0,0.0,-0.0034642056562006474,0.0006106898654252291,-0.991719663143158,-0.12837351858615875
7.600220680236816,-0.10174181752563559,-0.23317385372350835,-165.7477497962142,-0.025390625,0.0283203125,0.9248046875,-0.18310546875,0.91552734375,25.146484375,0.0,0.0,0.0,-0.0021292483434081078,-0.000628576788585633,-0.9922732710838318,-0.12405180186033249
7.620460748672485,-0.1199102407797885,-0.1327414314865318,-166.2654234937878,-0.0625,0.041015625,1.00830078125,-5.9814453125,-2.3193359375,27.099609375,0.0,0.0,0.0,-0.001275195856578648,-0.0009003977756947279,-0.9928246736526489,-0.11956869065761566
7.640225410461426,-0.09292587091636063,-0.012299878362037017,-166.78275568190293,-0.04443359375,0.0078125,1.0712890625,-2.5634765625,-5.126953125,24.4140625,0.0,0.0,0.0,-0.000199950736714527,-0.0007931897998787463,-0.9933552145957947,-0.11508648097515106
7.660217523574829,-0.17476626476851123,-0.05020738323238816,-167.15215963297388,0.00830078125,0.009765625,1.02734375,0.42724609375,-2.01416015625,14.2822265625,0.0,0.0,0.0,-0.0006060271407477558,-0.0014665259514003992,-0.9937201142311096,-0.1118830069899559
7.6803014278411865,-0.2994775415654369,0.04590178605907484,-167.35755708169452,-0.0439453125,0.02294921875,0.9521484375,0.48828125,-2.8076171875,8.4228515625,0.0,0.0,0.0,0.00011038668890250847,-0.002641645958647132,-0.9939166307449341,-0.11010312288999557
7.700243949890137,-0.4152145367623476,0.2455913510780031,-167.49504878968688,-0.03466796875,0.0361328125,0.99462890625,-0.79345703125,-1.3427734375,5.7373046875,0.0,0.0,0.0,0.0017357992473989725,-0.0038352729752659798,-0.9940420389175415,-0.10891658067703247
7.7205212116241455,-0.44750070756686566,0.3115536361831368,-167.61153083579228,-0.046875,0.04052734375,0.97265625,-7.4462890625,-5.2490234375,6.591796875,0.0,0.0,0.0,0.0022815573029220104,-0.004175713285803795,-0.9941494464874268,-0.10790872573852539
7.740346431732178,-0.5274244329440343,0.2717256291940288,-167.74642707190003,0.04150390625,0.01904296875,1.1474609375,0.732421875,4.69970703125,6.53076171875,0.0,0.0,0.0,0.0018664496019482613,-0.004829406272619963,-0.9942736625671387,-0.1067383661866188
7.760342597961426,-0.6442328873865644,0.1652235566830778,-167.87434285467603,0.009765625,0.0244140625,1.08349609375,3.35693359375,0.06103515625,6.53076171875,0.0,0.0,0.0,0.0008399741491302848,-0.005742795765399933,-0.9943890571594238,-0.10562528669834137
7.775654077529907,-0.7788754459996736,0.21345593802311458,-168.03533041341322,-0.06787109375,0.0361328125,0.91845703125,2.25830078125,-5.9814453125,8.6669921875,0.0,0.0,0.0,0.0011441796086728573,-0.006954025477170944,-0.9945281147956848,-0.10423191636800766
7.800581455230713,-0.9382291487822131,0.19646301433750463,-168.20124936873117,0.0244140625,0.02783203125,0.9365234375,2.50244140625,-1.46484375,7.4462890625,0.0,0.0,0.0,0.0008638006402179599,-0.008320339024066925,-0.9946677088737488,-0.10279212146997452
7.820949077606201,-1.0774831523021389,0.00586241339661343,-168.35726454975259,-0.01171875,0.02197265625,1.03515625,4.638671875,-10.1318359375,9.09423828125,0.0,0.0,0.0,-0.0009027945925481617,-0.009359374642372131,-0.9947988986968994,-0.10142325609922409
7.840536117553711,-1.24495031940586,-0.06720523279173056,-168.62360094624808,0.02978515625,0.05078125,1.03759765625,0.91552734375,-3.23486328125,16.845703125,0.0,0.0,0.0,-0.0016603401163592935,-0.010752405039966106,-0.9950178265571594,-0.09910264611244202
7.860799074172974,-1.3254273434666526,-0.33148210046882415,-169.08420158311705,0.0888671875,0.0400390625,1.00927734375,0.0,-2.74658203125,26.79443359375,0.0,0.0,0.0,-0.003979529719799757,-0.011238669976592064,-0.9953988194465637,-0.09507425129413605
7.880294322967529,-1.3842778541810692,-0.6402252738910593,-169.72849332752435,0.0673828125,0.033203125,0.9677734375,1.0986328125,-5.67626953125,35.5224609375,0.0,0.0,0.0,-0.0066454713232815266,-0.011531037278473377,-0.9959033131599426,-0.08944070339202881
7.900298118591309,-1.4438300601109988,-0.9712445756827622,-170.4951820618583,0.06689453125,0.05126953125,0.91943359375,-2.25830078125,-4.08935546875,40.1611328125,0.0,0.0,0.0,-0.009489624761044979,-0.011853542178869247,-0.9964560270309448,-0.0827341228723526
7.9204652309417725,-1.4444935489558421,-1.0890860428764038,-171.33047321621584,0.17626953125,0.0634765625,1.10986328125,-0.3662109375,7.14111328125,42.6025390625,0.0,0.0,0.0,-0.010428693145513535,-0.01185033842921257,-0.9970243573188782,-0.07545484602451324
7.940392255783081,-1.553573484269944,-1.279584607861408,-172.23483124346055,0.04150390625,0.05322265625,1.09033203125,2.5634765625,-4.45556640625,46.5087890625,0.0,0.0,0.0,-0.012057517655193806,-0.012769093737006187,-0.9975612759590149,-0.06755051016807556
7.960522413253784,-1.6853414937378302,-1.4220729193967463,-173.14291855399208,0.0361328125,0.04931640625,0.90576171875,-2.8076171875,-3.96728515625,45.22705078125,0.0,0.0,0.0,-0.013265511952340603,-0.013937335461378098,-0.99803626537323,-0.05961032211780548
7.980242729187012,-1.6469963848505553,-1.6543304071935623,-174.04533680751248,0.0458984375,0.021484375,0.95751953125,-1.40380859375,-0.3662109375,45.2880859375,0.0,0.0,0.0,-0.015161707997322083,-0.013601611368358135,-0.9984537363052368,-0.05172283947467804
8.003745079040527,-1.5181811515382304,-1.5456738368862954,-175.24264164825905,-0.013671875,0.02880859375,0.97216796875,-1.28173828125,-0.67138671875,49.560546875,0.0,0.0,0.0,-0.014025137759745121,-0.012675860896706581,-0.9989672303199768,-0.04131794348359108
8.020553350448608,-1.4821411247741292,-1.4361141875047059,-176.0060928729264,-0.00439453125,0.00927734375,1.009765625,3.96728515625,-0.3662109375,51.1474609375,0.0,0.0,0.0,-0.012974131852388382,-0.012488228268921375,-0.9992363452911377,-0.03467870503664017
8.040883779525757,-1.4303453456986897,-1.409209005146968,-177.02190592704738,-0.0244140625,0.0400390625,0.9716796875,-4.33349609375,-8.1787109375,51.20849609375,0.0,0.0,0.0,-0.012616573832929134,-0.012157101184129715,-0.9995129108428955,-0.02582845650613308
8.061541557312012,-1.4969696789056386,-1.554500789171479,-178.271079224351,0.10791015625,0.08349609375,1.09326171875,-0.18310546875,1.77001953125,49.37744140625,0.0,0.0,0.0,-0.013759528286755085,-0.01285582222044468,-0.9997115731239319,-0.014907280914485455
8.080806493759155,-1.5727099667770272,-1.6328332405545933,-178.9682366329342,0.06298828125,0.109375,1.0380859375,-2.50244140625,0.8544921875,44.7998046875,0.0,0.0,0.0,-0.014370310120284557,-0.013593824580311775,-0.9997655749320984,-0.008806362748146057
8.10098147392273,-1.653435012082056,-1.6238863330721114,-179.75603065180348,0.03076171875,0.12158203125,0.9873046875,-3.60107421875,4.69970703125,36.2548828125,0.0,0.0,0.0,-0.014199815690517426,-0.014396793209016323,-0.9997937083244324,-0.0019241917179897428
8.120675563812256,-1.8501872555824415,-1.4814504218943116,179.66167841860891,0.04541015625,0.083984375,1.0625,5.67626953125,11.474609375,25.5126953125,0.0,0.0,0.0,-0.012878328561782837,-0.01618197187781334,-0.9997811317443848,0.0031605048570781946
8.140907526016235,-2.0508394303771986,-1.2915426682725135,179.2730406548352,-0.08203125,0.11328125,0.947265625,2.13623046875,-1.3427734375,15.625,0.0,0.0,0.0,-0.011155041866004467,-0.01796598546206951,-0.9997550249099731,0.006544163916260004
8.167576789855957,-2.270285724446892,-1.1172402960786079,179.026320561636,-0.04248046875,0.134765625,1.03271484375,0.1220703125,-2.3193359375,4.33349609375,0.0,0.0,0.0,-0.009579021483659744,-0.019891850650310516,-0.9997184872627258,0.008687914349138737
8.175374984741211,-2.3770667674967556,-1.08381804603562,178.9864868983965,-0.03466796875,0.115234375,1.10791015625,3.2958984375,-2.50244140625,4.21142578125,0.0,0.0,0.0,-0.009272103197872639,-0.02082422561943531,-0.9996992945671082,0.009038383141160011
8.20113468170166,-2.6375866175837324,-1.041706728151318,178.93456380032603,-0.01513671875,0.12255859375,1.05322265625,5.43212890625,-2.74658203125,2.38037109375,0.0,0.0,0.0,-0.008873702958226204,-0.023097803816199303,-0.9996486902236938,0.00950392335653305
8.220595598220825,-2.853181538735185,-0.9791417684671779,178.8634888518229,-0.0087890625,0.142578125,0.95751953125,-0.18310546875,1.40380859375,4.33349609375,0.0,0.0,0.0,-0.0082945441827178,-0.024978715926408768,-0.9996023178100586,0.010127104818820953
8.24022126197815,-3.0549922843679056,-0.8790174918154321,178.75689691963566,-0.01171875,0.11767578125,1.00537109375,2.01416015625,1.46484375,6.53076171875,0.0,0.0,0.0,-0.007378460373729467,-0.026737505570054054,-0.9995542764663696,0.011048241518437862
8.260713815689087,-3.2581867836377882,-0.7657476089714976,178.62926800480483,-0.03173828125,0.1083984375,0.986328125,1.64794921875,-0.732421875,6.591796875,0.0,0.0,0.0,-0.006339128129184246,-0.02850644290447235,-0.9994997382164001,0.012146473862230778
8.280480146408081,-3.423211624504701,-0.6962668159484553,178.5080731281721,-0.05126953125,0.1162109375,0.97119140625,-0.3662109375,-6.16455078125,6.28662109375,0.0,0.0,0.0,-0.00568395433947444,-0.029944701120257378,-0.999448299407959,0.013194526545703411
8.300348281860352,-3.5449674304229943,-0.6094699992755498,178.40429523392294,-0.01904296875,0.10986328125,0.99853515625,-1.89208984375,-0.732421875,5.37109375,0.0,0.0,0.0,-0.004884849302470684,-0.03100132942199707,-0.9994082450866699,0.014082315377891064
8.320544242858887,-3.734067407453733,-0.5738934648796574,178.3316493419107,0.02880859375,0.09375,1.0654296875,1.77001953125,4.8828125,2.74658203125,0.0,0.0,0.0,-0.004530638922005892,-0.03264912590384483,-0.9993483424186707,0.014713862910866737
8.340278387069702,-3.937207051766844,-0.5730359026128505,178.28181628172626,0.02001953125,0.10791015625,1.04296875,2.197265625,4.08935546875,2.197265625,0.0,0.0,0.0,-0.00448210071772337,-0.03442249447107315,-0.9992824196815491,0.015156188048422337
8.360575437545776,-4.1134878309425265,-0.459757748836718,178.22339084356597,-0.009765625,0.1103515625,0.9541015625,-0.732421875,2.99072265625,2.685546875,0.0,0.0,0.0,-0.0034526705276221037,-0.0359468050301075,-0.999225378036499,0.015637122094631195
8.380608081817627,-4.221954650056913,-0.31103267417636465,178.17299770786963,-0.02099609375,0.0859375,0.951171875,-2.13623046875,-0.18310546875,2.197265625,0.0,0.0,0.0,-0.002124822000041604,-0.03687359392642975,-0.9991890788078308,0.01603206805884838
8.40060567855835,-4.352168791488622,-0.18520311398540806,178.14040404515032,0.0029296875,0.0888671875,0.982421875,-2.5634765625,1.89208984375,1.03759765625,0.0,0.0,0.0,-0.0009986594086512923,-0.03799186646938324,-0.999144971370697,0.016277004033327103
8.420763731002808,-4.43508088471023,-0.0072066158028604305,178.14209793206447,-0.0166015625,0.0830078125,1.0625,0.54931640625,1.03759765625,-0.1220703125,0.0,0.0,0.0,0.0005644906195811927,-0.03868965059518814,-0.9991198182106018,0.01620286889374256
8.440281391143799,-4.4870099591961905,0.14597457615788773,178.16385891476014,-0.05126953125,0.09375,1.0751953125,1.77001953125,-2.86865234375,-0.3662109375,0.0,0.0,0.0,0.0018999611493200064,-0.03912109509110451,-0.9991052150726318,0.01596054621040821
8.455939292907715,-4.517081574564464,0.28804287107990995,178.1612771032539,-0.04931640625,0.0986328125,0.9716796875,-3.11279296875,-1.28173828125,0.42724609375,0.0,0.0,0.0,0.003143688663840294,-0.03936326503753662,-0.9990929961204529,0.015933629125356674
8.48028826713562,-4.492401112885446,0.43470597566285996,178.14267166795477,-0.05322265625,0.06640625,0.96044921875,-2.5634765625,-1.77001953125,1.5869140625,0.0,0.0,0.0,0.004425327759236097,-0.0391266867518425,-0.999095618724823,0.016046252101659775
8.501539468765259,-4.353258633548062,0.5425078385089497,178.09703234392074,-0.0419921875,0.0166015625,1.02685546875,2.197265625,-1.03759765625,2.685546875,0.0,0.0,0.0,0.00536087341606617,-0.03789598494768143,-0.9991325736045837,0.016413874924182892
8.517416715621948,-4.246411849927437,0.5407179554204361,178.02938615038093,-0.04296875,0.0146484375,1.0009765625,3.96728515625,-6.53076171875,4.39453125,0.0,0.0,0.0,0.00535177905112505,-0.036961473524570465,-0.9991576075553894,0.01700923591852188
8.538268566131592,-4.076458814130948,0.5311988595124069,177.8686991199672,-0.01513671875,0.021484375,0.96826171875,0.42724609375,-2.86865234375,9.6435546875,0.0,0.0,0.0,0.005293288268148899,-0.03547361493110657,-0.9991868734359741,0.01842118427157402
8.555578470230103,-3.8362495987580623,0.40958835519653475,177.61887812088483,0.005859375,0.03857421875,1.02490234375,-3.662109375,-3.23486328125,13.0615234375,0.0,0.0,0.0,0.004267002921551466,-0.03338966891169548,-0.9992201328277588,0.020646294578909874
8.581021785736084,-3.6411277427569,0.24078361827382813,177.3231036090666,0.0166015625,0.03515625,1.0830078125,-3.11279296875,-1.64794921875,15.625,0.0,0.0,0.0,0.0028416740242391825,-0.03171169012784958,-0.999221920967102,0.02327960915863514
8.59767460823059,-3.4396632023377345,0.08147451182409213,176.8709177652551,0.009765625,0.01123046875,0.9716796875,2.3193359375,-1.220703125,20.69091796875,0.0,0.0,0.0,0.0015298387734219432,-0.029981615021824837,-0.9991773366928101,0.02726941742002964
8.620309829711914,-3.273536139693511,0.012750093883035978,176.55610068603085,-0.00634765625,0.03759765625,0.919921875,-0.732421875,-4.69970703125,23.0712890625,0.0,0.0,0.0,0.0009694670443423092,-0.028546864166855812,-0.999140739440918,0.030033716931939125
8.640303373336792,-3.079492599807564,-0.05806228420583463,176.1113187672796,0.04345703125,0.0390625,1.02392578125,-3.35693359375,1.953125,21.484375,0.0,0.0,0.0,0.00040546184754930437,-0.026872115209698677,-0.9990628957748413,0.03392999991774559
8.66087007522583,-2.9682083276605464,-0.197574494222792,175.68230092513278,0.0458984375,0.00244140625,1.1025390625,2.01416015625,0.1220703125,20.81298828125,0.0,0.0,0.0,-0.000746720761526376,-0.025946112349629402,-0.9989519119262695,0.037702035158872604
8.681639909744263,-2.8542242098006696,-0.27485377579261533,175.2685280652134,0.00146484375,0.013671875,0.97119140625,1.708984375,-1.3427734375,20.263671875,0.0,0.0,0.0,-0.001367721939459443,-0.024982906877994537,-0.9988324642181396,0.04132494330406189
8.696725368499756,-2.6786601736010156,-0.22369842033335693,174.85705014885517,-0.01416015625,0.0087890625,0.91796875,0.42724609375,-0.6103515625,20.93505859375,0.0,0.0,0.0,-0.0009009687346406281,-0.02343756891787052,-0.9987162351608276,0.04489884898066521
8.720050573348999,-2.511352342004026,-0.184433183579261,174.44574981741533,-0.0146484375,-0.00048828125,0.9892578125,1.15966796875,-1.89208984375,20.6298828125,0.0,0.0,0.0,-0.0005454565398395061,-0.021966125816106796,-0.9985827803611755,0.04847449064254761
8.741192817687988,-2.338723152713362,-0.20564589685168266,174.0487109209625,0.01220703125,0.0166015625,1.04736328125,0.91552734375,-1.5869140625,19.287109375,0.0,0.0,0.0,-0.0007324088946916163,-0.020473379641771317,-0.9984403252601624,0.05193713307380676
8.76078748703003,-2.1721156289497103,-0.36395834263133897,173.67164349764275,0.01123046875,0.02392578125,1.03173828125,-0.67138671875,-1.89208984375,18.6767578125,0.0,0.0,0.0,-0.0021245069801807404,-0.019100436940789223,-0.9982878565788269,0.05524715781211853
8.780429601669312,-2.04458745940911,-0.2922286297827906,173.27670829945427,-0.009765625,0.0322265625,1.02392578125,0.0,-0.06103515625,19.8974609375,0.0,0.0,0.0,-0.0014991938369348645,-0.017960200086236,-0.9981145858764648,0.05867404863238335
8.800333499908447,-2.078658150536426,-0.1553818677388977,172.89716834765503,-0.02294921875,0.048828125,1.001953125,-0.30517578125,-3.96728515625,18.85986328125,0.0,0.0,0.0,-0.00022954909945838153,-0.01818785071372986,-0.9979129433631897,0.061958447098731995
8.820606470108032,-2.099466748729693,-0.07856727915647321,172.50859888577298,-0.0185546875,0.0322265625,1.00634765625,1.03759765625,-6.9580078125,20.93505859375,0.0,0.0,0.0,0.0005127825425006449,-0.018325921148061752,-0.9976953864097595,0.06532983481884003
8.844274282455444,-2.093888618611908,-0.06152713778616161,171.928196730862,-0.015625,0.037109375,0.9873046875,1.3427734375,-10.43701171875,25.81787109375,0.0,0.0,0.0,0.0007504791137762368,-0.018264077603816986,-0.9973528385162354,0.07037957012653351
8.860092401504517,-2.168604698272912,-0.13092989723195783,171.5446542882091,-0.005859375,0.04931640625,0.95068359375,-3.173828125,-10.986328125,26.85546875,0.0,0.0,0.0,0.00025577182532288134,-0.018956225365400314,-0.9970982670783997,0.07372815161943436
8.880646467208862,-2.1886348683442094,-0.40889098221010584,170.9853847385901,0.03759765625,0.041015625,1.01220703125,-3.2958984375,-2.685546875,29.11376953125,0.0,0.0,0.0,-0.0020557017996907234,-0.019319457933306694,-0.9967137575149536,0.07863938808441162
8.903936386108398,-2.148300039974345,-0.7271210749460773,170.25701336549994,0.05419921875,0.0390625,1.08349609375,2.01416015625,-2.38037109375,28.86962890625,0.0,0.0,0.0,-0.004729323089122772,-0.01921701617538929,-0.9961824417114258,0.08502305299043655
8.92052960395813,-2.1804619066720545,-0.9018540158619581,169.81906163591873,0.029296875,0.04345703125,0.9970703125,-0.18310546875,-1.77001953125,29.296875,0.0,0.0,0.0,-0.006149434484541416,-0.01964951492846012,-0.9958314299583435,0.08885898441076279
8.941281080245972,-2.237634645449881,-0.9182285406234175,169.23777155641562,0.00341796875,0.033203125,0.912109375,-3.662109375,-3.84521484375,29.96826171875,0.0,0.0,0.0,-0.006145060062408447,-0.020190441980957985,-0.995356559753418,0.09391509741544724
8.960634231567383,-1.9831003889533625,-0.8614404802340803,168.62922902212418,0.0126953125,0.005859375,0.927734375,-4.45556640625,3.41796875,31.55517578125,0.0,0.0,0.0,-0.005765032954514027,-0.017963947728276253,-0.9948909282684326,0.0991777628660202
8.98032259941101,-1.767951777975488,-0.8452667523620487,168.00831018505664,-0.01318359375,0.0078125,0.99267578125,-2.86865234375,-2.38037109375,31.494140625,0.0,0.0,0.0,-0.005723575595766306,-0.016113270074129105,-0.9943721890449524,0.10455431044101715
9.002237319946289,-1.5856525349239667,-0.7638759770563555,167.38825195182454,0.01806640625,0.01708984375,1.0341796875,-1.64794921875,-0.48828125,29.78515625,0.0,0.0,0.0,-0.005105291958898306,-0.014485063962638378,-0.9938223958015442,0.10991489887237549
9.02205204963684,-1.3538358077720283,-0.88958080625368,166.7654070014111,0.02001953125,0.00634765625,0.99560546875,-1.77001953125,-2.3193359375,31.18896484375,0.0,0.0,0.0,-0.006349335424602032,-0.012629630975425243,-0.9932281970977783,0.11531659960746765
9.03611159324646,-1.261231676118172,-0.9925174132961785,166.13742574874178,0.0283203125,0.015625,0.97021484375,-2.9296875,0.06103515625,32.16552734375,0.0,0.0,0.0,-0.007269264664500952,-0.011970419436693192,-0.9925827383995056,0.12076176702976227
9.06028151512146,-0.9754939138418622,-1.158715339153041,165.52501732738008,0.06787109375,-0.0888671875,0.95166015625,-8.4228515625,-3.96728515625,29.72412109375,0.0,0.0,0.0,-0.008958203718066216,-0.009718257933855057,-0.9919350743293762,0.12605684995651245
9.080708265304565,-0.6626614314583463,-1.265638322071594,164.88546573425677,-0.0322265625,-0.19580078125,1.0810546875,-3.0517578125,-2.8076171875,34.60693359375,0.0,0.0,0.0,-0.010187949053943157,-0.007184723392128944,-0.991228461265564,0.13157013058662415
9.100291967391968,-0.5755116327435686,-1.2618420175535363,164.0685614491449,-0.1552734375,-0.12109375,1.15185546875,7.568359375,-8.60595703125,43.9453125,0.0,0.0,0.0,-0.010209094732999802,-0.006499455776065588,-0.9902709722518921,0.13862524926662445
9.120555639266968,-0.45688816225081347,-1.2351456895740125,163.12352281520361,-0.10302734375,-0.12548828125,0.9697265625,-0.91552734375,-8.544921875,47.9736328125,0.0,0.0,0.0,-0.010076659731566906,-0.005525354295969009,-0.9891030788421631,0.146776020526886
9.140576839447021,-0.2708154798066982,-1.466401380718658,162.11317391241863,-0.00732421875,-0.0810546875,0.9287109375,-2.86865234375,-13.12255859375,52.3681640625,0.0,0.0,0.0,-0.012273440137505531,-0.0043236976489424706,-0.9877539873123169,0.1554756909608841
9.164425373077393,0.021246862550745062,-1.59561842125325,161.08105036655968,0.1962890625,-0.18994140625,0.97216796875,-5.0048828125,3.90625,49.98779296875,0.0,0.0,0.0,-0.013765079900622368,-0.0021055249962955713,-0.98630690574646,0.16433146595954895
9.180238723754883,0.06662954256021236,-1.8812114688965205,160.11552116510833,0.19287109375,-0.15283203125,1.10009765625,10.07080078125,-9.765625,47.119140625,0.0,0.0,0.0,-0.016269775107502937,-0.002261654008179903,-0.984851062297821,0.17262262105941772
9.201201915740967,0.08975678320339371,-2.095494139953684,159.1953854008809,0.123046875,-0.11474609375,1.00439453125,8.9111328125,-9.33837890625,45.47119140625,0.0,0.0,0.0,-0.01812647469341755,-0.002531354082748294,-0.9834020733833313,0.18051443994045258
9.215625524520874,0.2267683102208,-2.17232181528528,158.20248080123613,0.015625,-0.11376953125,0.9853515625,2.3193359375,-0.6103515625,50.59814453125,0.0,0.0,0.0,-0.018988095223903656,-0.0016411927063018084,-0.9817915558815002,0.1890030801296234
9.236875534057617,0.4827203645786248,-2.1479152015032974,157.06983053117293,-0.060546875,-0.2197265625,0.90771484375,-2.44140625,-7.26318359375,58.2275390625,0.0,0.0,0.0,-0.019206013530492783,0.0004022077191621065,-0.9798809289932251,0.19865676760673523
9.260352849960327,0.8182916672870238,-2.1211720226949358,155.79221632616537,0.04150390625,-0.291015625,0.97412109375,-5.43212890625,4.39453125,64.453125,0.0,0.0,0.0,-0.019594790413975716,0.0030998385045677423,-0.9776042699813843,0.20951440930366516
9.28035855293274,1.0341904251348362,-2.27921022037116,154.43486649278708,0.05126953125,-0.31201171875,0.9833984375,-0.732421875,-8.6669921875,68.115234375,0.0,0.0,0.0,-0.021391233429312706,0.004399285651743412,-0.9750238656997681,0.2210240364074707
9.300469875335693,1.292410209018811,-2.3731658757070324,153.0383113735729,0.2255859375,-0.32373046875,0.970703125,-1.708984375,0.6103515625,68.84765625,0.0,0.0,0.0,-0.022765064612030983,0.006137860473245382,-0.9722320437431335,0.23282837867736816
9.321198463439941,1.5567141973493863,-2.535700685734652,151.61278259189953,0.177734375,-0.3212890625,0.9921875,-2.3193359375,-6.8359375,72.8759765625,0.0,0.0,0.0,-0.024779006838798523,0.007741689216345549,-0.9692196249961853,0.24482521414756775
9.340171098709106,1.7763425586491428,-2.8641693921190314,150.16028822338296,0.1611328125,-0.359375,1.048828125,6.7138671875,-20.81298828125,74.951171875,0.0,0.0,0.0,-0.02813626267015934,0.008539773523807526,-0.9659688472747803,0.2569820284843445
9.36042308807373,1.9235439141552015,-3.10035840083513,148.64271581245453,0.2109375,-0.314453125,0.98046875,3.662109375,-5.43212890625,79.4677734375,0.0,0.0,0.0,-0.030576633289456367,0.00884518213570118,-0.9624273777008057,0.26966747641563416
9.38044023513794,2.2013044423677597,-3.1521653856896767,146.97548029643275,0.1611328125,-0.23291015625,0.82958984375,-5.0048828125,1.5869140625,86.3037109375,0.0,0.0,0.0,-0.03182266280055046,0.010593795217573643,-0.9583696126937866,0.28355416655540466
9.400688409805298,2.6814569226227243,-2.978661932185251,145.1700700535016,0.21923828125,-0.23486328125,0.9267578125,-17.15087890625,19.775390625,93.20068359375,0.0,0.0,0.0,-0.03179306909441948,0.014541273936629295,-0.9537608027458191,0.2985268533229828
9.420412540435791,3.336585402478487,-2.8184455444940273,143.26768478473463,0.15185546875,-0.42626953125,1.220703125,-12.51220703125,-10.19287109375,96.37451171875,0.0,0.0,0.0,-0.03250091150403023,0.019876055419445038,-0.9485986828804016,0.3141801953315735
9.441080093383789,3.546645522524702,-3.1073128140706725,141.34071083495562,0.2021484375,-0.4833984375,1.1904296875,3.84521484375,-16.66259765625,94.17724609375,0.0,0.0,0.0,-0.035811711102724075,0.020220039412379265,-0.943108856678009,0.32993075251579285
9.460497617721558,3.6196818025367063,-3.356509277730826,139.32555914299175,0.19580078125,-0.310546875,0.8564453125,7.75146484375,-15.869140625,100.4638671875,0.0,0.0,0.0,-0.03841913491487503,0.019427554681897163,-0.9371151328086853,0.34635522961616516
9.480980396270752,3.7144681796303813,-3.3708889603678185,137.10894419126916,0.21728515625,-0.28076171875,0.8271484375,7.01904296875,-1.89208984375,112.36572265625,0.0,0.0,0.0,-0.03920578956604004,0.01940431445837021,-0.930222749710083,0.3643791675567627
9.500490665435791,4.019013935003379,-3.5233022838191257,134.68895352682028,0.109375,-0.28515625,0.8134765625,2.50244140625,-22.216796875,122.49755859375,0.0,0.0,0.0,-0.04185262322425842,0.02051015943288803,-0.9222492575645447,0.3837762176990509
9.520907402038574,4.533926528605008,-3.7787001323588276,132.03501522292012,0.2587890625,-0.2490234375,0.83984375,-16.7236328125,-7.99560546875,135.8642578125,0.0,0.0,0.0,-0.04616852104663849,0.022730981931090355,-0.9129884243011475,0.4047270119190216
9.540258646011353,5.100381864117669,-3.766587218752633,129.2513989474381,0.39208984375,-0.43310546875,1.154296875,-8.056640625,-8.9111328125,135.68115234375,0.0,0.0,0.0,-0.048720840364694595,0.026111170649528503,-0.9027718305587769,0.42655304074287415
9.560495376586914,5.185353686260858,-4.0368240801510105,126.46561067180004,0.64208984375,-0.56201171875,1.47021484375,14.2822265625,-24.35302734375,127.13623046875,0.0,0.0,0.0,-0.051774170249700546,0.02451704628765583,-0.8920940160751343,0.4482037127017975
9.580318689346313,4.894911844637114,-4.128989799037516,123.86739305114884,0.71337890625,-0.3505859375,1.10205078125,21.78955078125,-4.57763671875,133.544921875,0.0,0.0,0.0,-0.051837604492902756,0.02072320133447647,-0.8817503452301025,0.4684012234210968
9.596136331558228,4.9999780833184815,-3.712676108746899,121.02625292247698,0.27880859375,-0.240234375,0.60400390625,3.35693359375,17.76123046875,149.169921875,0.0,0.0,0.0,-0.049629874527454376,0.02201949991285801,-0.8698791265487671,0.49026769399642944
9.620187044143677,5.351277337333863,-3.8566539351298292,117.92000583136024,0.03515625,-0.36083984375,0.67236328125,3.0517578125,-33.63037109375,158.8134765625,0.0,0.0,0.0,-0.05285670608282089,0.022642716765403748,-0.856198787689209,0.5134367346763611
9.641204118728638,5.813344330440279,-3.8744674953720457,114.55656796704667,0.47509765625,-0.3642578125,0.77001953125,-11.77978515625,8.7890625,172.05810546875,0.0,0.0,0.0,-0.05579916015267372,0.024387693032622337,-0.8406699895858765,0.5381130576133728
9.661116600036621,6.085334416021235,-3.887398324131349,111.17103444076811,0.58447265625,-0.552734375,1.2421875,13.24462890625,-20.99609375,170.47119140625,0.0,0.0,0.0,-0.05792348459362984,0.024621635675430298,-0.8243511915206909,0.5625688433647156
9.675432443618774,6.065114067870235,-4.044746672701402,107.8781456003916,0.76953125,-0.4951171875,1.18798828125,24.0478515625,-16.4794921875,163.39111328125,0.0,0.0,0.0,-0.05960991606116295,0.021995972841978073,-0.8078556060791016,0.5859454870223999
9.700888872146606,6.044627342341605,-3.7081421437984803,104.68216348395924,0.69873046875,-0.41455078125,1.0234375,26.3671875,-12.8173828125,160.2783203125,0.0,0.0,0.0,-0.05777369439601898,0.02197892591357231,-0.7911890149116516,0.6084398031234741
9.720141887664795,6.063983671562598,-3.838820738093749,101.29199908942341,0.25390625,-0.263671875,0.671875,2.86865234375,-8.544921875,178.1005859375,0.0,0.0,0.0,-0.0593840666115284,0.019667616114020348,-0.7728506922721863,0.6314970850944519
9.74056601524353,6.32870515520619,-3.9163591799858493,97.72278128579569,0.45947265625,-0.38623046875,0.8935546875,21.1181640625,-32.53173828125,178.64990234375,0.0,0.0,0.0,-0.06198902800679207,0.019102582708001137,-0.7527737617492676,0.6550756692886353
9.760438919067383,6.181907741356515,-3.9300596856872487,94.39908146207326,1.08447265625,-0.2763671875,1.208984375,29.23583984375,0.91552734375,159.7900390625,0.0,0.0,0.0,-0.06173749268054962,0.016275985166430473,-0.7334824204444885,0.6767030954360962
9.780680179595947,5.924052732262901,-3.981820566764898,91.31070214582527,0.70556640625,-0.193359375,0.81591796875,21.30126953125,-48.52294921875,155.1513671875,0.0,0.0,0.0,-0.060908716171979904,0.012681794352829456,-0.7150165438652039,0.6963337659835815
9.800511121749878,5.901052924006529,-4.35623702291301,88.21579999891992,0.98486328125,-0.06298828125,0.97314453125,13.85498046875,0.06103515625,149.35302734375,0.0,0.0,0.0,-0.0633506178855896,0.008546960540115833,-0.6959916353225708,0.7151988744735718
9.820472955703735,6.158881466117109,-3.8736969646563035,85.24087695497502,0.724609375,-0.08837890625,0.6572265625,-4.2724609375,0.732421875,140.80810546875,0.0,0.0,0.0,-0.062360793352127075,0.011520948261022568,-0.677110493183136,0.7331437468528748
9.840867042541504,6.598529217046606,-4.010538950903863,81.70873341816214,0.74658203125,-0.21923828125,0.79638671875,-13.427734375,-6.8359375,129.5166015625,0.0,0.0,0.0,-0.0663549154996872,0.011200662702322006,-0.6541776657104492,0.7533413767814636
9.862823247909546,6.6332133445387536,-3.8023082543381532,79.62247262674926,1.19677734375,-0.17236328125,1.29541015625,9.70458984375,16.17431640625,95.703125,0.0,0.0,0.0,-0.06562133878469467,0.011579645797610283,-0.6403104662895203,0.7652204036712646
9.880399465560913,6.438713035752062,-3.414103994133312,78.48273945051673,0.9814453125,-0.13427734375,1.19091796875,24.658203125,19.8974609375,68.17626953125,0.0,0.0,0.0,-0.062289632856845856,0.012474642135202885,-0.6326057314872742,0.7718642354011536
9.900436639785767,6.221795619222566,-3.3404267435563844,77.49935613457498,0.65576171875,-0.00146484375,0.85888671875,2.86865234375,16.41845703125,37.29248046875,0.0,0.0,0.0,-0.060522083193063736,0.011255824007093906,-0.6259647607803345,0.7774178385734558
9.920486450195312,6.140163759583512,-2.798828600867516,76.95449828410473,0.3046875,-0.00439453125,0.927734375,3.72314453125,10.68115234375,17.39501953125,0.0,0.0,0.0,-0.05708881467580795,0.014222259633243084,-0.6221494674682617,0.780684769153595
9.940215349197388,6.127965895499516,-2.666267435682262,76.76485125161015,0.109375,0.0341796875,0.91162109375,0.8544921875,9.46044921875,12.5732421875,0.0,0.0,0.0,-0.0563131719827652,0.014967842027544975,-0.620826780796051,0.7817793488502502
9.960294961929321,5.870990273261541,-2.5870948710312365,76.56923463378098,0.08642578125,0.0625,1.06298828125,-0.79345703125,12.3291015625,11.90185546875,0.0,0.0,0.0,-0.05415620654821396,0.014024396426975727,-0.6195051074028015,0.782996654510498
9.980318307876587,5.641792603491185,-2.2491390318897095,76.40280341427528,0.08447265625,0.08837890625,1.1005859375,12.39013671875,13.48876953125,12.39013671875,0.0,0.0,0.0,-0.050789665430784225,0.015025078319013119,-0.6183183193206787,0.7841410040855408
9.995416402816772,5.285512860910395,-2.2794682734557394,76.25673298868539,0.03466796875,0.1123046875,0.96240234375,8.9111328125,-1.220703125,5.79833984375,0.0,0.0,0.0,-0.04853110760450363,0.012832842767238617,-0.6173681616783142,0.785071074962616
10.020263433456421,4.6700389652718455,-2.429887395112815,76.1651879632397,0.107421875,0.0625,0.98193359375,36.43798828125,5.18798828125,2.99072265625,0.0,0.0,0.0,-0.04512931779026985,0.008448551408946514,-0.616826057434082,0.7857592701911926
10.040361404418945,3.964863768376695,-1.7362559649669265,76.10957656301747,0.142578125,0.1640625,0.89501953125,26.4892578125,22.94921875,11.1083984375,0.0,0.0,0.0,-0.036569979041814804,0.009398052468895912,-0.6163877844810486,0.7865369915962219
10.060235500335693,3.706533207362119,-1.5504834640007479,75.96787745849637,-0.1162109375,0.435546875,0.71728515625,-0.91552734375,1.3427734375,10.80322265625,0.0,0.0,0.0,-0.03381010890007019,0.009242876432836056,-0.6154072284698486,0.787429690361023
10.080458164215088,3.580055606293231,-1.5269535690317597,75.83246212801171,-0.0439453125,0.36376953125,1.18017578125,8.4228515625,-6.28662109375,7.38525390625,0.0,0.0,0.0,-0.032825034111738205,0.008686644025146961,-0.6144826412200928,0.7881994247436523
10.096145391464233,3.294947715524443,-1.4792532354156833,75.71057740227283,0.06494140625,0.43212890625,1.29248046875,11.3525390625,3.5400390625,3.7841796875,0.0,0.0,0.0,-0.030616266652941704,0.007453531958162785,-0.6136574745178223,0.7889434099197388
10.120368242263794,2.9067571156979417,-1.4253844939271447,75.62013886747269,0.00244140625,0.443359375,1.00146484375,12.26806640625,-4.33349609375,3.96728515625,0.0,0.0,0.0,-0.02765975147485733,0.0057239532470703125,-0.6130505204200745,0.7895386815071106
10.140180110931396,2.7408300495303526,-1.5916422906609506,75.43169394827204,-0.20263671875,0.345703125,0.64794921875,-8.11767578125,-17.15087890625,14.2822265625,0.0,0.0,0.0,-0.02741127461194992,0.0036450771149247885,-0.6117746829986572,0.79054856300354
10.160648822784424,2.984679969174267,-1.4209713379496702,75.1351681156451,0.22216796875,0.3759765625,0.66650390625,-28.13720703125,28.62548828125,3.2958984375,0.0,0.0,0.0,-0.028198909014463425,0.006051959935575724,-0.6096991300582886,0.7921081781387329
10.182807445526123,3.0378532053062277,-1.4011809715512642,74.49037093723922,-0.07958984375,0.32470703125,1.400390625,5.859375,-12.51220703125,29.11376953125,0.0,0.0,0.0,-0.02849722094833851,0.006311491597443819,-0.6052272319793701,0.79551762342453
10.200331687927246,2.6777410862708257,-1.6003108679347546,73.92394334937006,0.1533203125,0.328125,1.447265625,20.5078125,-12.26806640625,48.40087890625,0.0,0.0,0.0,-0.027062667533755302,0.0028926038648933172,-0.6013227701187134,0.7985426187515259
10.220495223999023,2.3766810752520615,-1.8448392174623216,72.75476522762563,0.17333984375,0.388671875,0.9228515625,6.8359375,-15.13671875,66.71142578125,0.0,0.0,0.0,-0.026241380721330643,-0.000659906305372715,-0.5931655168533325,0.8046525716781616
10.24021863937378,2.3745827130729866,-2.0611406363060474,71.17959383142646,0.2275390625,0.40478515625,0.8212890625,-8.4228515625,-10.19287109375,83.0078125,0.0,0.0,0.0,-0.027312543243169785,-0.002566033508628607,-0.5820621252059937,0.8126815557479858
10.260505437850952,2.3499161252157204,-2.277908855890861,69.36012022899426,0.283203125,0.3046875,1.02783203125,-0.91552734375,-9.765625,94.54345703125,0.0,0.0,0.0,-0.028166774660348892,-0.00467725982889533,-0.5690965056419373,0.821774959564209
10.277565956115723,2.0608151351034136,-2.4495124495889655,67.36750816129143,0.26806640625,0.28857421875,1.03466796875,18.85986328125,-15.68603515625,104.30908203125,0.0,0.0,0.0,-0.026812978088855743,-0.0078117395751178265,-0.5547119975090027,0.8315735459327698
10.30021357536316,1.7808878360983749,-2.689925503419894,65.1863214007937,0.41357421875,0.4130859375,0.990234375,9.09423828125,-13.5498046875,109.06982421875,0.0,0.0,0.0,-0.025731639936566353,-0.01140412874519825,-0.5387641191482544,0.841986358165741
10.320379734039307,1.738522520554313,-2.8618447799237,62.99604365851069,0.5712890625,0.24755859375,1.00048828125,0.8544921875,3.2958984375,108.0322265625,0.0,0.0,0.0,-0.0259769968688488,-0.0133660351857543,-0.5225691199302673,0.8520962595939636
10.340292930603027,1.8003712708709536,-2.8778566643289136,60.88069992161189,0.46826171875,0.16943359375,1.01611328125,-2.62451171875,-1.28173828125,103.57666015625,0.0,0.0,0.0,-0.02626158855855465,-0.013690195046365261,-0.5067588686943054,0.8615790605545044
10.356516122817993,1.7618099438077657,-3.012597086746225,58.83212128384997,0.3720703125,0.1181640625,0.98291015625,4.2724609375,-1.708984375,102.23388671875,0.0,0.0,0.0,-0.026296572759747505,-0.015346791595220566,-0.4912722408771515,0.8704738020896912
10.380857706069946,1.7144584834478886,-2.968623048209213,56.819216724123024,0.40283203125,0.1005859375,1.00048828125,9.46044921875,8.97216796875,98.876953125,0.0,0.0,0.0,-0.025477375835180283,-0.015665527433156967,-0.47589969635009766,0.8789910078048706
10.401595115661621,1.6816208549091713,-3.0071931264522753,54.80069774889832,0.22607421875,0.015625,0.927734375,-4.638671875,0.8544921875,102.84423828125,0.0,0.0,0.0,-0.025097958743572235,-0.016542524099349976,-0.4603390395641327,0.8872342109680176
10.420708656311035,1.9159002921437227,-3.253332440128613,52.656592085404604,0.13623046875,-0.0634765625,0.90478515625,-9.3994140625,-4.69970703125,109.619140625,0.0,0.0,0.0,-0.027566511183977127,-0.018026726320385933,-0.443698525428772,0.895570695400238
10.440901756286621,2.252671093464252,-3.556193059767322,50.427501793162996,0.2470703125,-0.14599609375,0.9619140625,-3.35693359375,-10.3759765625,110.9619140625,0.0,0.0,0.0,-0.030991151928901672,-0.019697194918990135,-0.4262608587741852,0.9038547277450562
10.462199926376343,2.3808216639929705,-3.833170890989679,48.21691106828837,0.43798828125,-0.02880859375,1.00927734375,5.79833984375,-1.5869140625,110.2294921875,0.0,0.0,0.0,-0.03261031582951546,-0.022039512172341347,-0.4087827801704407,0.9117825627326965
10.480427742004395,2.328826635492837,-3.805958136675879,46.0782149146173,0.47802734375,0.115234375,1.0419921875,9.94873046875,3.72314453125,107.7880859375,0.0,0.0,0.0,-0.03168349340558052,-0.022603562101721764,-0.3916836977005005,0.9192764163017273
10.500688552856445,2.1041460686413864,-3.856401218130539,43.9268829109817,0.3515625,0.154296875,1.08544921875,11.23046875,-4.21142578125,107.666015625,0.0,0.0,0.0,-0.029601259157061577,-0.02433638460934162,-0.3743130564689636,0.9265102744102478
10.520302772521973,2.0389766724493557,-4.0278278672404575,41.77628856777647,0.3447265625,0.185546875,1.03173828125,3.7841796875,-9.6435546875,106.14013671875,0.0,0.0,0.0,-0.029140645638108253,-0.02648749016225338,-0.3568522036075592,0.9333304762840271
10.540300369262695,2.095210046772894,-4.04787660688856,39.6149503370068,0.37744140625,0.16943359375,0.94287109375,1.64794921875,8.30078125,108.70361328125,0.0,0.0,0.0,-0.029156271368265152,-0.02703044004738331,-0.3392001986503601,0.9398736357688904
10.560305118560791,1.9193634114963307,-3.957915331556676,37.53236760246197,0.30517578125,0.2294921875,1.01318359375,11.90185546875,4.69970703125,103.1494140625,0.0,0.0,0.0,-0.02695675566792488,-0.02730710804462433,-0.3220175504684448,0.9459558129310608
10.580296993255615,1.866248658859138,-3.8789673093746146,35.55644168690147,0.20458984375,0.32080078125,0.84033203125,-0.54931640625,2.9296875,96.00830078125,0.0,0.0,0.0,-0.025831088423728943,-0.02725381962954998,-0.3056427836418152,0.9514055848121643
10.60013222694397,1.9687625412250362,-3.6934849847264557,33.80935442929308,0.220703125,0.31689453125,0.876953125,-8.30078125,10.43701171875,82.09228515625,0.0,0.0,0.0,-0.025798315182328224,-0.025836139917373657,-0.2911160886287689,0.9559907913208008
10.622706413269043,1.8838509101239072,-3.6166667009049687,32.12038866642691,0.111328125,0.306640625,1.05517578125,2.25830078125,1.28173828125,59.4482421875,0.0,0.0,0.0,-0.02451823465526104,-0.025774920359253883,-0.27697044610977173,0.9602198004722595
10.641616821289062,1.755009956880489,-3.4474470566706104,31.377014782824816,0.1435546875,0.34912109375,1.0849609375,1.8310546875,15.31982421875,44.98291015625,0.0,0.0,0.0,-0.02287047542631626,-0.024816764518618584,-0.2706967890262604,0.9620729088783264
10.660326957702637,1.6694177614615915,-3.271611093564625,30.676561807967083,0.0537109375,0.38330078125,0.9658203125,-4.69970703125,1.8310546875,30.6396484375,0.0,0.0,0.0,-0.021593477576971054,-0.023674704134464264,-0.2647826373577118,0.963775634765625
10.680404901504517,1.554410929495211,-3.156148453192852,30.442371696800272,0.2216796875,0.33837890625,1.1669921875,1.46484375,14.0380859375,-0.244140625,0.0,0.0,0.0,-0.020313184708356857,-0.023010656237602234,-0.2627826929092407,0.9643667340278625
10.700400114059448,1.4236632862563015,-2.914138842643433,30.627985502589954,0.0517578125,0.3125,0.96484375,-1.89208984375,13.3056640625,-13.916015625,0.0,0.0,0.0,-0.018693702295422554,-0.02124306559562683,-0.26430749893188477,0.9640232920646667
10.722267389297485,1.227292893019202,-2.5688247553316867,31.116637726380176,-0.0322265625,0.3056640625,0.931640625,2.13623046875,12.8173828125,-28.74755859375,0.0,0.0,0.0,-0.016326796263456345,-0.018720872700214386,-0.26836755871772766,0.9629963636398315
10.740325689315796,1.028760424744676,-2.369275015757652,31.859799874117996,-0.111328125,0.33935546875,1.048828125,0.91552734375,7.38525390625,-41.32080078125,0.0,0.0,0.0,-0.01430498342961073,-0.01741616800427437,-0.2745697796344757,0.9613031148910522
10.760403394699097,0.8382927556934955,-2.1530053999822494,32.841523454091444,-0.1376953125,0.31494140625,1.08544921875,1.46484375,8.544921875,-52.24609375,0.0,0.0,0.0,-0.012326647527515888,-0.01595299504697323,-0.28276339173316956,0.9589778780937195
10.780226707458496,0.5226933530050369,-1.943212084200488,33.97401662980374,-0.197265625,0.25634765625,1.0107421875,7.38525390625,5.9814453125,-58.53271484375,0.0,0.0,0.0,-0.009315701201558113,-0.01488450262695551,-0.2921837568283081,0.9562010765075684
10.800283670425415,0.29728030172595554,-1.7988075844378437,35.21299928486572,-0.1943359375,0.30712890625,0.9111328125,-2.25830078125,3.5400390625,-63.53759765625,0.0,0.0,0.0,-0.0072203828021883965,-0.014176953583955765,-0.302478551864624,0.9530234932899475
10.820532083511353,0.2006875397000104,-1.6044708800261154,36.52683056794728,-0.11572265625,0.2509765625,1.025390625,-4.5166015625,6.16455078125,-66.46728515625,0.0,0.0,0.0,-0.006050716619938612,-0.012747084721922874,-0.313378244638443,0.9495235681533813
10.842753410339355,0.010515275496669644,-1.3840936525168905,37.86207790917141,-0.1005859375,0.1552734375,1.099609375,3.72314453125,2.62451171875,-65.85693359375,0.0,0.0,0.0,-0.004005322232842445,-0.011395120061933994,-0.3244072496891022,0.9458404779434204
10.862339973449707,-0.17196105805161938,-1.1822016916660703,39.18035223030806,-0.11865234375,0.1171875,0.93310546875,-1.3427734375,4.7607421875,-65.00244140625,0.0,0.0,0.0,-0.002045304048806429,-0.010222416371107101,-0.33525723218917847,0.9420689344406128
10.88047742843628,-0.18507730243450496,-0.9012501844506468,40.47478577614678,-0.1748046875,0.119140625,0.88720703125,-7.75146484375,5.859375,-62.80517578125,0.0,0.0,0.0,-0.0012051657540723681,-0.00793795008212328,-0.34588754177093506,0.9382416605949402
10.900583267211914,-0.2502146154137348,-0.5976372301470315,42.04125892643794,-0.1533203125,0.07666015625,1.060546875,-0.1220703125,0.54931640625,-62.31689453125,0.0,0.0,0.0,0.00016743302694521844,-0.005651490297168493,-0.3586876690387726,0.9334405660629272
10.920149564743042,-0.3153331853933868,-0.4962401370712833,42.949134501105206,-0.177734375,0.05712890625,1.015625,1.15966796875,-3.72314453125,-59.99755859375,0.0,0.0,0.0,0.0009754059137776494,-0.005037251859903336,-0.36607226729393005,0.9305723309516907
10.940477848052979,-0.3854336046401962,-0.3481279651672328,44.143560417116596,-0.12353515625,0.05712890625,1.02001953125,0.18310546875,0.244140625,-59.9365234375,0.0,0.0,0.0,0.0019754506647586823,-0.0040792301297187805,-0.37575456500053406,0.9267081022262573
10.96071720123291,-0.4250707131780876,-0.1384393700592695,45.328321615452424,-0.146484375,0.0546875,1.0009765625,-4.638671875,1.28173828125,-59.14306640625,0.0,0.0,0.0,0.002957468619570136,-0.002544162794947624,-0.38532182574272156,0.922774076461792
10.980823278427124,-0.3600698038790596,0.1617750181835222,46.508479266287665,-0.140625,0.02099609375,0.94482421875,-5.126953125,7.568359375,-60.302734375,0.0,0.0,0.0,0.0034443021286278963,5.6483146181562915e-05,-0.394813597202301,0.9187547564506531
11.001818180084229,-0.17701030207597776,0.5941540471137366,47.693151672164284,-0.1572265625,-0.09423828125,0.95458984375,-5.4931640625,8.72802734375,-58.41064453125,0.0,0.0,0.0,0.003509031841531396,0.004117812030017376,-0.4042903184890747,0.914614737033844
11.020845413208008,0.2097558698032453,0.940801675500075,48.85142881199339,-0.22021484375,-0.1220703125,0.921875,-15.7470703125,13.73291015625,-57.31201171875,0.0,0.0,0.0,0.001728339004330337,0.008232029154896736,-0.4134848117828369,0.9104721546173096
11.040329456329346,0.5967981840961778,1.3474779688718042,50.03074634956071,-0.16796875,-0.19677734375,1.158203125,-9.765625,16.4794921875,-60.302734375,0.0,0.0,0.0,0.00025307456962764263,0.012857635505497456,-0.4227709472179413,0.9061453938484192
11.061145067214966,0.8799916475458052,1.657605269457172,51.2671745138731,-0.20654296875,-0.2548828125,1.0751953125,-2.3193359375,9.33837890625,-61.8896484375,0.0,0.0,0.0,-0.0006652635056525469,0.0163626316934824,-0.43245619535446167,0.901506245136261
11.081082105636597,1.0172475005683848,1.7810012812716205,52.54763007757539,-0.21826171875,-0.24951171875,1.01953125,1.40380859375,0.79345703125,-64.75830078125,0.0,0.0,0.0,-0.001079613110050559,0.017864428460597992,-0.4424668252468109,0.8966062664985657
11.100234508514404,1.2172846381727234,1.9816530291795544,53.91182034540745,-0.14111328125,-0.2265625,0.98291015625,0.18310546875,5.615234375,-69.7021484375,0.0,0.0,0.0,-0.0016288605984300375,0.020227298140525818,-0.45304760336875916,0.8912554383277893
11.120827436447144,1.401122914943319,2.0404970298699183,55.40648430185968,-0.2216796875,-0.22119140625,0.9384765625,6.2255859375,-3.96728515625,-74.0966796875,0.0,0.0,0.0,-0.002546356525272131,0.021446695551276207,-0.46459096670150757,0.8852620124816895
11.140345811843872,1.454050370986865,2.3301090035095067,56.88559591757179,-0.1982421875,-0.16455078125,0.96923828125,2.62451171875,4.638671875,-76.47705078125,0.0,0.0,0.0,-0.0014714589342474937,0.023919017985463142,-0.4759174883365631,0.8791634440422058
11.160378217697144,1.6932930078704884,2.502675013550348,58.452731596212445,-0.2548828125,-0.125,0.9140625,-3.90625,0.6103515625,-79.65087890625,0.0,0.0,0.0,-0.002230509649962187,0.02626902237534523,-0.487809956073761,0.872551679611206
11.180267810821533,1.8712611639362813,2.614251703171207,60.068296731163066,-0.25732421875,-0.16845703125,1.0283203125,0.42724609375,1.46484375,-81.48193359375,0.0,0.0,0.0,-0.0027167873922735453,0.027916908264160156,-0.4999966621398926,0.8655729293823242
11.20031452178955,2.0005641154440275,2.7105866122157707,61.721352774467896,-0.279296875,-0.1337890625,0.9921875,1.77001953125,0.42724609375,-82.03125,0.0,0.0,0.0,-0.002850917400792241,0.029252566397190094,-0.5123761296272278,0.8582580089569092
11.22240400314331,2.1151115104670186,2.9617563602158232,63.41384633004037,-0.2021484375,-0.1162109375,0.8984375,2.25830078125,11.23046875,-84.47265625,0.0,0.0,0.0,-0.0021165446378290653,0.03167957067489624,-0.5249035954475403,0.8505693674087524
11.240204095840454,2.2505571499161334,3.339927926303562,65.17068026759438,-0.19140625,-0.1142578125,1.0048828125,1.40380859375,13.0615234375,-90.63720703125,0.0,0.0,0.0,-0.000848546449560672,0.035122185945510864,-0.5377404093742371,0.8423781394958496
11.260312795639038,2.4047966951967727,3.5864845218495054,67.00692881462811,-0.2734375,-0.0947265625,1.1904296875,2.74658203125,4.5166015625,-94.29931640625,0.0,0.0,0.0,-0.00021974931587465107,0.03766527399420738,-0.5510480403900146,0.8336231112480164
11.276177406311035,2.3081151540518308,3.787133708436501,68.89934200720687,-0.2802734375,-0.107421875,1.1474609375,14.83154296875,3.2958984375,-95.5810546875,0.0,0.0,0.0,0.002088560489937663,0.03862950578331947,-0.5647097229957581,0.824382483959198
11.300466299057007,2.3375374745621302,4.016849618810132,70.83340569334436,-0.2998046875,-0.029296875,0.87060546875,0.9765625,12.20703125,-96.3134765625,0.0,0.0,0.0,0.00369297806173563,0.04036891460418701,-0.5784596800804138,0.8147031664848328
11.320439338684082,2.4097005575774304,4.184042831295112,72.75909556755941,-0.3994140625,-0.072265625,0.875,5.9814453125,-2.0751953125,-94.8486328125,0.0,0.0,0.0,0.004729495383799076,0.04184700921177864,-0.5919871926307678,0.8048464059829712
11.34025263786316,2.4778679799282735,4.4657531298386415,74.70464763188086,-0.24365234375,-0.07666015625,1.01611328125,2.62451171875,16.2353515625,-99.06005859375,0.0,0.0,0.0,0.006458253599703312,0.044072069227695465,-0.6054425835609436,0.7946415543556213
11.360395431518555,2.529765464789323,4.532956214856043,76.71460838007553,-0.40185546875,-0.0439453125,1.00537109375,7.2021484375,-13.97705078125,-102.11181640625,0.0,0.0,0.0,0.007239189930260181,0.044691573828458786,-0.6192424893379211,0.7838935852050781
11.375498533248901,2.59834184471672,4.470568840090324,78.76380856505193,-0.3212890625,-0.0205078125,0.958984375,2.25830078125,-2.13623046875,-102.4169921875,0.0,0.0,0.0,0.007229330949485302,0.04451381415128708,-0.6331571340560913,0.7727084159851074
11.400741338729858,2.8474215548307487,4.771302496132808,80.87463071672018,-0.1865234375,-0.02587890625,0.88037109375,-7.080078125,16.357421875,-106.93359375,0.0,0.0,0.0,0.008096367120742798,0.04777346923947334,-0.6470663547515869,0.7608924508094788
11.420757293701172,3.101496267662172,5.1093635628762355,83.04577026894881,-0.3505859375,-0.05517578125,0.9169921875,-3.90625,4.33349609375,-110.29052734375,0.0,0.0,0.0,0.009296158328652382,0.05128138139843941,-0.6611146330833435,0.7484725713729858
11.440338134765625,3.230360806402568,5.025003896437408,85.22283842537702,-0.400390625,-0.0771484375,1.1591796875,10.009765625,-3.7841796875,-109.55810546875,0.0,0.0,0.0,0.00894286297261715,0.051314376294612885,-0.675193727016449,0.7357990741729736
11.460115671157837,3.0379057123854722,5.2055791570537355,87.47906847428567,-0.240234375,-0.05224609375,1.21826171875,20.69091796875,3.0517578125,-114.31884765625,0.0,0.0,0.0,0.012253970839083195,0.05110589414834976,-0.6895554661750793,0.722323477268219
11.475437641143799,2.9962439063259216,5.38033338894992,89.81859268012263,-0.330078125,0.0458984375,0.87158203125,6.04248046875,10.80322265625,-118.10302734375,0.0,0.0,0.0,0.014628599397838116,0.05166630446910858,-0.7040983438491821,0.7080692052841187
11.500506162643433,2.9200501579266676,5.568120475556135,92.21047028594774,-0.3798828125,0.06982421875,0.98779296875,16.357421875,5.9814453125,-119.93408203125,0.0,0.0,0.0,0.017345258966088295,0.05200492590665817,-0.7186722159385681,0.6931845545768738
