time,orientation.x,orientation.y,orientation.z,orientation.w,orientation_covariance,angular_velocity.x,angular_velocity.y,angular_velocity.z,angular_velocity_covariance,linear_acceleration.x,linear_acceleration.y,linear_acceleration.z,linear_acceleration_covariance
1.9814293384552002,0.017719384282827377,-0.02123914659023285,-0.7969921827316284,-0.6033560633659363,[0. 0. 0. 0. 0. 0. 0. 0. 0.],-9.94873046875,3.173828125,-6.04248046875,[0. 0. 0. 0. 0. 0. 0. 0. 0.],-0.03271484375,-0.22265625,0.92724609375,[0. 0. 0. 0. 0. 0. 0. 0. 0.]
1.9954791069030762,0.01777421310544014,-0.020912116393446922,-0.7961228489875793,-0.6045124530792236,[0. 0. 0. 0. 0. 0. 0. 0. 0.],10.19287109375,2.685546875,-6.591796875,[0. 0. 0. 0. 0. 0. 0. 0. 0.],-0.0771484375,-0.0126953125,1.14501953125,[0. 0. 0. 0. 0. 0. 0. 0. 0.]
2.0153815746307373,0.019682299345731735,-0.01950320042669773,-0.7953464984893799,-0.6055213809013367,[0. 0. 0. 0. 0. 0. 0. 0. 0.],0.30517578125,-6.04248046875,-7.6904296875,[0. 0. 0. 0. 0. 0. 0. 0. 0.],-0.08251953125,-0.18115234375,0.91796875,[0. 0. 0. 0. 0. 0. 0. 0. 0.]
2.04034423828125,0.019335059449076653,-0.020150333642959595,-0.794743537902832,-0.6063026785850525,[0. 0. 0. 0. 0. 0. 0. 0. 0.],1.03759765625,1.8310546875,-5.2490234375,[0. 0. 0. 0. 0. 0. 0. 0. 0.],-0.06689453125,0.046875,1.01953125,[0. 0. 0. 0. 0. 0. 0. 0. 0.]
2.0560097694396973,0.021465502679347992,-0.01792093738913536,-0.7939633727073669,-0.6073222756385803,[0. 0. 0. 0. 0. 0. 0. 0. 0.],2.9296875,-5.0048828125,-9.33837890625,[0. 0. 0. 0. 0. 0. 0. 0. 0.],-0.0400390625,-0.24853515625,1.00927734375,[0. 0. 0. 0. 0. 0. 0. 0. 0.]
2.0807032585144043,0.02087453380227089,-0.018467597663402557,-0.7927111387252808,-0.6089600324630737,[0. 0. 0. 0. 0. 0. 0. 0. 0.],-2.86865234375,0.6103515625,-9.82666015625,[0. 0. 0. 0. 0. 0. 0. 0. 0.],-0.05224609375,0.00146484375,0.90771484375,[0. 0. 0. 0. 0. 0. 0. 0. 0.]
2.1003668308258057,0.02265285700559616,-0.01700581982731819,-0.7918918132781982,-0.6100042462348938,[0. 0. 0. 0. 0. 0. 0. 0. 0.],1.5869140625,-1.0986328125,-11.29150390625,[0. 0. 0. 0. 0. 0. 0. 0. 0.],-0.05029296875,-0.150390625,0.92578125,[0. 0. 0. 0. 0. 0. 0. 0. 0.]
2.120166063308716,0.022333228960633278,-0.017935406416654587,-0.7907871007919312,-0.6114208102226257,[0. 0. 0. 0. 0. 0. 0. 0. 0.],-5.31005859375,2.685546875,-11.90185546875,[0. 0. 0. 0. 0. 0. 0. 0. 0.],-0.06591796875,0.06103515625,1.0126953125,[0. 0. 0. 0. 0. 0. 0. 0. 0.]
2.142451286315918,0.024326356127858162,-0.015024630352854729,-0.789124071598053,-0.6135680079460144,[0. 0. 0. 0. 0. 0. 0. 0. 0.],2.44140625,-4.69970703125,-12.87841796875,[0. 0. 0. 0. 0. 0. 0. 0. 0.],-0.07763671875,-0.19189453125,1.025390625,[0. 0. 0. 0. 0. 0. 0. 0. 0.]
2.160212516784668,0.02556833252310753,-0.013859930448234081,-0.7880685329437256,-0.6149001121520996,[0. 0. 0. 0. 0. 0. 0. 0. 0.],1.40380859375,2.62451171875,-14.16015625,[0. 0. 0. 0. 0. 0. 0. 0. 0.],-0.10595703125,-0.18017578125,1.0283203125,[0. 0. 0. 0. 0. 0. 0. 0. 0.]
2.1804215908050537,0.025011343881487846,-0.014385722577571869,-0.7863377332687378,-0.6171227693557739,[0. 0. 0. 0. 0. 0. 0. 0. 0.],16.41845703125,-8.6669921875,-12.51220703125,[0. 0. 0. 0. 0. 0. 0. 0. 0.],-0.1142578125,0.03955078125,1.13623046875,[0. 0. 0. 0. 0. 0. 0. 0. 0.]
2.195211172103882,0.025663675740361214,-0.015121674165129662,-0.7848901748657227,-0.6189185380935669,[0. 0. 0. 0. 0. 0. 0. 0. 0.],-7.32421875,13.3056640625,-13.5498046875,[0. 0. 0. 0. 0. 0. 0. 0. 0.],-0.01806640625,-0.08154296875,0.83056640625,[0. 0. 0. 0. 0. 0. 0. 0. 0.]
2.2204043865203857,0.024477820843458176,-0.0148554015904665,-0.7833341956138611,-0.6209410429000854,[0. 0. 0. 0. 0. 0. 0. 0. 0.],3.72314453125,-2.197265625,-11.90185546875,[0. 0. 0. 0. 0. 0. 0. 0. 0.],-0.07666015625,0.123046875,1.0625,[0. 0. 0. 0. 0. 0. 0. 0. 0.]
2.2403712272644043,0.021973511204123497,-0.01578710786998272,-0.7812843322753906,-0.6235887408256531,[0. 0. 0. 0. 0. 0. 0. 0. 0.],7.38525390625,-5.126953125,-18.98193359375,[0. 0. 0. 0. 0. 0. 0. 0. 0.],0.048828125,0.07568359375,1.0537109375,[0. 0. 0. 0. 0. 0. 0. 0. 0.]
2.2624945640563965,0.020543843507766724,-0.016665341332554817,-0.779543936252594,-0.6257887482643127,[0. 0. 0. 0. 0. 0. 0. 0. 0.],1.77001953125,-1.15966796875,-17.51708984375,[0. 0. 0. 0. 0. 0. 0. 0. 0.],-0.04443359375,0.10107421875,0.97216796875,[0. 0. 0. 0. 0. 0. 0. 0. 0.]
2.2751803398132324,0.01942378282546997,-0.018431255593895912,-0.7779796123504639,-0.6277187466621399,[0. 0. 0. 0. 0. 0. 0. 0. 0.],1.64794921875,-1.953125,-12.5732421875,[0. 0. 0. 0. 0. 0. 0. 0. 0.],-0.1025390625,0.1953125,1.02099609375,[0. 0. 0. 0. 0. 0. 0. 0. 0.]
2.295915126800537,0.01856043003499508,-0.019430607557296753,-0.7766869068145752,-0.6293135285377502,[0. 0. 0. 0. 0. 0. 0. 0. 0.],-6.34765625,-1.0986328125,-11.3525390625,[0. 0. 0. 0. 0. 0. 0. 0. 0.],-0.0654296875,0.10400390625,0.9208984375,[0. 0. 0. 0. 0. 0. 0. 0. 0.]
2.3163435459136963,0.0173050370067358,-0.020128870382905006,-0.7754786014556885,-0.6308156847953796,[0. 0. 0. 0. 0. 0. 0. 0. 0.],-1.0986328125,0.30517578125,-12.3291015625,[0. 0. 0. 0. 0. 0. 0. 0. 0.],-0.021484375,0.0703125,1.03173828125,[0. 0. 0. 0. 0. 0. 0. 0. 0.]
2.339120626449585,0.015430839732289314,-0.021151820197701454,-0.7742142081260681,-0.6323819756507874,[0. 0. 0. 0. 0. 0. 0. 0. 0.],2.13623046875,-0.91552734375,-11.16943359375,[0. 0. 0. 0. 0. 0. 0. 0. 0.],-0.05224609375,0.0771484375,1.0615234375,[0. 0. 0. 0. 0. 0. 0. 0. 0.]
2.360198736190796,0.01429182942956686,-0.022722259163856506,-0.7731356620788574,-0.6336724758148193,[0. 0. 0. 0. 0. 0. 0. 0. 0.],1.8310546875,-2.9296875,-8.6669921875,[0. 0. 0. 0. 0. 0. 0. 0. 0.],-0.08447265625,0.1201171875,0.99072265625,[0. 0. 0. 0. 0. 0. 0. 0. 0.]
2.381387233734131,0.01336031872779131,-0.02381073869764805,-0.7722888588905334,-0.6346845030784607,[0. 0. 0. 0. 0. 0. 0. 0. 0.],-2.5634765625,-1.28173828125,-7.26318359375,[0. 0. 0. 0. 0. 0. 0. 0. 0.],-0.04541015625,0.11962890625,0.947265625,[0. 0. 0. 0. 0. 0. 0. 0. 0.]
2.400085210800171,0.01163202989846468,-0.024465493857860565,-0.7714762091636658,-0.6356812715530396,[0. 0. 0. 0. 0. 0. 0. 0. 0.],2.685546875,-0.91552734375,-7.75146484375,[0. 0. 0. 0. 0. 0. 0. 0. 0.],-0.015625,0.0869140625,1.068359375,[0. 0. 0. 0. 0. 0. 0. 0. 0.]
2.4204189777374268,0.01013224758207798,-0.025587035343050957,-0.7707215547561646,-0.6365774869918823,[0. 0. 0. 0. 0. 0. 0. 0. 0.],0.54931640625,-1.15966796875,-6.77490234375,[0. 0. 0. 0. 0. 0. 0. 0. 0.],-0.0439453125,0.10546875,1.0048828125,[0. 0. 0. 0. 0. 0. 0. 0. 0.]
2.440056800842285,0.009308855049312115,-0.026841403916478157,-0.770142138004303,-0.6372393369674683,[0. 0. 0. 0. 0. 0. 0. 0. 0.],-2.38037109375,0.8544921875,-5.2490234375,[0. 0. 0. 0. 0. 0. 0. 0. 0.],-0.0546875,0.09619140625,0.96435546875,[0. 0. 0. 0. 0. 0. 0. 0. 0.]
2.4601428508758545,0.00817992351949215,-0.028139030560851097,-0.7696176171302795,-0.6378323435783386,[0. 0. 0. 0. 0. 0. 0. 0. 0.],0.42724609375,-0.1220703125,-4.8828125,[0. 0. 0. 0. 0. 0. 0. 0. 0.],-0.048828125,0.08203125,1.01611328125,[0. 0. 0. 0. 0. 0. 0. 0. 0.]
2.481092929840088,0.006322624161839485,-0.029974406585097313,-0.7690680623054504,-0.638432502746582,[0. 0. 0. 0. 0. 0. 0. 0. 0.],0.79345703125,0.18310546875,-3.47900390625,[0. 0. 0. 0. 0. 0. 0. 0. 0.],-0.04638671875,0.13427734375,1.0205078125,[0. 0. 0. 0. 0. 0. 0. 0. 0.]
2.500161647796631,0.005271007306873798,-0.030880652368068695,-0.7689001560211182,-0.6386010646820068,[0. 0. 0. 0. 0. 0. 0. 0. 0.],-0.732421875,-0.6103515625,-1.52587890625,[0. 0. 0. 0. 0. 0. 0. 0. 0.],-0.0478515625,0.15869140625,0.9931640625,[0. 0. 0. 0. 0. 0. 0. 0. 0.]
2.5203945636749268,0.003917569760233164,-0.031991876661777496,-0.7688188552856445,-0.6386539340019226,[0. 0. 0. 0. 0. 0. 0. 0. 0.],-0.48828125,-0.6103515625,0.06103515625,[0. 0. 0. 0. 0. 0. 0. 0. 0.],-0.03369140625,0.15625,0.99462890625,[0. 0. 0. 0. 0. 0. 0. 0. 0.]
2.5405218601226807,0.0024367559235543013,-0.03298507630825043,-0.7688930630683899,-0.6385214328765869,[0. 0. 0. 0. 0. 0. 0. 0. 0.],-0.42724609375,-0.54931640625,1.5869140625,[0. 0. 0. 0. 0. 0. 0. 0. 0.],-0.02783203125,0.13330078125,0.99951171875,[0. 0. 0. 0. 0. 0. 0. 0. 0.]
2.560307502746582,0.001208775443956256,-0.0341501459479332,-0.7691395878791809,-0.6381666660308838,[0. 0. 0. 0. 0. 0. 0. 0. 0.],-0.3662109375,-0.91552734375,2.8076171875,[0. 0. 0. 0. 0. 0. 0. 0. 0.],-0.04736328125,0.1015625,1.005859375,[0. 0. 0. 0. 0. 0. 0. 0. 0.]
2.5803866386413574,0.0005156768602319062,-0.035481516271829605,-0.7694752216339111,-0.6376901268959045,[0. 0. 0. 0. 0. 0. 0. 0. 0.],-1.220703125,-2.01416015625,3.41796875,[0. 0. 0. 0. 0. 0. 0. 0. 0.],-0.0517578125,0.06005859375,0.99560546875,[0. 0. 0. 0. 0. 0. 0. 0. 0.]
2.6001760959625244,0.0018843956058844924,-0.03430483862757683,-0.7700170874595642,-0.6370975971221924,[0. 0. 0. 0. 0. 0. 0. 0. 0.],-1.15966796875,-3.173828125,6.4697265625,[0. 0. 0. 0. 0. 0. 0. 0. 0.],-0.060546875,0.01416015625,1.00537109375,[0. 0. 0. 0. 0. 0. 0. 0. 0.]
2.615523338317871,0.002630320843309164,-0.03284332528710365,-0.7708697319030762,-0.6361402273178101,[0. 0. 0. 0. 0. 0. 0. 0. 0.],0.91552734375,-2.62451171875,8.11767578125,[0. 0. 0. 0. 0. 0. 0. 0. 0.],-0.044921875,0.001953125,1.02587890625,[0. 0. 0. 0. 0. 0. 0. 0. 0.]
2.640451669692993,0.0023669342044740915,-0.030975446105003357,-0.7716755867004395,-0.6352572441101074,[0. 0. 0. 0. 0. 0. 0. 0. 0.],0.48828125,-2.13623046875,6.53076171875,[0. 0. 0. 0. 0. 0. 0. 0. 0.],-0.01953125,0.01806640625,1.0029296875,[0. 0. 0. 0. 0. 0. 0. 0. 0.]
2.6604931354522705,0.002821265021339059,-0.029149146750569344,-0.7723631262779236,-0.6345058083534241,[0. 0. 0. 0. 0. 0. 0. 0. 0.],-0.3662109375,-2.197265625,6.04248046875,[0. 0. 0. 0. 0. 0. 0. 0. 0.],-0.04638671875,0.0166015625,0.98828125,[0. 0. 0. 0. 0. 0. 0. 0. 0.]
2.680345058441162,0.004417183808982372,-0.028261184692382812,-0.7729265689849854,-0.6338505148887634,[0. 0. 0. 0. 0. 0. 0. 0. 0.],0.244140625,-0.732421875,4.45556640625,[0. 0. 0. 0. 0. 0. 0. 0. 0.],-0.0556640625,0.01416015625,1.0048828125,[0. 0. 0. 0. 0. 0. 0. 0. 0.]
2.700279951095581,0.006087800953537226,-0.027687137946486473,-0.7732135653495789,-0.6335118412971497,[0. 0. 0. 0. 0. 0. 0. 0. 0.],-0.30517578125,-0.8544921875,1.708984375,[0. 0. 0. 0. 0. 0. 0. 0. 0.],-0.060546875,0.01513671875,1.00390625,[0. 0. 0. 0. 0. 0. 0. 0. 0.]
2.7203328609466553,0.007853446528315544,-0.027031250298023224,-0.7731528282165527,-0.633594810962677,[0. 0. 0. 0. 0. 0. 0. 0. 0.],-0.732421875,-0.732421875,-1.3427734375,[0. 0. 0. 0. 0. 0. 0. 0. 0.],-0.060546875,0.01123046875,1.00244140625,[0. 0. 0. 0. 0. 0. 0. 0. 0.]
2.7403371334075928,0.009389118291437626,-0.026176583021879196,-0.7729783654212952,-0.6338227391242981,[0. 0. 0. 0. 0. 0. 0. 0. 0.],0.30517578125,-1.15966796875,-1.15966796875,[0. 0. 0. 0. 0. 0. 0. 0. 0.],-0.06201171875,-0.00341796875,1.00927734375,[0. 0. 0. 0. 0. 0. 0. 0. 0.]
2.760160207748413,0.010473989881575108,-0.024480022490024567,-0.7729331851005554,-0.6339284777641296,[0. 0. 0. 0. 0. 0. 0. 0. 0.],-4.21142578125,-1.220703125,-0.244140625,[0. 0. 0. 0. 0. 0. 0. 0. 0.],-0.03759765625,-0.04345703125,0.986328125,[0. 0. 0. 0. 0. 0. 0. 0. 0.]
2.7755746841430664,0.013572094962000847,-0.021669531241059303,-0.7731751799583435,-0.6336769461631775,[0. 0. 0. 0. 0. 0. 0. 0. 0.],-7.75146484375,-3.5400390625,0.67138671875,[0. 0. 0. 0. 0. 0. 0. 0. 0.],-0.052734375,-0.29736328125,0.88623046875,[0. 0. 0. 0. 0. 0. 0. 0. 0.]
2.801490068435669,0.012903176248073578,-0.021067162975668907,-0.7733843326568604,-0.6334560513496399,[0. 0. 0. 0. 0. 0. 0. 0. 0.],12.87841796875,4.150390625,2.99072265625,[0. 0. 0. 0. 0. 0. 0. 0. 0.],-0.0341796875,-0.00390625,1.22509765625,[0. 0. 0. 0. 0. 0. 0. 0. 0.]
2.8207311630249023,0.014029506593942642,-0.019865473732352257,-0.773381769657135,-0.6334739327430725,[0. 0. 0. 0. 0. 0. 0. 0. 0.],-14.6484375,13.24462890625,-0.06103515625,[0. 0. 0. 0. 0. 0. 0. 0. 0.],-0.0048828125,-0.1875,0.80322265625,[0. 0. 0. 0. 0. 0. 0. 0. 0.]
2.8445239067077637,0.01783410832285881,-0.0167364701628685,-0.7728239893913269,-0.6341489553451538,[0. 0. 0. 0. 0. 0. 0. 0. 0.],-8.1787109375,12.39013671875,-7.01904296875,[0. 0. 0. 0. 0. 0. 0. 0. 0.],-0.076171875,-0.33740234375,0.990234375,[0. 0. 0. 0. 0. 0. 0. 0. 0.]
2.8615708351135254,0.01820407807826996,-0.01623014733195305,-0.7718504667282104,-0.6353362798690796,[0. 0. 0. 0. 0. 0. 0. 0. 0.],8.9111328125,-2.44140625,-12.451171875,[0. 0. 0. 0. 0. 0. 0. 0. 0.],-0.08447265625,-0.31103515625,1.17236328125,[0. 0. 0. 0. 0. 0. 0. 0. 0.]
2.881617546081543,0.019628062844276428,-0.014678556472063065,-0.7700368762016296,-0.6375284790992737,[0. 0. 0. 0. 0. 0. 0. 0. 0.],-5.0048828125,-2.50244140625,-17.63916015625,[0. 0. 0. 0. 0. 0. 0. 0. 0.],-0.0615234375,-0.234375,0.87353515625,[0. 0. 0. 0. 0. 0. 0. 0. 0.]
2.9002206325531006,0.021991349756717682,-0.013698840513825417,-0.7678634524345398,-0.6400893926620483,[0. 0. 0. 0. 0. 0. 0. 0. 0.],1.5869140625,13.3056640625,-21.3623046875,[0. 0. 0. 0. 0. 0. 0. 0. 0.],0.001953125,-0.29931640625,1.01513671875,[0. 0. 0. 0. 0. 0. 0. 0. 0.]
2.915573835372925,0.024237751960754395,-0.013290834613144398,-0.7649875283241272,-0.6434515714645386,[0. 0. 0. 0. 0. 0. 0. 0. 0.],-2.9296875,8.30078125,-27.16064453125,[0. 0. 0. 0. 0. 0. 0. 0. 0.],-0.05712890625,-0.251953125,0.95556640625,[0. 0. 0. 0. 0. 0. 0. 0. 0.]
2.9402225017547607,0.02631441131234169,-0.011775893159210682,-0.7614732384681702,-0.6475550532341003,[0. 0. 0. 0. 0. 0. 0. 0. 0.],-4.57763671875,4.57763671875,-31.31103515625,[0. 0. 0. 0. 0. 0. 0. 0. 0.],-0.08984375,-0.2841796875,0.95556640625,[0. 0. 0. 0. 0. 0. 0. 0. 0.]
2.956590175628662,0.027405910193920135,-0.010946003720164299,-0.75758296251297,-0.6520715951919556,[0. 0. 0. 0. 0. 0. 0. 0. 0.],5.67626953125,-0.06103515625,-34.7900390625,[0. 0. 0. 0. 0. 0. 0. 0. 0.],-0.06884765625,-0.38134765625,1.14892578125,[0. 0. 0. 0. 0. 0. 0. 0. 0.]
2.9835500717163086,0.027797125279903412,-0.010267779231071472,-0.7533460259437561,-0.6569563746452332,[0. 0. 0. 0. 0. 0. 0. 0. 0.],7.50732421875,-6.40869140625,-37.7197265625,[0. 0. 0. 0. 0. 0. 0. 0. 0.],-0.08251953125,-0.3154296875,1.041015625,[0. 0. 0. 0. 0. 0. 0. 0. 0.]
3.0006020069122314,0.028027236461639404,-0.00816578883677721,-0.7488399744033813,-0.662107527256012,[0. 0. 0. 0. 0. 0. 0. 0. 0.],-6.2255859375,-10.3759765625,-39.73388671875,[0. 0. 0. 0. 0. 0. 0. 0. 0.],-0.087890625,-0.24609375,0.8310546875,[0. 0. 0. 0. 0. 0. 0. 0. 0.]
3.0205066204071045,0.03072464093565941,-0.0070784627459943295,-0.7446252703666687,-0.6667376160621643,[0. 0. 0. 0. 0. 0. 0. 0. 0.],-5.37109375,15.869140625,-34.60693359375,[0. 0. 0. 0. 0. 0. 0. 0. 0.],-0.02490234375,-0.32958984375,0.98486328125,[0. 0. 0. 0. 0. 0. 0. 0. 0.]
3.0408806800842285,0.032182518392801285,-0.005930275656282902,-0.7405562996864319,-0.6711971759796143,[0. 0. 0. 0. 0. 0. 0. 0. 0.],-5.37109375,4.21142578125,-32.3486328125,[0. 0. 0. 0. 0. 0. 0. 0. 0.],-0.103515625,-0.306640625,0.9033203125,[0. 0. 0. 0. 0. 0. 0. 0. 0.]
3.0605032444000244,0.03290506824851036,-0.003003508085384965,-0.7367614507675171,-0.6753450632095337,[0. 0. 0. 0. 0. 0. 0. 0. 0.],-0.1220703125,-13.36669921875,-28.9306640625,[0. 0. 0. 0. 0. 0. 0. 0. 0.],-0.12109375,-0.34423828125,1.02099609375,[0. 0. 0. 0. 0. 0. 0. 0. 0.]
3.0802059173583984,0.032365188002586365,-0.00017581119027454406,-0.7338600754737854,-0.6785293221473694,[0. 0. 0. 0. 0. 0. 0. 0. 0.],2.74658203125,-9.82666015625,-20.01953125,[0. 0. 0. 0. 0. 0. 0. 0. 0.],-0.0849609375,-0.37158203125,1.0625,[0. 0. 0. 0. 0. 0. 0. 0. 0.]
3.101090908050537,0.03299286589026451,0.000585464877076447,-0.7319945096969604,-0.6805110573768616,[0. 0. 0. 0. 0. 0. 0. 0. 0.],3.96728515625,4.8828125,-12.02392578125,[0. 0. 0. 0. 0. 0. 0. 0. 0.],-0.02685546875,-0.30859375,0.98291015625,[0. 0. 0. 0. 0. 0. 0. 0. 0.]
3.120384931564331,0.036157798022031784,0.0004503009549807757,-0.7309634685516357,-0.6814579963684082,[0. 0. 0. 0. 0. 0. 0. 0. 0.],-5.37109375,13.12255859375,-6.28662109375,[0. 0. 0. 0. 0. 0. 0. 0. 0.],-0.033203125,-0.2470703125,0.89697265625,[0. 0. 0. 0. 0. 0. 0. 0. 0.]
3.135680675506592,0.039219994097948074,0.0017936575459316373,-0.7303085327148438,-0.6819882988929749,[0. 0. 0. 0. 0. 0. 0. 0. 0.],-1.3427734375,-2.99072265625,-3.90625,[0. 0. 0. 0. 0. 0. 0. 0. 0.],-0.11474609375,-0.330078125,1.041015625,[0. 0. 0. 0. 0. 0. 0. 0. 0.]
3.1613800525665283,0.04034202918410301,0.0015498894499614835,-0.7297760248184204,-0.682493269443512,[0. 0. 0. 0. 0. 0. 0. 0. 0.],9.94873046875,5.859375,-3.90625,[0. 0. 0. 0. 0. 0. 0. 0. 0.],-0.0634765625,-0.404296875,1.20849609375,[0. 0. 0. 0. 0. 0. 0. 0. 0.]
3.1801626682281494,0.04003150761127472,0.0021192729473114014,-0.7290844321250916,-0.68324875831604,[0. 0. 0. 0. 0. 0. 0. 0. 0.],0.1220703125,-11.1083984375,-7.32421875,[0. 0. 0. 0. 0. 0. 0. 0. 0.],-0.12158203125,-0.24609375,0.9013671875,[0. 0. 0. 0. 0. 0. 0. 0. 0.]
3.200305461883545,0.040957260876894,0.0038334475830197334,-0.728167712688446,-0.6841634511947632,[0. 0. 0. 0. 0. 0. 0. 0. 0.],-5.0048828125,3.72314453125,-8.056640625,[0. 0. 0. 0. 0. 0. 0. 0. 0.],-0.0458984375,-0.24560546875,0.89453125,[0. 0. 0. 0. 0. 0. 0. 0. 0.]
3.2201921939849854,0.04241436719894409,0.005038619972765446,-0.72713702917099,-0.6851623058319092,[0. 0. 0. 0. 0. 0. 0. 0. 0.],0.54931640625,2.8076171875,-6.9580078125,[0. 0. 0. 0. 0. 0. 0. 0. 0.],-0.0546875,-0.30029296875,0.91064453125,[0. 0. 0. 0. 0. 0. 0. 0. 0.]
3.240189790725708,0.042771656066179276,0.006462674587965012,-0.7262555956840515,-0.6860623955726624,[0. 0. 0. 0. 0. 0. 0. 0. 0.],2.5634765625,-13.916015625,-6.34765625,[0. 0. 0. 0. 0. 0. 0. 0. 0.],-0.14453125,-0.27294921875,0.92138671875,[0. 0. 0. 0. 0. 0. 0. 0. 0.]
3.26125168800354,0.043347131460905075,0.009246730245649815,-0.7254470586776733,-0.6868495345115662,[0. 0. 0. 0. 0. 0. 0. 0. 0.],-0.91552734375,-15.625,-6.4697265625,[0. 0. 0. 0. 0. 0. 0. 0. 0.],-0.107421875,-0.2958984375,1.04248046875,[0. 0. 0. 0. 0. 0. 0. 0. 0.]
3.2759063243865967,0.04444080963730812,0.01081717200577259,-0.7245151400566101,-0.6877396702766418,[0. 0. 0. 0. 0. 0. 0. 0. 0.],0.732421875,5.79833984375,-8.48388671875,[0. 0. 0. 0. 0. 0. 0. 0. 0.],0.03173828125,-0.30029296875,1.12255859375,[0. 0. 0. 0. 0. 0. 0. 0. 0.]
3.3006112575531006,0.04709953814744949,0.010671845637261868,-0.7234533429145813,-0.6886820793151855,[0. 0. 0. 0. 0. 0. 0. 0. 0.],-2.197265625,11.04736328125,-8.30078125,[0. 0. 0. 0. 0. 0. 0. 0. 0.],0.0029296875,-0.23828125,0.970703125,[0. 0. 0. 0. 0. 0. 0. 0. 0.]
3.3201534748077393,0.04820212721824646,0.011990892700850964,-0.7225339412689209,-0.6895487308502197,[0. 0. 0. 0. 0. 0. 0. 0. 0.],3.90625,-8.6669921875,-6.53076171875,[0. 0. 0. 0. 0. 0. 0. 0. 0.],-0.13720703125,-0.2900390625,0.9794921875,[0. 0. 0. 0. 0. 0. 0. 0. 0.]
3.340364456176758,0.048463307321071625,0.01256810687482357,-0.7215897440910339,-0.6905083060264587,[0. 0. 0. 0. 0. 0. 0. 0. 0.],5.67626953125,-0.42724609375,-7.75146484375,[0. 0. 0. 0. 0. 0. 0. 0. 0.],-0.0234375,-0.28076171875,1.13525390625,[0. 0. 0. 0. 0. 0. 0. 0. 0.]
3.360381603240967,0.047744594514369965,0.01378342229872942,-0.720596969127655,-0.691571056842804,[0. 0. 0. 0. 0. 0. 0. 0. 0.],2.74658203125,-14.83154296875,-8.23974609375,[0. 0. 0. 0. 0. 0. 0. 0. 0.],-0.1259765625,-0.19677734375,0.9140625,[0. 0. 0. 0. 0. 0. 0. 0. 0.]
3.38027286529541,0.04988141730427742,0.014540708623826504,-0.7192668914794922,-0.692788302898407,[0. 0. 0. 0. 0. 0. 0. 0. 0.],-2.38037109375,17.63916015625,-10.986328125,[0. 0. 0. 0. 0. 0. 0. 0. 0.],0.10693359375,-0.20263671875,0.98779296875,[0. 0. 0. 0. 0. 0. 0. 0. 0.]
3.4008595943450928,0.05178114399313927,0.015159727074205875,-0.71800696849823,-0.693941593170166,[0. 0. 0. 0. 0. 0. 0. 0. 0.],-9.94873046875,3.23486328125,-8.544921875,[0. 0. 0. 0. 0. 0. 0. 0. 0.],-0.146484375,-0.1806640625,0.85888671875,[0. 0. 0. 0. 0. 0. 0. 0. 0.]
3.4219448566436768,0.051402054727077484,0.01832713931798935,-0.7172761559486389,-0.6946487426757812,[0. 0. 0. 0. 0. 0. 0. 0. 0.],-12.939453125,-19.4091796875,-7.14111328125,[0. 0. 0. 0. 0. 0. 0. 0. 0.],-0.25634765625,-0.228515625,0.90771484375,[0. 0. 0. 0. 0. 0. 0. 0. 0.]
3.4406332969665527,0.05035189166665077,0.020116476342082024,-0.7164048552513123,-0.6955747008323669,[0. 0. 0. 0. 0. 0. 0. 0. 0.],12.451171875,-0.9765625,-9.09423828125,[0. 0. 0. 0. 0. 0. 0. 0. 0.],0.02734375,-0.27685546875,1.166015625,[0. 0. 0. 0. 0. 0. 0. 0. 0.]
3.4602890014648438,0.05161375552415848,0.020301735028624535,-0.7150464653968811,-0.6968732476234436,[0. 0. 0. 0. 0. 0. 0. 0. 0.],1.40380859375,14.2822265625,-11.23046875,[0. 0. 0. 0. 0. 0. 0. 0. 0.],0.05859375,-0.134765625,0.97607421875,[0. 0. 0. 0. 0. 0. 0. 0. 0.]
3.480137825012207,0.05417000502347946,0.020396554842591286,-0.7138432264328003,-0.6979092955589294,[0. 0. 0. 0. 0. 0. 0. 0. 0.],-1.15966796875,5.859375,-6.34765625,[0. 0. 0. 0. 0. 0. 0. 0. 0.],-0.14697265625,-0.1767578125,1.0009765625,[0. 0. 0. 0. 0. 0. 0. 0. 0.]
3.5001585483551025,0.05446426570415497,0.02045620046555996,-0.713210940361023,-0.6985308527946472,[0. 0. 0. 0. 0. 0. 0. 0. 0.],7.99560546875,-7.568359375,-5.615234375,[0. 0. 0. 0. 0. 0. 0. 0. 0.],-0.1552734375,-0.21630859375,1.197265625,[0. 0. 0. 0. 0. 0. 0. 0. 0.]
3.520432710647583,0.05474254861474037,0.019611600786447525,-0.7121086716651917,-0.6996569633483887,[0. 0. 0. 0. 0. 0. 0. 0. 0.],2.9296875,5.0048828125,-11.29150390625,[0. 0. 0. 0. 0. 0. 0. 0. 0.],-0.06396484375,-0.10986328125,0.9462890625,[0. 0. 0. 0. 0. 0. 0. 0. 0.]
3.5403621196746826,0.05622084438800812,0.01747513934969902,-0.7096017003059387,-0.7021390199661255,[0. 0. 0. 0. 0. 0. 0. 0. 0.],6.7138671875,-0.1220703125,-26.67236328125,[0. 0. 0. 0. 0. 0. 0. 0. 0.],-0.11181640625,-0.0927734375,0.892578125,[0. 0. 0. 0. 0. 0. 0. 0. 0.]
3.5602056980133057,0.05858893692493439,0.01525473315268755,-0.7056874632835388,-0.7059319615364075,[0. 0. 0. 0. 0. 0. 0. 0. 0.],-0.244140625,13.3056640625,-35.400390625,[0. 0. 0. 0. 0. 0. 0. 0. 0.],-0.17724609375,-0.06591796875,0.861328125,[0. 0. 0. 0. 0. 0. 0. 0. 0.]
3.5804569721221924,0.0584983304142952,0.014587671495974064,-0.7005453109741211,-0.7110565304756165,[0. 0. 0. 0. 0. 0. 0. 0. 0.],-1.46484375,-14.09912109375,-46.5087890625,[0. 0. 0. 0. 0. 0. 0. 0. 0.],-0.38330078125,-0.048828125,0.98681640625,[0. 0. 0. 0. 0. 0. 0. 0. 0.]
3.6000192165374756,0.05722620338201523,0.015153608284890652,-0.6945510506629944,-0.7170037627220154,[0. 0. 0. 0. 0. 0. 0. 0. 0.],3.96728515625,-2.197265625,-52.42919921875,[0. 0. 0. 0. 0. 0. 0. 0. 0.],-0.20947265625,-0.078125,1.0966796875,[0. 0. 0. 0. 0. 0. 0. 0. 0.]
3.623967409133911,0.0575052835047245,0.012920043431222439,-0.6860177516937256,-0.7251937389373779,[0. 0. 0. 0. 0. 0. 0. 0. 0.],-8.11767578125,13.7939453125,-51.94091796875,[0. 0. 0. 0. 0. 0. 0. 0. 0.],-0.083984375,-0.05322265625,0.96435546875,[0. 0. 0. 0. 0. 0. 0. 0. 0.]
3.6403348445892334,0.05824900418519974,0.012104429304599762,-0.6814716458320618,-0.729422390460968,[0. 0. 0. 0. 0. 0. 0. 0. 0.],5.67626953125,0.6103515625,-45.654296875,[0. 0. 0. 0. 0. 0. 0. 0. 0.],-0.2294921875,-0.11376953125,1.07763671875,[0. 0. 0. 0. 0. 0. 0. 0. 0.]
3.660284996032715,0.05813077092170715,0.01126132719218731,-0.6761816740036011,-0.7343517541885376,[0. 0. 0. 0. 0. 0. 0. 0. 0.],1.5869140625,-0.79345703125,-39.48974609375,[0. 0. 0. 0. 0. 0. 0. 0. 0.],-0.138671875,-0.11279296875,1.09033203125,[0. 0. 0. 0. 0. 0. 0. 0. 0.]
3.6824588775634766,0.05748297646641731,0.011026968248188496,-0.6720411777496338,-0.7381970286369324,[0. 0. 0. 0. 0. 0. 0. 0. 0.],-0.91552734375,-0.67138671875,-29.11376953125,[0. 0. 0. 0. 0. 0. 0. 0. 0.],-0.11181640625,-0.064453125,0.875,[0. 0. 0. 0. 0. 0. 0. 0. 0.]
3.6953859329223633,0.05657486245036125,0.011254283599555492,-0.668788731098175,-0.7412114143371582,[0. 0. 0. 0. 0. 0. 0. 0. 0.],-0.18310546875,-0.18310546875,-23.13232421875,[0. 0. 0. 0. 0. 0. 0. 0. 0.],-0.029296875,-0.07861328125,0.9111328125,[0. 0. 0. 0. 0. 0. 0. 0. 0.]
3.72005558013916,0.057350024580955505,0.009230919182300568,-0.66647869348526,-0.7432575821876526,[0. 0. 0. 0. 0. 0. 0. 0. 0.],5.18798828125,-1.77001953125,-16.2353515625,[0. 0. 0. 0. 0. 0. 0. 0. 0.],-0.1591796875,-0.0830078125,0.99462890625,[0. 0. 0. 0. 0. 0. 0. 0. 0.]
3.74011492729187,0.057093195617198944,0.009391685016453266,-0.6650504469871521,-0.7445536851882935,[0. 0. 0. 0. 0. 0. 0. 0. 0.],-8.1787109375,-13.48876953125,-10.7421875,[0. 0. 0. 0. 0. 0. 0. 0. 0.],-0.24072265625,-0.00927734375,0.9296875,[0. 0. 0. 0. 0. 0. 0. 0. 0.]
3.7561495304107666,0.056704603135585785,0.008086704649031162,-0.6637260913848877,-0.7457794547080994,[0. 0. 0. 0. 0. 0. 0. 0. 0.],5.4931640625,5.55419921875,-10.8642578125,[0. 0. 0. 0. 0. 0. 0. 0. 0.],-0.02294921875,0.02685546875,1.033203125,[0. 0. 0. 0. 0. 0. 0. 0. 0.]
3.780280828475952,0.054585330188274384,0.005587578751146793,-0.6621829867362976,-0.7473304867744446,[0. 0. 0. 0. 0. 0. 0. 0. 0.],10.25390625,1.5869140625,-11.5966796875,[0. 0. 0. 0. 0. 0. 0. 0. 0.],-0.0908203125,0.10009765625,1.13623046875,[0. 0. 0. 0. 0. 0. 0. 0. 0.]
3.800145387649536,0.05189578980207443,0.00377232045866549,-0.6605716943740845,-0.7489576935768127,[0. 0. 0. 0. 0. 0. 0. 0. 0.],9.3994140625,-2.5634765625,-13.0615234375,[0. 0. 0. 0. 0. 0. 0. 0. 0.],-0.0927734375,0.12158203125,1.1123046875,[0. 0. 0. 0. 0. 0. 0. 0. 0.]
3.8215172290802,0.050516195595264435,0.003409035736694932,-0.6587594747543335,-0.7506480813026428,[0. 0. 0. 0. 0. 0. 0. 0. 0.],-0.6103515625,-11.90185546875,-14.6484375,[0. 0. 0. 0. 0. 0. 0. 0. 0.],-0.091796875,0.16943359375,0.91650390625,[0. 0. 0. 0. 0. 0. 0. 0. 0.]
3.842845916748047,0.04865245521068573,0.0019442427437752485,-0.6558499932289124,-0.7533193230628967,[0. 0. 0. 0. 0. 0. 0. 0. 0.],5.31005859375,-2.50244140625,-20.20263671875,[0. 0. 0. 0. 0. 0. 0. 0. 0.],-0.01171875,0.2392578125,0.986328125,[0. 0. 0. 0. 0. 0. 0. 0. 0.]
3.8603761196136475,0.04639950767159462,0.0014011115999892354,-0.6545239090919495,-0.7546149492263794,[0. 0. 0. 0. 0. 0. 0. 0. 0.],12.51220703125,-8.60595703125,-11.5966796875,[0. 0. 0. 0. 0. 0. 0. 0. 0.],-0.14453125,0.2734375,0.90625,[0. 0. 0. 0. 0. 0. 0. 0. 0.]
3.8804221153259277,0.042820390313863754,0.0015097955474629998,-0.6544948220252991,-0.7548514604568481,[0. 0. 0. 0. 0. 0. 0. 0. 0.],-0.06103515625,-15.44189453125,8.30078125,[0. 0. 0. 0. 0. 0. 0. 0. 0.],-0.1455078125,0.30810546875,0.85888671875,[0. 0. 0. 0. 0. 0. 0. 0. 0.]
3.901930093765259,0.03966258093714714,0.001982321497052908,-0.6578618288040161,-0.7520910501480103,[0. 0. 0. 0. 0. 0. 0. 0. 0.],2.86865234375,0.0,26.91650390625,[0. 0. 0. 0. 0. 0. 0. 0. 0.],0.03955078125,0.30517578125,1.07568359375,[0. 0. 0. 0. 0. 0. 0. 0. 0.]
3.9160854816436768,0.036626700311899185,0.001456309575587511,-0.6617721319198608,-0.7488084435462952,[0. 0. 0. 0. 0. 0. 0. 0. 0.],11.1083984375,-17.2119140625,45.0439453125,[0. 0. 0. 0. 0. 0. 0. 0. 0.],-0.01708984375,0.287109375,1.09912109375,[0. 0. 0. 0. 0. 0. 0. 0. 0.]
3.940276861190796,0.03343970701098442,0.00015309202717617154,-0.6692453026771545,-0.7422887682914734,[0. 0. 0. 0. 0. 0. 0. 0. 0.],6.2255859375,2.74658203125,61.6455078125,[0. 0. 0. 0. 0. 0. 0. 0. 0.],0.1103515625,0.3671875,1.06396484375,[0. 0. 0. 0. 0. 0. 0. 0. 0.]
3.9608962535858154,0.030040083453059196,-0.001558421878144145,-0.6786956787109375,-0.733803391456604,[0. 0. 0. 0. 0. 0. 0. 0. 0.],12.3291015625,-12.87841796875,80.62744140625,[0. 0. 0. 0. 0. 0. 0. 0. 0.],0.064453125,0.35400390625,1.0458984375,[0. 0. 0. 0. 0. 0. 0. 0. 0.]
3.980194091796875,0.026320144534111023,-0.001844457583501935,-0.6902512311935425,-0.7230886816978455,[0. 0. 0. 0. 0. 0. 0. 0. 0.],5.859375,-10.009765625,94.3603515625,[0. 0. 0. 0. 0. 0. 0. 0. 0.],0.13232421875,0.39208984375,1.04931640625,[0. 0. 0. 0. 0. 0. 0. 0. 0.]
4.0000622272491455,0.022183597087860107,-0.002447240287438035,-0.7024935483932495,-0.7113401293754578,[0. 0. 0. 0. 0. 0. 0. 0. 0.],13.48876953125,-8.9111328125,99.2431640625,[0. 0. 0. 0. 0. 0. 0. 0. 0.],0.326171875,0.333984375,1.125,[0. 0. 0. 0. 0. 0. 0. 0. 0.]
4.020133972167969,0.018103452399373055,-0.0027082576416432858,-0.7146804928779602,-0.6992116570472717,[0. 0. 0. 0. 0. 0. 0. 0. 0.],11.16943359375,-16.357421875,99.365234375,[0. 0. 0. 0. 0. 0. 0. 0. 0.],0.25634765625,0.3125,0.96630859375,[0. 0. 0. 0. 0. 0. 0. 0. 0.]
4.040641784667969,0.014705626294016838,-0.0026476134080439806,-0.7266795635223389,-0.6868141293525696,[0. 0. 0. 0. 0. 0. 0. 0. 0.],0.1220703125,1.3427734375,97.71728515625,[0. 0. 0. 0. 0. 0. 0. 0. 0.],0.26416015625,0.34619140625,0.884765625,[0. 0. 0. 0. 0. 0. 0. 0. 0.]
4.060295104980469,0.013486139476299286,-0.0044645145535469055,-0.73829185962677,-0.674331784248352,[0. 0. 0. 0. 0. 0. 0. 0. 0.],7.4462890625,6.04248046875,97.16796875,[0. 0. 0. 0. 0. 0. 0. 0. 0.],0.3193359375,0.3076171875,1.03466796875,[0. 0. 0. 0. 0. 0. 0. 0. 0.]
4.080264329910278,0.010923271998763084,-0.005078570917248726,-0.7495293617248535,-0.6618615984916687,[0. 0. 0. 0. 0. 0. 0. 0. 0.],1.708984375,-10.19287109375,93.505859375,[0. 0. 0. 0. 0. 0. 0. 0. 0.],0.12841796875,0.29443359375,0.81884765625,[0. 0. 0. 0. 0. 0. 0. 0. 0.]
4.101016283035278,0.00783501472324133,-0.004469442646950483,-0.7594833374023438,-0.6504643559455872,[0. 0. 0. 0. 0. 0. 0. 0. 0.],1.28173828125,-14.34326171875,81.6650390625,[0. 0. 0. 0. 0. 0. 0. 0. 0.],0.20068359375,0.27099609375,0.94189453125,[0. 0. 0. 0. 0. 0. 0. 0. 0.]
4.1161181926727295,0.007505964953452349,-0.004611697979271412,-0.7674580216407776,-0.641038715839386,[0. 0. 0. 0. 0. 0. 0. 0. 0.],-7.50732421875,16.05224609375,63.78173828125,[0. 0. 0. 0. 0. 0. 0. 0. 0.],0.35205078125,0.3017578125,1.00634765625,[0. 0. 0. 0. 0. 0. 0. 0. 0.]
4.140548229217529,0.0063017853535711765,-0.004680148791521788,-0.7736270427703857,-0.6335926055908203,[0. 0. 0. 0. 0. 0. 0. 0. 0.],-0.1220703125,-7.6904296875,49.9267578125,[0. 0. 0. 0. 0. 0. 0. 0. 0.],0.04541015625,0.25,1.048828125,[0. 0. 0. 0. 0. 0. 0. 0. 0.]
4.1675896644592285,0.00508363451808691,-0.0057154204696416855,-0.7785362601280212,-0.6275531053543091,[0. 0. 0. 0. 0. 0. 0. 0. 0.],-3.11279296875,3.7841796875,28.3203125,[0. 0. 0. 0. 0. 0. 0. 0. 0.],0.08056640625,0.283203125,1.0703125,[0. 0. 0. 0. 0. 0. 0. 0. 0.]
4.176172256469727,0.005614397116005421,-0.006457088515162468,-0.7802971601486206,-0.6253503561019897,[0. 0. 0. 0. 0. 0. 0. 0. 0.],-6.103515625,11.53564453125,18.37158203125,[0. 0. 0. 0. 0. 0. 0. 0. 0.],0.0263671875,0.27197265625,0.9931640625,[0. 0. 0. 0. 0. 0. 0. 0. 0.]
4.195649862289429,0.0055582900531589985,-0.008418384939432144,-0.781473696231842,-0.6238566040992737,[0. 0. 0. 0. 0. 0. 0. 0. 0.],4.08935546875,3.72314453125,6.2255859375,[0. 0. 0. 0. 0. 0. 0. 0. 0.],-0.0400390625,0.203125,1.03466796875,[0. 0. 0. 0. 0. 0. 0. 0. 0.]
4.2217254638671875,0.005430151242762804,-0.010139147751033306,-0.7812754511833191,-0.6240804195404053,[0. 0. 0. 0. 0. 0. 0. 0. 0.],-6.8359375,6.89697265625,-7.568359375,[0. 0. 0. 0. 0. 0. 0. 0. 0.],-0.0458984375,0.26416015625,0.88037109375,[0. 0. 0. 0. 0. 0. 0. 0. 0.]
4.2405877113342285,0.005995957180857658,-0.011247110553085804,-0.779148519039154,-0.6267098188400269,[0. 0. 0. 0. 0. 0. 0. 0. 0.],-4.7607421875,5.06591796875,-25.7568359375,[0. 0. 0. 0. 0. 0. 0. 0. 0.],-0.0205078125,0.21044921875,1.02197265625,[0. 0. 0. 0. 0. 0. 0. 0. 0.]
4.260774374008179,0.006915961857885122,-0.012939506210386753,-0.775398850440979,-0.6313014626502991,[0. 0. 0. 0. 0. 0. 0. 0. 0.],-3.35693359375,11.16943359375,-38.75732421875,[0. 0. 0. 0. 0. 0. 0. 0. 0.],-0.02490234375,0.10498046875,1.0302734375,[0. 0. 0. 0. 0. 0. 0. 0. 0.]
4.28072714805603,0.0077827987261116505,-0.015127291902899742,-0.7703349590301514,-0.637412428855896,[0. 0. 0. 0. 0. 0. 0. 0. 0.],-1.89208984375,7.8125,-49.560546875,[0. 0. 0. 0. 0. 0. 0. 0. 0.],-0.0927734375,0.13232421875,1.08544921875,[0. 0. 0. 0. 0. 0. 0. 0. 0.]
4.301138877868652,0.009039178490638733,-0.01637413538992405,-0.764130711555481,-0.6447902917861938,[0. 0. 0. 0. 0. 0. 0. 0. 0.],-4.82177734375,1.3427734375,-58.77685546875,[0. 0. 0. 0. 0. 0. 0. 0. 0.],-0.17333984375,0.1279296875,0.97802734375,[0. 0. 0. 0. 0. 0. 0. 0. 0.]
4.320488452911377,0.010318955406546593,-0.01850327104330063,-0.7568329572677612,-0.6532648801803589,[0. 0. 0. 0. 0. 0. 0. 0. 0.],0.3662109375,13.5498046875,-67.138671875,[0. 0. 0. 0. 0. 0. 0. 0. 0.],-0.10986328125,0.09326171875,1.02978515625,[0. 0. 0. 0. 0. 0. 0. 0. 0.]
4.342990875244141,0.012442884035408497,-0.022084426134824753,-0.7467063069343567,-0.6646707057952881,[0. 0. 0. 0. 0. 0. 0. 0. 0.],2.3193359375,0.42724609375,-71.96044921875,[0. 0. 0. 0. 0. 0. 0. 0. 0.],-0.18603515625,0.04150390625,0.99951171875,[0. 0. 0. 0. 0. 0. 0. 0. 0.]
4.356301307678223,0.013379540294408798,-0.022667594254016876,-0.7402845621109009,-0.6717782020568848,[0. 0. 0. 0. 0. 0. 0. 0. 0.],-2.0751953125,-3.41796875,-73.18115234375,[0. 0. 0. 0. 0. 0. 0. 0. 0.],-0.22998046875,0.0576171875,0.91357421875,[0. 0. 0. 0. 0. 0. 0. 0. 0.]
4.381932735443115,0.0148341478779912,-0.022591320797801018,-0.7315572500228882,-0.6812441349029541,[0. 0. 0. 0. 0. 0. 0. 0. 0.],-5.06591796875,1.708984375,-73.3642578125,[0. 0. 0. 0. 0. 0. 0. 0. 0.],-0.19482421875,0.01806640625,0.99755859375,[0. 0. 0. 0. 0. 0. 0. 0. 0.]
4.400796890258789,0.017782708629965782,-0.023792052641510963,-0.7226365804672241,-0.6905897259712219,[0. 0. 0. 0. 0. 0. 0. 0. 0.],2.62451171875,7.75146484375,-73.486328125,[0. 0. 0. 0. 0. 0. 0. 0. 0.],-0.13330078125,-0.04833984375,1.03173828125,[0. 0. 0. 0. 0. 0. 0. 0. 0.]
4.415669202804565,0.018988002091646194,-0.02430908754467964,-0.7140254974365234,-0.6994399428367615,[0. 0. 0. 0. 0. 0. 0. 0. 0.],-5.0048828125,-1.77001953125,-70.068359375,[0. 0. 0. 0. 0. 0. 0. 0. 0.],-0.26318359375,0.02587890625,0.947265625,[0. 0. 0. 0. 0. 0. 0. 0. 0.]
4.435505628585815,0.020798910409212112,-0.02484109252691269,-0.7055203914642334,-0.7079486846923828,[0. 0. 0. 0. 0. 0. 0. 0. 0.],-2.01416015625,-5.4931640625,-68.66455078125,[0. 0. 0. 0. 0. 0. 0. 0. 0.],-0.20751953125,0.001953125,1.06640625,[0. 0. 0. 0. 0. 0. 0. 0. 0.]
4.4623143672943115,0.021816110238432884,-0.024523954838514328,-0.6954668164253235,-0.7178082466125488,[0. 0. 0. 0. 0. 0. 0. 0. 0.],1.5869140625,-2.8076171875,-61.09619140625,[0. 0. 0. 0. 0. 0. 0. 0. 0.],-0.16064453125,-0.04443359375,1.01611328125,[0. 0. 0. 0. 0. 0. 0. 0. 0.]
4.480931282043457,0.023122135549783707,-0.024794770404696465,-0.6899232864379883,-0.7230880856513977,[0. 0. 0. 0. 0. 0. 0. 0. 0.],2.25830078125,3.23486328125,-56.82373046875,[0. 0. 0. 0. 0. 0. 0. 0. 0.],-0.099609375,-0.04345703125,1.00341796875,[0. 0. 0. 0. 0. 0. 0. 0. 0.]
4.500167369842529,0.025856487452983856,-0.025008419528603554,-0.6834076642990112,-0.7291501760482788,[0. 0. 0. 0. 0. 0. 0. 0. 0.],-10.55908203125,-1.220703125,-48.40087890625,[0. 0. 0. 0. 0. 0. 0. 0. 0.],-0.15283203125,-0.01416015625,0.87841796875,[0. 0. 0. 0. 0. 0. 0. 0. 0.]
4.521271467208862,0.028115300461649895,-0.023131338879466057,-0.6779564619064331,-0.7341999411582947,[0. 0. 0. 0. 0. 0. 0. 0. 0.],-5.126953125,0.48828125,-40.34423828125,[0. 0. 0. 0. 0. 0. 0. 0. 0.],-0.033203125,-0.1630859375,1.03125,[0. 0. 0. 0. 0. 0. 0. 0. 0.]
4.540287017822266,0.028425194323062897,-0.02169772982597351,-0.6735796928405762,-0.7382491230964661,[0. 0. 0. 0. 0. 0. 0. 0. 0.],8.60595703125,-6.65283203125,-27.77099609375,[0. 0. 0. 0. 0. 0. 0. 0. 0.],-0.04248046875,-0.11181640625,1.16748046875,[0. 0. 0. 0. 0. 0. 0. 0. 0.]
4.560392618179321,0.028339583426713943,-0.02055204287171364,-0.6711407899856567,-0.7405029535293579,[0. 0. 0. 0. 0. 0. 0. 0. 0.],4.7607421875,-3.96728515625,-14.16015625,[0. 0. 0. 0. 0. 0. 0. 0. 0.],-0.0556640625,-0.0556640625,1.076171875,[0. 0. 0. 0. 0. 0. 0. 0. 0.]
4.580938100814819,0.027376707643270493,-0.019104601815342903,-0.6697781682014465,-0.7418105602264404,[0. 0. 0. 0. 0. 0. 0. 0. 0.],3.7841796875,-2.685546875,-8.60595703125,[0. 0. 0. 0. 0. 0. 0. 0. 0.],-0.0361328125,-0.03515625,0.9765625,[0. 0. 0. 0. 0. 0. 0. 0. 0.]
4.600191116333008,0.027276117354631424,-0.018088683485984802,-0.6689063906669617,-0.7426258325576782,[0. 0. 0. 0. 0. 0. 0. 0. 0.],0.244140625,10.009765625,-5.7373046875,[0. 0. 0. 0. 0. 0. 0. 0. 0.],-0.00830078125,-0.03173828125,0.91015625,[0. 0. 0. 0. 0. 0. 0. 0. 0.]
4.62034010887146,0.028177591040730476,-0.018121028319001198,-0.6683967113494873,-0.7430502772331238,[0. 0. 0. 0. 0. 0. 0. 0. 0.],-3.11279296875,-4.7607421875,-2.62451171875,[0. 0. 0. 0. 0. 0. 0. 0. 0.],-0.123046875,-0.01416015625,0.890625,[0. 0. 0. 0. 0. 0. 0. 0. 0.]
4.640546560287476,0.02872316725552082,-0.01822112873196602,-0.6681049466133118,-0.7432892918586731,[0. 0. 0. 0. 0. 0. 0. 0. 0.],-3.5400390625,-0.9765625,-3.662109375,[0. 0. 0. 0. 0. 0. 0. 0. 0.],-0.0693359375,-0.00634765625,1.025390625,[0. 0. 0. 0. 0. 0. 0. 0. 0.]
4.6604743003845215,0.029091162607073784,-0.017518138512969017,-0.6672900915145874,-0.7440234422683716,[0. 0. 0. 0. 0. 0. 0. 0. 0.],0.48828125,11.16943359375,-6.28662109375,[0. 0. 0. 0. 0. 0. 0. 0. 0.],0.04345703125,-0.0849609375,1.16796875,[0. 0. 0. 0. 0. 0. 0. 0. 0.]
4.681062459945679,0.029573608189821243,-0.017054365947842598,-0.6665858626365662,-0.7446461319923401,[0. 0. 0. 0. 0. 0. 0. 0. 0.],3.7841796875,-11.23046875,-2.99072265625,[0. 0. 0. 0. 0. 0. 0. 0. 0.],-0.1640625,-0.048828125,0.9306640625,[0. 0. 0. 0. 0. 0. 0. 0. 0.]
4.700866222381592,0.02863142639398575,-0.0169033445417881,-0.6661272048950195,-0.7450968027114868,[0. 0. 0. 0. 0. 0. 0. 0. 0.],-4.39453125,-0.06103515625,-3.7841796875,[0. 0. 0. 0. 0. 0. 0. 0. 0.],-0.03466796875,0.00244140625,0.95263671875,[0. 0. 0. 0. 0. 0. 0. 0. 0.]
4.720609426498413,0.028176704421639442,-0.01602112501859665,-0.6658115386962891,-0.7454156279563904,[0. 0. 0. 0. 0. 0. 0. 0. 0.],-6.16455078125,-0.30517578125,-3.41796875,[0. 0. 0. 0. 0. 0. 0. 0. 0.],-0.04296875,-0.00927734375,1.01513671875,[0. 0. 0. 0. 0. 0. 0. 0. 0.]
4.74508261680603,0.03009735979139805,-0.015195667743682861,-0.665515124797821,-0.7456225752830505,[0. 0. 0. 0. 0. 0. 0. 0. 0.],-4.69970703125,1.52587890625,-0.9765625,[0. 0. 0. 0. 0. 0. 0. 0. 0.],-0.03173828125,-0.07861328125,0.935546875,[0. 0. 0. 0. 0. 0. 0. 0. 0.]
4.760094881057739,0.03119884617626667,-0.013814866542816162,-0.6653596758842468,-0.7457428574562073,[0. 0. 0. 0. 0. 0. 0. 0. 0.],-13.97705078125,3.47900390625,-2.44140625,[0. 0. 0. 0. 0. 0. 0. 0. 0.],0.01806640625,-0.09130859375,0.86279296875,[0. 0. 0. 0. 0. 0. 0. 0. 0.]
4.78135871887207,0.03351030498743057,-0.01210722140967846,-0.6646784543991089,-0.7462795376777649,[0. 0. 0. 0. 0. 0. 0. 0. 0.],-4.8828125,12.87841796875,-5.2490234375,[0. 0. 0. 0. 0. 0. 0. 0. 0.],0.05615234375,-0.1318359375,1.13037109375,[0. 0. 0. 0. 0. 0. 0. 0. 0.]
4.802278518676758,0.03312477096915245,-0.011369669809937477,-0.6640955209732056,-0.7468271255493164,[0. 0. 0. 0. 0. 0. 0. 0. 0.],8.97216796875,-3.47900390625,-4.0283203125,[0. 0. 0. 0. 0. 0. 0. 0. 0.],-0.08447265625,-0.09375,1.18017578125,[0. 0. 0. 0. 0. 0. 0. 0. 0.]
4.816425085067749,0.03279119357466698,-0.011001835577189922,-0.6636168956756592,-0.7472726106643677,[0. 0. 0. 0. 0. 0. 0. 0. 0.],1.220703125,-0.06103515625,-5.126953125,[0. 0. 0. 0. 0. 0. 0. 0. 0.],-0.02880859375,-0.03515625,1.029296875,[0. 0. 0. 0. 0. 0. 0. 0. 0.]
4.841436147689819,0.03183360397815704,-0.011917764320969582,-0.6621223092079163,-0.7486245632171631,[0. 0. 0. 0. 0. 0. 0. 0. 0.],-0.3662109375,11.41357421875,-15.5029296875,[0. 0. 0. 0. 0. 0. 0. 0. 0.],-0.04443359375,-0.0244140625,0.92236328125,[0. 0. 0. 0. 0. 0. 0. 0. 0.]
4.863802433013916,0.03447481617331505,-0.014423221349716187,-0.659160852432251,-0.751072883605957,[0. 0. 0. 0. 0. 0. 0. 0. 0.],1.03759765625,13.36669921875,-24.5361328125,[0. 0. 0. 0. 0. 0. 0. 0. 0.],-0.1689453125,-0.02099609375,0.89208984375,[0. 0. 0. 0. 0. 0. 0. 0. 0.]
4.889589071273804,0.03573120757937431,-0.01629352569580078,-0.6548922657966614,-0.7547013163566589,[0. 0. 0. 0. 0. 0. 0. 0. 0.],0.79345703125,10.25390625,-37.78076171875,[0. 0. 0. 0. 0. 0. 0. 0. 0.],-0.1953125,0.0205078125,1.00732421875,[0. 0. 0. 0. 0. 0. 0. 0. 0.]
4.89751124382019,0.03681844472885132,-0.018872417509555817,-0.6485477685928345,-0.7600486874580383,[0. 0. 0. 0. 0. 0. 0. 0. 0.],-5.37109375,10.7421875,-53.22265625,[0. 0. 0. 0. 0. 0. 0. 0. 0.],-0.12939453125,0.04052734375,1.04638671875,[0. 0. 0. 0. 0. 0. 0. 0. 0.]
4.915351629257202,0.03745128586888313,-0.020388389006257057,-0.6429477334022522,-0.7647221684455872,[0. 0. 0. 0. 0. 0. 0. 0. 0.],4.2724609375,1.03759765625,-59.87548828125,[0. 0. 0. 0. 0. 0. 0. 0. 0.],-0.25390625,0.01171875,1.00634765625,[0. 0. 0. 0. 0. 0. 0. 0. 0.]
4.942252159118652,0.037118103355169296,-0.021199241280555725,-0.6344082355499268,-0.7718154788017273,[0. 0. 0. 0. 0. 0. 0. 0. 0.],3.84521484375,-6.103515625,-66.71142578125,[0. 0. 0. 0. 0. 0. 0. 0. 0.],-0.2939453125,0.041015625,0.9716796875,[0. 0. 0. 0. 0. 0. 0. 0. 0.]
4.961049795150757,0.0372699536383152,-0.022730935364961624,-0.6245161294937134,-0.779790997505188,[0. 0. 0. 0. 0. 0. 0. 0. 0.],2.3193359375,3.96728515625,-74.951171875,[0. 0. 0. 0. 0. 0. 0. 0. 0.],-0.1923828125,0.04443359375,0.97998046875,[0. 0. 0. 0. 0. 0. 0. 0. 0.]
4.980468511581421,0.039259977638721466,-0.02450912818312645,-0.6139623522758484,-0.7879772186279297,[0. 0. 0. 0. 0. 0. 0. 0. 0.],-7.2021484375,3.41796875,-78.7353515625,[0. 0. 0. 0. 0. 0. 0. 0. 0.],-0.2421875,0.0341796875,0.89892578125,[0. 0. 0. 0. 0. 0. 0. 0. 0.]
5.001596212387085,0.04105155169963837,-0.023954400792717934,-0.6033087372779846,-0.7960901856422424,[0. 0. 0. 0. 0. 0. 0. 0. 0.],-8.36181640625,-4.33349609375,-76.66015625,[0. 0. 0. 0. 0. 0. 0. 0. 0.],-0.22119140625,-0.0146484375,0.95703125,[0. 0. 0. 0. 0. 0. 0. 0. 0.]
5.020325183868408,0.04260382428765297,-0.023596221581101418,-0.5927011370658875,-0.8039487600326538,[0. 0. 0. 0. 0. 0. 0. 0. 0.],2.99072265625,6.8359375,-74.52392578125,[0. 0. 0. 0. 0. 0. 0. 0. 0.],-0.0458984375,-0.07080078125,1.2607421875,[0. 0. 0. 0. 0. 0. 0. 0. 0.]
5.040361404418945,0.041794177144765854,-0.023051002994179726,-0.5828131437301636,-0.8112033009529114,[0. 0. 0. 0. 0. 0. 0. 0. 0.],7.62939453125,-12.939453125,-65.49072265625,[0. 0. 0. 0. 0. 0. 0. 0. 0.],-0.19873046875,-0.05908203125,1.1357421875,[0. 0. 0. 0. 0. 0. 0. 0. 0.]
5.062277793884277,0.04070596024394035,-0.022741999477148056,-0.5744136571884155,-0.817236065864563,[0. 0. 0. 0. 0. 0. 0. 0. 0.],3.662109375,0.67138671875,-55.35888671875,[0. 0. 0. 0. 0. 0. 0. 0. 0.],-0.03955078125,-0.0283203125,0.95166015625,[0. 0. 0. 0. 0. 0. 0. 0. 0.]
5.081172227859497,0.040148116648197174,-0.021902993321418762,-0.5678731203079224,-0.8218446969985962,[0. 0. 0. 0. 0. 0. 0. 0. 0.],4.08935546875,-0.18310546875,-39.4287109375,[0. 0. 0. 0. 0. 0. 0. 0. 0.],-0.0439453125,-0.05810546875,0.916015625,[0. 0. 0. 0. 0. 0. 0. 0. 0.]
5.104299068450928,0.04179011657834053,-0.02041175588965416,-0.5627017021179199,-0.8253507018089294,[0. 0. 0. 0. 0. 0. 0. 0. 0.],-4.2724609375,-6.9580078125,-23.92578125,[0. 0. 0. 0. 0. 0. 0. 0. 0.],-0.12890625,-0.11962890625,0.87255859375,[0. 0. 0. 0. 0. 0. 0. 0. 0.]
5.1213765144348145,0.04365255683660507,-0.019959652796387672,-0.560501754283905,-0.8267610669136047,[0. 0. 0. 0. 0. 0. 0. 0. 0.],-4.150390625,16.78466796875,-17.51708984375,[0. 0. 0. 0. 0. 0. 0. 0. 0.],-0.03271484375,-0.05712890625,1.0498046875,[0. 0. 0. 0. 0. 0. 0. 0. 0.]
5.141212463378906,0.044412706047296524,-0.020251043140888214,-0.5584392547607422,-0.8281081318855286,[0. 0. 0. 0. 0. 0. 0. 0. 0.],5.4931640625,-5.31005859375,-9.3994140625,[0. 0. 0. 0. 0. 0. 0. 0. 0.],-0.18115234375,-0.19384765625,1.16064453125,[0. 0. 0. 0. 0. 0. 0. 0. 0.]
5.16072416305542,0.04412519559264183,-0.0196954607963562,-0.5574080944061279,-0.8288312554359436,[0. 0. 0. 0. 0. 0. 0. 0. 0.],1.46484375,-10.6201171875,-7.6904296875,[0. 0. 0. 0. 0. 0. 0. 0. 0.],-0.1455078125,-0.05322265625,0.93798828125,[0. 0. 0. 0. 0. 0. 0. 0. 0.]
5.180368185043335,0.04391989856958389,-0.01809595711529255,-0.5562247633934021,-0.8296732902526855,[0. 0. 0. 0. 0. 0. 0. 0. 0.],-2.0751953125,3.2958984375,-8.30078125,[0. 0. 0. 0. 0. 0. 0. 0. 0.],-0.01318359375,-0.05908203125,0.8251953125,[0. 0. 0. 0. 0. 0. 0. 0. 0.]
5.200759410858154,0.044270895421504974,-0.016904644668102264,-0.555014967918396,-0.830489456653595,[0. 0. 0. 0. 0. 0. 0. 0. 0.],-11.77978515625,6.53076171875,-7.9345703125,[0. 0. 0. 0. 0. 0. 0. 0. 0.],-0.06005859375,-0.03076171875,0.83642578125,[0. 0. 0. 0. 0. 0. 0. 0. 0.]
5.220425605773926,0.04492606222629547,-0.016923246905207634,-0.5539650321006775,-0.8311547040939331,[0. 0. 0. 0. 0. 0. 0. 0. 0.],3.23486328125,-11.71875,-6.04248046875,[0. 0. 0. 0. 0. 0. 0. 0. 0.],-0.14990234375,-0.07958984375,1.19580078125,[0. 0. 0. 0. 0. 0. 0. 0. 0.]
5.240161418914795,0.043605320155620575,-0.01676878333091736,-0.5527799129486084,-0.8320167660713196,[0. 0. 0. 0. 0. 0. 0. 0. 0.],7.32421875,0.91552734375,-7.2021484375,[0. 0. 0. 0. 0. 0. 0. 0. 0.],-0.00341796875,-0.06103515625,1.28466796875,[0. 0. 0. 0. 0. 0. 0. 0. 0.]
5.260363817214966,0.04302199184894562,-0.01567014493048191,-0.5516622066497803,-0.8328099250793457,[0. 0. 0. 0. 0. 0. 0. 0. 0.],1.0986328125,-7.6904296875,-8.36181640625,[0. 0. 0. 0. 0. 0. 0. 0. 0.],-0.0771484375,-0.06396484375,0.94677734375,[0. 0. 0. 0. 0. 0. 0. 0. 0.]
5.275703430175781,0.04253127798438072,-0.014703058637678623,-0.5503246784210205,-0.8337371945381165,[0. 0. 0. 0. 0. 0. 0. 0. 0.],2.38037109375,14.0380859375,-8.30078125,[0. 0. 0. 0. 0. 0. 0. 0. 0.],0.0166015625,-0.0546875,0.935546875,[0. 0. 0. 0. 0. 0. 0. 0. 0.]
5.295422792434692,0.04220859333872795,-0.014789976179599762,-0.5492743253707886,-0.8344443440437317,[0. 0. 0. 0. 0. 0. 0. 0. 0.],2.3193359375,-6.53076171875,-6.40869140625,[0. 0. 0. 0. 0. 0. 0. 0. 0.],-0.14453125,-0.05126953125,0.833984375,[0. 0. 0. 0. 0. 0. 0. 0. 0.]
5.320484161376953,0.04203977435827255,-0.01460046786814928,-0.5486493110656738,-0.8348674178123474,[0. 0. 0. 0. 0. 0. 0. 0. 0.],-2.8076171875,4.8828125,-5.55419921875,[0. 0. 0. 0. 0. 0. 0. 0. 0.],-0.0576171875,-0.01806640625,0.9970703125,[0. 0. 0. 0. 0. 0. 0. 0. 0.]
5.343773365020752,0.042658187448978424,-0.014182224869728088,-0.5479338765144348,-0.8353129029273987,[0. 0. 0. 0. 0. 0. 0. 0. 0.],-4.33349609375,-7.6904296875,-2.99072265625,[0. 0. 0. 0. 0. 0. 0. 0. 0.],-0.15869140625,-0.14404296875,1.076171875,[0. 0. 0. 0. 0. 0. 0. 0. 0.]
5.360242605209351,0.043182555586099625,-0.01247501466423273,-0.5476818084716797,-0.8354785442352295,[0. 0. 0. 0. 0. 0. 0. 0. 0.],-6.77490234375,-16.90673828125,-2.0751953125,[0. 0. 0. 0. 0. 0. 0. 0. 0.],-0.1484375,-0.13525390625,0.90087890625,[0. 0. 0. 0. 0. 0. 0. 0. 0.]
5.382157564163208,0.04536464065313339,-0.009549086913466454,-0.5466967821121216,-0.8360464572906494,[0. 0. 0. 0. 0. 0. 0. 0. 0.],-5.31005859375,4.5166015625,-5.4931640625,[0. 0. 0. 0. 0. 0. 0. 0. 0.],0.076171875,-0.18994140625,0.822265625,[0. 0. 0. 0. 0. 0. 0. 0. 0.]
5.4012744426727295,0.04754030704498291,-0.008652997203171253,-0.5458924770355225,-0.8364607095718384,[0. 0. 0. 0. 0. 0. 0. 0. 0.],-9.82666015625,-0.6103515625,-7.4462890625,[0. 0. 0. 0. 0. 0. 0. 0. 0.],-0.04638671875,-0.2421875,0.9306640625,[0. 0. 0. 0. 0. 0. 0. 0. 0.]
5.415374279022217,0.04851987957954407,-0.007050777319818735,-0.5450451374053955,-0.8369718790054321,[0. 0. 0. 0. 0. 0. 0. 0. 0.],4.57763671875,-9.27734375,-5.7373046875,[0. 0. 0. 0. 0. 0. 0. 0. 0.],-0.09912109375,-0.32763671875,1.24755859375,[0. 0. 0. 0. 0. 0. 0. 0. 0.]
5.440327167510986,0.04776526987552643,-0.00485116895288229,-0.5454351902008057,-0.8367767930030823,[0. 0. 0. 0. 0. 0. 0. 0. 0.],3.96728515625,-13.916015625,7.50732421875,[0. 0. 0. 0. 0. 0. 0. 0. 0.],0.02392578125,-0.30224609375,1.16748046875,[0. 0. 0. 0. 0. 0. 0. 0. 0.]
5.455296277999878,0.047217149287462234,-0.002899996703490615,-0.5481122732162476,-0.8350658416748047,[0. 0. 0. 0. 0. 0. 0. 0. 0.],2.197265625,-5.79833984375,22.705078125,[0. 0. 0. 0. 0. 0. 0. 0. 0.],0.0830078125,-0.24365234375,0.94677734375,[0. 0. 0. 0. 0. 0. 0. 0. 0.]
5.4756927490234375,0.04833852872252464,-0.0016211472684517503,-0.5531216859817505,-0.8316954374313354,[0. 0. 0. 0. 0. 0. 0. 0. 0.],3.41796875,-11.3525390625,41.50390625,[0. 0. 0. 0. 0. 0. 0. 0. 0.],-0.017578125,-0.2685546875,0.89306640625,[0. 0. 0. 0. 0. 0. 0. 0. 0.]
5.5003883838653564,0.04662186652421951,0.0024250117130577564,-0.5609671473503113,-0.8265207409858704,[0. 0. 0. 0. 0. 0. 0. 0. 0.],-1.89208984375,-19.83642578125,61.4013671875,[0. 0. 0. 0. 0. 0. 0. 0. 0.],-0.01611328125,-0.2255859375,0.91748046875,[0. 0. 0. 0. 0. 0. 0. 0. 0.]
5.520924091339111,0.04760553315281868,0.004671487025916576,-0.5712684392929077,-0.8193682432174683,[0. 0. 0. 0. 0. 0. 0. 0. 0.],-10.009765625,2.74658203125,79.2236328125,[0. 0. 0. 0. 0. 0. 0. 0. 0.],0.1728515625,-0.14453125,0.798828125,[0. 0. 0. 0. 0. 0. 0. 0. 0.]
5.540335655212402,0.04747360944747925,0.008673615753650665,-0.583176851272583,-0.8109105825424194,[0. 0. 0. 0. 0. 0. 0. 0. 0.],3.2958984375,-21.6064453125,89.599609375,[0. 0. 0. 0. 0. 0. 0. 0. 0.],0.04833984375,-0.33349609375,1.12060546875,[0. 0. 0. 0. 0. 0. 0. 0. 0.]
5.560331344604492,0.04564962908625603,0.009522860869765282,-0.5963031649589539,-0.801403820514679,[0. 0. 0. 0. 0. 0. 0. 0. 0.],13.3056640625,8.36181640625,98.44970703125,[0. 0. 0. 0. 0. 0. 0. 0. 0.],0.3232421875,-0.3291015625,1.2783203125,[0. 0. 0. 0. 0. 0. 0. 0. 0.]
5.582200050354004,0.04386584460735321,0.009959593415260315,-0.6146321296691895,-0.7875303030014038,[0. 0. 0. 0. 0. 0. 0. 0. 0.],-6.65283203125,-7.6904296875,112.548828125,[0. 0. 0. 0. 0. 0. 0. 0. 0.],0.138671875,-0.16943359375,0.83837890625,[0. 0. 0. 0. 0. 0. 0. 0. 0.]
5.600361347198486,0.0431332066655159,0.011689495295286179,-0.62660813331604,-0.7780522108078003,[0. 0. 0. 0. 0. 0. 0. 0. 0.],-1.46484375,-20.263671875,116.0888671875,[0. 0. 0. 0. 0. 0. 0. 0. 0.],0.1533203125,-0.23291015625,0.97705078125,[0. 0. 0. 0. 0. 0. 0. 0. 0.]
5.620138168334961,0.043700989335775375,0.014429930597543716,-0.6438879370689392,-0.7637344598770142,[0. 0. 0. 0. 0. 0. 0. 0. 0.],-15.380859375,-1.15966796875,132.99560546875,[0. 0. 0. 0. 0. 0. 0. 0. 0.],0.2099609375,-0.15380859375,0.7060546875,[0. 0. 0. 0. 0. 0. 0. 0. 0.]
5.640540838241577,0.04323967546224594,0.016261225566267967,-0.6618281602859497,-0.7482308745384216,[0. 0. 0. 0. 0. 0. 0. 0. 0.],5.4931640625,-1.5869140625,142.2119140625,[0. 0. 0. 0. 0. 0. 0. 0. 0.],0.26220703125,-0.36474609375,1.171875,[0. 0. 0. 0. 0. 0. 0. 0. 0.]
5.66074275970459,0.041699811816215515,0.01660081371665001,-0.6803057789802551,-0.7315529584884644,[0. 0. 0. 0. 0. 0. 0. 0. 0.],9.09423828125,-7.9345703125,144.59228515625,[0. 0. 0. 0. 0. 0. 0. 0. 0.],0.3271484375,-0.3095703125,1.1767578125,[0. 0. 0. 0. 0. 0. 0. 0. 0.]
5.679879188537598,0.03892294317483902,0.017471501603722572,-0.699029266834259,-0.7138192057609558,[0. 0. 0. 0. 0. 0. 0. 0. 0.],22.27783203125,-23.3154296875,151.611328125,[0. 0. 0. 0. 0. 0. 0. 0. 0.],0.28662109375,-0.29345703125,1.0224609375,[0. 0. 0. 0. 0. 0. 0. 0. 0.]
5.700481653213501,0.03633354604244232,0.018233301118016243,-0.7182512879371643,-0.6945953369140625,[0. 0. 0. 0. 0. 0. 0. 0. 0.],-2.01416015625,0.42724609375,162.4755859375,[0. 0. 0. 0. 0. 0. 0. 0. 0.],0.2705078125,-0.14208984375,0.7509765625,[0. 0. 0. 0. 0. 0. 0. 0. 0.]
5.720382213592529,0.03568488731980324,0.0201238002628088,-0.7377097606658936,-0.6738739013671875,[0. 0. 0. 0. 0. 0. 0. 0. 0.],2.5634765625,-9.94873046875,164.9169921875,[0. 0. 0. 0. 0. 0. 0. 0. 0.],0.2822265625,-0.27294921875,0.92724609375,[0. 0. 0. 0. 0. 0. 0. 0. 0.]
5.740702152252197,0.03396310284733772,0.020931679755449295,-0.7571070194244385,-0.6520715355873108,[0. 0. 0. 0. 0. 0. 0. 0. 0.],13.00048828125,1.8310546875,169.00634765625,[0. 0. 0. 0. 0. 0. 0. 0. 0.],0.419921875,-0.37646484375,1.16015625,[0. 0. 0. 0. 0. 0. 0. 0. 0.]
5.760245084762573,0.030553175136446953,0.021397264674305916,-0.7762942314147949,-0.6292662620544434,[0. 0. 0. 0. 0. 0. 0. 0. 0.],17.2119140625,-22.52197265625,173.4619140625,[0. 0. 0. 0. 0. 0. 0. 0. 0.],0.3544921875,-0.32861328125,1.06787109375,[0. 0. 0. 0. 0. 0. 0. 0. 0.]
5.78137731552124,0.02885899879038334,0.022654803469777107,-0.8004139065742493,-0.5983240008354187,[0. 0. 0. 0. 0. 0. 0. 0. 0.],-16.78466796875,-7.99560546875,181.09130859375,[0. 0. 0. 0. 0. 0. 0. 0. 0.],0.32373046875,-0.1015625,0.59765625,[0. 0. 0. 0. 0. 0. 0. 0. 0.]
5.800597429275513,0.02699708379805088,0.024723703041672707,-0.8145673274993896,-0.5789127945899963,[0. 0. 0. 0. 0. 0. 0. 0. 0.],8.72802734375,-21.8505859375,187.3779296875,[0. 0. 0. 0. 0. 0. 0. 0. 0.],0.25390625,-0.33154296875,0.92041015625,[0. 0. 0. 0. 0. 0. 0. 0. 0.]
5.820319890975952,0.02325109764933586,0.02525227889418602,-0.8329404592514038,-0.552297055721283,[0. 0. 0. 0. 0. 0. 0. 0. 0.],21.240234375,-15.2587890625,184.02099609375,[0. 0. 0. 0. 0. 0. 0. 0. 0.],0.5654296875,-0.34521484375,1.2060546875,[0. 0. 0. 0. 0. 0. 0. 0. 0.]
5.842264890670776,0.018451303243637085,0.02309064194560051,-0.8543948531150818,-0.5187829732894897,[0. 0. 0. 0. 0. 0. 0. 0. 0.],15.44189453125,-2.86865234375,182.373046875,[0. 0. 0. 0. 0. 0. 0. 0. 0.],0.623046875,-0.1162109375,1.02099609375,[0. 0. 0. 0. 0. 0. 0. 0. 0.]
5.860819101333618,0.016952143982052803,0.023737307637929916,-0.8666418194770813,-0.49807748198509216,[0. 0. 0. 0. 0. 0. 0. 0. 0.],-2.99072265625,-25.146484375,182.31201171875,[0. 0. 0. 0. 0. 0. 0. 0. 0.],0.4345703125,-0.0400390625,0.650390625,[0. 0. 0. 0. 0. 0. 0. 0. 0.]
5.880280494689941,0.012615266256034374,0.02665805257856846,-0.8820873498916626,-0.4701617658138275,[0. 0. 0. 0. 0. 0. 0. 0. 0.],-3.47900390625,-12.26806640625,182.373046875,[0. 0. 0. 0. 0. 0. 0. 0. 0.],0.4951171875,-0.162109375,0.8828125,[0. 0. 0. 0. 0. 0. 0. 0. 0.]
5.900209665298462,0.011177933774888515,0.026644140481948853,-0.8962936401367188,-0.4425187110900879,[0. 0. 0. 0. 0. 0. 0. 0. 0.],4.8828125,3.41796875,173.15673828125,[0. 0. 0. 0. 0. 0. 0. 0. 0.],0.76904296875,-0.203125,1.1376953125,[0. 0. 0. 0. 0. 0. 0. 0. 0.]
5.923475980758667,0.009544404223561287,0.025314193218946457,-0.9091139435768127,-0.4156680703163147,[0. 0. 0. 0. 0. 0. 0. 0. 0.],15.31982421875,-12.3291015625,168.02978515625,[0. 0. 0. 0. 0. 0. 0. 0. 0.],0.65869140625,-0.1806640625,1.1484375,[0. 0. 0. 0. 0. 0. 0. 0. 0.]
5.935494661331177,0.008858062326908112,0.024302201345562935,-0.9209604263305664,-0.38879671692848206,[0. 0. 0. 0. 0. 0. 0. 0. 0.],5.2490234375,6.77490234375,167.236328125,[0. 0. 0. 0. 0. 0. 0. 0. 0.],0.64111328125,-0.0791015625,0.86181640625,[0. 0. 0. 0. 0. 0. 0. 0. 0.]
5.960458993911743,0.005934392102062702,0.025097906589508057,-0.9315646886825562,-0.362659752368927,[0. 0. 0. 0. 0. 0. 0. 0. 0.],0.9765625,-16.54052734375,158.99658203125,[0. 0. 0. 0. 0. 0. 0. 0. 0.],0.515625,-0.119140625,0.82080078125,[0. 0. 0. 0. 0. 0. 0. 0. 0.]
5.987614393234253,0.002592387842014432,0.02764219231903553,-0.9435516595840454,-0.330059677362442,[0. 0. 0. 0. 0. 0. 0. 0. 0.],-6.89697265625,-14.83154296875,156.6162109375,[0. 0. 0. 0. 0. 0. 0. 0. 0.],0.6259765625,-0.14111328125,0.92919921875,[0. 0. 0. 0. 0. 0. 0. 0. 0.]
6.00029182434082,0.002676947508007288,0.028265196830034256,-0.949878990650177,-0.31132614612579346,[0. 0. 0. 0. 0. 0. 0. 0. 0.],-3.0517578125,4.2724609375,144.59228515625,[0. 0. 0. 0. 0. 0. 0. 0. 0.],0.826171875,-0.17236328125,1.1259765625,[0. 0. 0. 0. 0. 0. 0. 0. 0.]
6.020716905593872,0.0013333279639482498,0.027109432965517044,-0.9572684168815613,-0.28792455792427063,[0. 0. 0. 0. 0. 0. 0. 0. 0.],11.3525390625,-6.9580078125,135.7421875,[0. 0. 0. 0. 0. 0. 0. 0. 0.],0.72998046875,-0.19287109375,1.19580078125,[0. 0. 0. 0. 0. 0. 0. 0. 0.]
6.041299819946289,-0.0005145965842530131,0.02669568546116352,-0.9638932943344116,-0.26494696736335754,[0. 0. 0. 0. 0. 0. 0. 0. 0.],3.60107421875,5.0048828125,138.48876953125,[0. 0. 0. 0. 0. 0. 0. 0. 0.],0.6025390625,-0.07421875,0.84912109375,[0. 0. 0. 0. 0. 0. 0. 0. 0.]
6.055267095565796,0.0012640865752473474,0.027089130133390427,-0.9697868227958679,-0.24244225025177002,[0. 0. 0. 0. 0. 0. 0. 0. 0.],-0.06103515625,-4.21142578125,132.14111328125,[0. 0. 0. 0. 0. 0. 0. 0. 0.],0.6220703125,-0.0908203125,0.85693359375,[0. 0. 0. 0. 0. 0. 0. 0. 0.]
6.080230474472046,-0.002586779184639454,0.028455590829253197,-0.9747841954231262,-0.22131294012069702,[0. 0. 0. 0. 0. 0. 0. 0. 0.],3.7841796875,-18.00537109375,120.42236328125,[0. 0. 0. 0. 0. 0. 0. 0. 0.],0.607421875,-0.11962890625,0.93310546875,[0. 0. 0. 0. 0. 0. 0. 0. 0.]
6.100436687469482,-0.004176344722509384,0.027749938890337944,-0.978984534740448,-0.2019944041967392,[0. 0. 0. 0. 0. 0. 0. 0. 0.],7.6904296875,3.7841796875,111.083984375,[0. 0. 0. 0. 0. 0. 0. 0. 0.],0.77880859375,-0.095703125,1.05712890625,[0. 0. 0. 0. 0. 0. 0. 0. 0.]
6.12034010887146,-0.005464501213282347,0.026753200218081474,-0.9825443625450134,-0.1840139627456665,[0. 0. 0. 0. 0. 0. 0. 0. 0.],10.31494140625,-13.73291015625,102.35595703125,[0. 0. 0. 0. 0. 0. 0. 0. 0.],0.7001953125,-0.0771484375,1.060546875,[0. 0. 0. 0. 0. 0. 0. 0. 0.]
6.140218257904053,-0.00614283187314868,0.025124117732048035,-0.9855296015739441,-0.16751867532730103,[0. 0. 0. 0. 0. 0. 0. 0. 0.],13.7939453125,7.75146484375,93.07861328125,[0. 0. 0. 0. 0. 0. 0. 0. 0.],0.78662109375,-0.0556640625,1.140625,[0. 0. 0. 0. 0. 0. 0. 0. 0.]
6.162383317947388,-0.008355309255421162,0.023421399295330048,-0.9887176156044006,-0.1477128267288208,[0. 0. 0. 0. 0. 0. 0. 0. 0.],0.42724609375,-8.85009765625,92.71240234375,[0. 0. 0. 0. 0. 0. 0. 0. 0.],0.51025390625,0.02294921875,0.74462890625,[0. 0. 0. 0. 0. 0. 0. 0. 0.]
6.180624723434448,-0.008088955655694008,0.023313675075769424,-0.990348219871521,-0.13638703525066376,[0. 0. 0. 0. 0. 0. 0. 0. 0.],4.7607421875,8.23974609375,84.89990234375,[0. 0. 0. 0. 0. 0. 0. 0. 0.],0.66064453125,-0.00048828125,0.86572265625,[0. 0. 0. 0. 0. 0. 0. 0. 0.]
6.201364517211914,-0.01050690095871687,0.021514760330319405,-0.9922074675559998,-0.1222747266292572,[0. 0. 0. 0. 0. 0. 0. 0. 0.],8.544921875,-14.09912109375,79.40673828125,[0. 0. 0. 0. 0. 0. 0. 0. 0.],0.60302734375,-0.013671875,0.99755859375,[0. 0. 0. 0. 0. 0. 0. 0. 0.]
6.215429782867432,-0.01386431697756052,0.020818546414375305,-0.9937863349914551,-0.10845768451690674,[0. 0. 0. 0. 0. 0. 0. 0. 0.],1.89208984375,-3.90625,77.0263671875,[0. 0. 0. 0. 0. 0. 0. 0. 0.],0.65966796875,0.05712890625,0.9140625,[0. 0. 0. 0. 0. 0. 0. 0. 0.]
6.240607976913452,-0.01498909667134285,0.01983053795993328,-0.9951140284538269,-0.09555178135633469,[0. 0. 0. 0. 0. 0. 0. 0. 0.],11.23046875,-2.13623046875,72.08251953125,[0. 0. 0. 0. 0. 0. 0. 0. 0.],0.6513671875,0.02490234375,0.9697265625,[0. 0. 0. 0. 0. 0. 0. 0. 0.]
6.2605955600738525,-0.01739112287759781,0.018199151381850243,-0.9961639642715454,-0.08380783349275589,[0. 0. 0. 0. 0. 0. 0. 0. 0.],9.58251953125,5.31005859375,65.00244140625,[0. 0. 0. 0. 0. 0. 0. 0. 0.],0.6572265625,0.04638671875,0.9970703125,[0. 0. 0. 0. 0. 0. 0. 0. 0.]
6.282075881958008,-0.018348682671785355,0.016102958470582962,-0.9969472885131836,-0.07416290044784546,[0. 0. 0. 0. 0. 0. 0. 0. 0.],17.08984375,-9.33837890625,51.33056640625,[0. 0. 0. 0. 0. 0. 0. 0. 0.],0.685546875,0.07861328125,1.04931640625,[0. 0. 0. 0. 0. 0. 0. 0. 0.]
6.300546169281006,-0.020593788474798203,0.014111833646893501,-0.9974321126937866,-0.06712666898965836,[0. 0. 0. 0. 0. 0. 0. 0. 0.],9.70458984375,-0.6103515625,36.865234375,[0. 0. 0. 0. 0. 0. 0. 0. 0.],0.69189453125,0.10302734375,1.0595703125,[0. 0. 0. 0. 0. 0. 0. 0. 0.]
6.320331573486328,-0.021332720294594765,0.01259505283087492,-0.9977431893348694,-0.06240886449813843,[0. 0. 0. 0. 0. 0. 0. 0. 0.],11.8408203125,1.953125,23.4375,[0. 0. 0. 0. 0. 0. 0. 0. 0.],0.6328125,0.12939453125,0.994140625,[0. 0. 0. 0. 0. 0. 0. 0. 0.]
6.336569547653198,-0.021222064271569252,0.010752549394965172,-0.9979823231697083,-0.05886665731668472,[0. 0. 0. 0. 0. 0. 0. 0. 0.],2.74658203125,1.15966796875,21.484375,[0. 0. 0. 0. 0. 0. 0. 0. 0.],0.41357421875,0.20166015625,0.75390625,[0. 0. 0. 0. 0. 0. 0. 0. 0.]
6.3600194454193115,-0.021825915202498436,0.00939866155385971,-0.9981725811958313,-0.05555954575538635,[0. 0. 0. 0. 0. 0. 0. 0. 0.],6.28662109375,8.9111328125,16.9677734375,[0. 0. 0. 0. 0. 0. 0. 0. 0.],0.451171875,0.236328125,0.94189453125,[0. 0. 0. 0. 0. 0. 0. 0. 0.]
6.375382661819458,-0.0203537717461586,0.008641411550343037,-0.9983640313148499,-0.052728068083524704,[0. 0. 0. 0. 0. 0. 0. 0. 0.],1.40380859375,8.72802734375,16.7236328125,[0. 0. 0. 0. 0. 0. 0. 0. 0.],0.3544921875,0.30126953125,0.96728515625,[0. 0. 0. 0. 0. 0. 0. 0. 0.]
6.400617599487305,-0.02096301130950451,0.007286435458809137,-0.9984864592552185,-0.050322506576776505,[0. 0. 0. 0. 0. 0. 0. 0. 0.],-2.74658203125,1.89208984375,12.451171875,[0. 0. 0. 0. 0. 0. 0. 0. 0.],0.201171875,0.3251953125,0.9912109375,[0. 0. 0. 0. 0. 0. 0. 0. 0.]
6.421019792556763,-0.02146078087389469,0.005883754231035709,-0.9985585808753967,-0.048843707889318466,[0. 0. 0. 0. 0. 0. 0. 0. 0.],4.7607421875,3.84521484375,5.37109375,[0. 0. 0. 0. 0. 0. 0. 0. 0.],0.22314453125,0.328125,1.02880859375,[0. 0. 0. 0. 0. 0. 0. 0. 0.]
6.435542106628418,-0.020656174048781395,0.0035870361607521772,-0.9986010193824768,-0.048544034361839294,[0. 0. 0. 0. 0. 0. 0. 0. 0.],6.103515625,5.18798828125,1.0986328125,[0. 0. 0. 0. 0. 0. 0. 0. 0.],0.13134765625,0.302734375,0.9716796875,[0. 0. 0. 0. 0. 0. 0. 0. 0.]
6.4605395793914795,-0.01866503246128559,0.0021355210337787867,-0.99859619140625,-0.04952583089470863,[0. 0. 0. 0. 0. 0. 0. 0. 0.],-2.9296875,18.6767578125,-11.8408203125,[0. 0. 0. 0. 0. 0. 0. 0. 0.],0.099609375,0.3916015625,0.95361328125,[0. 0. 0. 0. 0. 0. 0. 0. 0.]
6.480535507202148,-0.015900015830993652,0.00030835194047540426,-0.9984277486801147,-0.05375100299715996,[0. 0. 0. 0. 0. 0. 0. 0. 0.],3.47900390625,11.1083984375,-30.1513671875,[0. 0. 0. 0. 0. 0. 0. 0. 0.],0.0,0.3837890625,1.07080078125,[0. 0. 0. 0. 0. 0. 0. 0. 0.]
6.500428915023804,-0.014159947633743286,-0.001836843672208488,-0.9980536103248596,-0.06070597469806671,[0. 0. 0. 0. 0. 0. 0. 0. 0.],-0.06103515625,12.51220703125,-44.7998046875,[0. 0. 0. 0. 0. 0. 0. 0. 0.],-0.03173828125,0.4013671875,1.0263671875,[0. 0. 0. 0. 0. 0. 0. 0. 0.]
6.520524024963379,-0.011756934225559235,-0.003163730027154088,-0.9974609017372131,-0.07016871124505997,[0. 0. 0. 0. 0. 0. 0. 0. 0.],-0.9765625,10.55908203125,-58.837890625,[0. 0. 0. 0. 0. 0. 0. 0. 0.],-0.0341796875,0.41455078125,1.02734375,[0. 0. 0. 0. 0. 0. 0. 0. 0.]
6.540520906448364,-0.00954580120742321,-0.00455285981297493,-0.9965917468070984,-0.08181163668632507,[0. 0. 0. 0. 0. 0. 0. 0. 0.],-0.67138671875,16.4794921875,-69.76318359375,[0. 0. 0. 0. 0. 0. 0. 0. 0.],-0.08056640625,0.35693359375,0.98876953125,[0. 0. 0. 0. 0. 0. 0. 0. 0.]
6.560504198074341,-0.007624173536896706,-0.007268521003425121,-0.995481014251709,-0.09437564760446548,[0. 0. 0. 0. 0. 0. 0. 0. 0.],4.33349609375,5.0048828125,-71.533203125,[0. 0. 0. 0. 0. 0. 0. 0. 0.],-0.13427734375,0.34716796875,1.11376953125,[0. 0. 0. 0. 0. 0. 0. 0. 0.]
6.58114218711853,-0.0071594868786633015,-0.008265674114227295,-0.9941707253456116,-0.1072617694735527,[0. 0. 0. 0. 0. 0. 0. 0. 0.],-5.67626953125,-2.74658203125,-74.03564453125,[0. 0. 0. 0. 0. 0. 0. 0. 0.],-0.15380859375,0.39892578125,0.93798828125,[0. 0. 0. 0. 0. 0. 0. 0. 0.]
6.6003992557525635,-0.006297558080404997,-0.009747154079377651,-0.9926910996437073,-0.12012343108654022,[0. 0. 0. 0. 0. 0. 0. 0. 0.],2.44140625,4.7607421875,-73.8525390625,[0. 0. 0. 0. 0. 0. 0. 0. 0.],-0.08056640625,0.3134765625,1.01513671875,[0. 0. 0. 0. 0. 0. 0. 0. 0.]
6.620215892791748,-0.0058495961129665375,-0.01174103282392025,-0.9911220073699951,-0.1323075145483017,[0. 0. 0. 0. 0. 0. 0. 0. 0.],-0.8544921875,0.67138671875,-68.54248046875,[0. 0. 0. 0. 0. 0. 0. 0. 0.],-0.12744140625,0.34423828125,1.0029296875,[0. 0. 0. 0. 0. 0. 0. 0. 0.]
6.640794277191162,-0.004882744047790766,-0.0126956170424819,-0.9895455837249756,-0.1435779333114624,[0. 0. 0. 0. 0. 0. 0. 0. 0.],-3.96728515625,1.40380859375,-64.14794921875,[0. 0. 0. 0. 0. 0. 0. 0. 0.],-0.1181640625,0.35791015625,1.02099609375,[0. 0. 0. 0. 0. 0. 0. 0. 0.]
6.661387920379639,-0.004125671926885843,-0.013890891335904598,-0.9879533648490906,-0.15407229959964752,[0. 0. 0. 0. 0. 0. 0. 0. 0.],-0.06103515625,0.67138671875,-59.50927734375,[0. 0. 0. 0. 0. 0. 0. 0. 0.],-0.12158203125,0.31982421875,1.03271484375,[0. 0. 0. 0. 0. 0. 0. 0. 0.]
6.680729150772095,-0.0035775606520473957,-0.015676574781537056,-0.9863761067390442,-0.1637183278799057,[0. 0. 0. 0. 0. 0. 0. 0. 0.],2.25830078125,0.79345703125,-54.13818359375,[0. 0. 0. 0. 0. 0. 0. 0. 0.],-0.10595703125,0.30859375,0.9794921875,[0. 0. 0. 0. 0. 0. 0. 0. 0.]
6.700912952423096,-0.003318444825708866,-0.017366215586662292,-0.9848508238792419,-0.17249999940395355,[0. 0. 0. 0. 0. 0. 0. 0. 0.],-1.03759765625,-1.89208984375,-49.4384765625,[0. 0. 0. 0. 0. 0. 0. 0. 0.],-0.10791015625,0.32861328125,0.96484375,[0. 0. 0. 0. 0. 0. 0. 0. 0.]
6.7203779220581055,-0.0035361817572265863,-0.01831914111971855,-0.9834378361701965,-0.18028269708156586,[0. 0. 0. 0. 0. 0. 0. 0. 0.],-3.11279296875,-5.06591796875,-43.64013671875,[0. 0. 0. 0. 0. 0. 0. 0. 0.],-0.09033203125,0.33154296875,1.009765625,[0. 0. 0. 0. 0. 0. 0. 0. 0.]
6.740930795669556,-0.0040182508528232574,-0.01960458606481552,-0.9821361303329468,-0.18710510432720184,[0. 0. 0. 0. 0. 0. 0. 0. 0.],1.40380859375,-3.23486328125,-37.9638671875,[0. 0. 0. 0. 0. 0. 0. 0. 0.],-0.03076171875,0.2890625,1.03515625,[0. 0. 0. 0. 0. 0. 0. 0. 0.]
6.756358861923218,-0.004840142093598843,-0.021244708448648453,-0.9810904860496521,-0.1923193484544754,[0. 0. 0. 0. 0. 0. 0. 0. 0.],0.8544921875,-3.72314453125,-25.69580078125,[0. 0. 0. 0. 0. 0. 0. 0. 0.],-0.0283203125,0.27978515625,0.99462890625,[0. 0. 0. 0. 0. 0. 0. 0. 0.]
6.780317544937134,-0.0057068681344389915,-0.023122243583202362,-0.9803786873817444,-0.19567927718162537,[0. 0. 0. 0. 0. 0. 0. 0. 0.],2.8076171875,-3.23486328125,-15.93017578125,[0. 0. 0. 0. 0. 0. 0. 0. 0.],0.009765625,0.29833984375,1.01806640625,[0. 0. 0. 0. 0. 0. 0. 0. 0.]
6.800349235534668,-0.00644861301407218,-0.025012679398059845,-0.9799079895019531,-0.19777065515518188,[0. 0. 0. 0. 0. 0. 0. 0. 0.],2.99072265625,-1.953125,-9.94873046875,[0. 0. 0. 0. 0. 0. 0. 0. 0.],0.02880859375,0.31689453125,1.03076171875,[0. 0. 0. 0. 0. 0. 0. 0. 0.]
6.820716619491577,-0.00675343070179224,-0.02676549181342125,-0.9796470999717712,-0.19882071018218994,[0. 0. 0. 0. 0. 0. 0. 0. 0.],1.46484375,0.91552734375,-4.8828125,[0. 0. 0. 0. 0. 0. 0. 0. 0.],0.0087890625,0.3173828125,1.0078125,[0. 0. 0. 0. 0. 0. 0. 0. 0.]
6.840702772140503,-0.006639137864112854,-0.02803250588476658,-0.9794851541519165,-0.19944657385349274,[0. 0. 0. 0. 0. 0. 0. 0. 0.],-2.197265625,3.5400390625,-2.685546875,[0. 0. 0. 0. 0. 0. 0. 0. 0.],-0.01123046875,0.3271484375,0.96875,[0. 0. 0. 0. 0. 0. 0. 0. 0.]
6.860830783843994,-0.006157166324555874,-0.02923605777323246,-0.9793634414672852,-0.19988656044006348,[0. 0. 0. 0. 0. 0. 0. 0. 0.],-3.5400390625,3.173828125,-2.25830078125,[0. 0. 0. 0. 0. 0. 0. 0. 0.],-0.03076171875,0.30517578125,0.974609375,[0. 0. 0. 0. 0. 0. 0. 0. 0.]
6.880809545516968,-0.005790583789348602,-0.030552398413419724,-0.9792302846908569,-0.20035265386104584,[0. 0. 0. 0. 0. 0. 0. 0. 0.],-1.89208984375,1.8310546875,-2.9296875,[0. 0. 0. 0. 0. 0. 0. 0. 0.],-0.0205078125,0.27490234375,1.01904296875,[0. 0. 0. 0. 0. 0. 0. 0. 0.]
6.901041269302368,-0.005532531533390284,-0.0318598635494709,-0.9790944457054138,-0.20081962645053864,[0. 0. 0. 0. 0. 0. 0. 0. 0.],-2.38037109375,2.9296875,-2.8076171875,[0. 0. 0. 0. 0. 0. 0. 0. 0.],-0.02685546875,0.25634765625,1.01318359375,[0. 0. 0. 0. 0. 0. 0. 0. 0.]
6.916370153427124,-0.005226495210081339,-0.03213031217455864,-0.9789499044418335,-0.20148827135562897,[0. 0. 0. 0. 0. 0. 0. 0. 0.],-12.5732421875,5.2490234375,-5.4931640625,[0. 0. 0. 0. 0. 0. 0. 0. 0.],0.02197265625,0.115234375,0.9306640625,[0. 0. 0. 0. 0. 0. 0. 0. 0.]
6.941581726074219,-0.003999520093202591,-0.030627520754933357,-0.9788689613342285,-0.20214247703552246,[0. 0. 0. 0. 0. 0. 0. 0. 0.],-3.84521484375,8.9111328125,-2.13623046875,[0. 0. 0. 0. 0. 0. 0. 0. 0.],-0.03564453125,0.05078125,1.08056640625,[0. 0. 0. 0. 0. 0. 0. 0. 0.]
6.960278511047363,-0.0013477073516696692,-0.02766498550772667,-0.978958785533905,-0.20217017829418182,[0. 0. 0. 0. 0. 0. 0. 0. 0.],-15.625,6.4697265625,-1.0986328125,[0. 0. 0. 0. 0. 0. 0. 0. 0.],-0.04296875,-0.1259765625,0.9345703125,[0. 0. 0. 0. 0. 0. 0. 0. 0.]
6.975681781768799,-2.353271383981337e-06,-0.024593401700258255,-0.9789823293685913,-0.2024572193622589,[0. 0. 0. 0. 0. 0. 0. 0. 0.],-17.08984375,17.2119140625,1.03759765625,[0. 0. 0. 0. 0. 0. 0. 0. 0.],-0.0166015625,-0.12255859375,0.962890625,[0. 0. 0. 0. 0. 0. 0. 0. 0.]
7.000314474105835,0.0017002896638587117,-0.022854652255773544,-0.9789385199546814,-0.2028648853302002,[0. 0. 0. 0. 0. 0. 0. 0. 0.],-5.55419921875,9.033203125,-0.54931640625,[0. 0. 0. 0. 0. 0. 0. 0. 0.],-0.0615234375,-0.0185546875,1.03076171875,[0. 0. 0. 0. 0. 0. 0. 0. 0.]
7.020441055297852,0.003299844218418002,-0.0209351759403944,-0.978930652141571,-0.20309065282344818,[0. 0. 0. 0. 0. 0. 0. 0. 0.],3.96728515625,-1.5869140625,-3.173828125,[0. 0. 0. 0. 0. 0. 0. 0. 0.],-0.07373046875,-0.138671875,1.02392578125,[0. 0. 0. 0. 0. 0. 0. 0. 0.]
7.041081666946411,0.005324698053300381,-0.0183318592607975,-0.9790045619010925,-0.2029426246881485,[0. 0. 0. 0. 0. 0. 0. 0. 0.],-6.7138671875,1.89208984375,1.40380859375,[0. 0. 0. 0. 0. 0. 0. 0. 0.],-0.08740234375,-0.15869140625,0.927734375,[0. 0. 0. 0. 0. 0. 0. 0. 0.]
7.06074857711792,0.006005153059959412,-0.015926552936434746,-0.9790330529212952,-0.20298926532268524,[0. 0. 0. 0. 0. 0. 0. 0. 0.],-3.7841796875,3.5400390625,0.732421875,[0. 0. 0. 0. 0. 0. 0. 0. 0.],-0.029296875,-0.1572265625,1.0234375,[0. 0. 0. 0. 0. 0. 0. 0. 0.]
7.084101915359497,0.006354604382067919,-0.0146633330732584,-0.9789924621582031,-0.20326973497867584,[0. 0. 0. 0. 0. 0. 0. 0. 0.],5.55419921875,0.30517578125,-2.86865234375,[0. 0. 0. 0. 0. 0. 0. 0. 0.],0.02099609375,-0.15478515625,1.11376953125,[0. 0. 0. 0. 0. 0. 0. 0. 0.]
7.100630760192871,0.006428028456866741,-0.013615263625979424,-0.978916347026825,-0.20370632410049438,[0. 0. 0. 0. 0. 0. 0. 0. 0.],-2.01416015625,3.11279296875,-1.40380859375,[0. 0. 0. 0. 0. 0. 0. 0. 0.],-0.02685546875,-0.08154296875,0.98583984375,[0. 0. 0. 0. 0. 0. 0. 0. 0.]
7.120301961898804,0.007001236546784639,-0.011429153382778168,-0.978843629360199,-0.20417043566703796,[0. 0. 0. 0. 0. 0. 0. 0. 0.],0.0,-1.40380859375,-2.38037109375,[0. 0. 0. 0. 0. 0. 0. 0. 0.],-0.025390625,-0.13720703125,0.98583984375,[0. 0. 0. 0. 0. 0. 0. 0. 0.]
7.1426427364349365,0.007417394779622555,-0.009191572666168213,-0.9788618683815002,-0.20418153703212738,[0. 0. 0. 0. 0. 0. 0. 0. 0.],1.0986328125,-3.90625,1.953125,[0. 0. 0. 0. 0. 0. 0. 0. 0.],-0.04541015625,-0.1337890625,0.978515625,[0. 0. 0. 0. 0. 0. 0. 0. 0.]
7.160671234130859,0.007362767122685909,-0.007585449144244194,-0.9789960980415344,-0.2036048173904419,[0. 0. 0. 0. 0. 0. 0. 0. 0.],-2.25830078125,-6.04248046875,6.16455078125,[0. 0. 0. 0. 0. 0. 0. 0. 0.],-0.0546875,-0.1181640625,0.93896484375,[0. 0. 0. 0. 0. 0. 0. 0. 0.]
7.181100368499756,0.006959846243262291,-0.005263063125312328,-0.9792275428771973,-0.2025769203901291,[0. 0. 0. 0. 0. 0. 0. 0. 0.],-1.15966796875,-1.89208984375,7.50732421875,[0. 0. 0. 0. 0. 0. 0. 0. 0.],0.02392578125,-0.09814453125,1.00439453125,[0. 0. 0. 0. 0. 0. 0. 0. 0.]
7.2006940841674805,0.006342330947518349,-0.003473494201898575,-0.9795045852661133,-0.20129188895225525,[0. 0. 0. 0. 0. 0. 0. 0. 0.],3.41796875,-2.74658203125,9.033203125,[0. 0. 0. 0. 0. 0. 0. 0. 0.],0.03857421875,-0.10498046875,1.0546875,[0. 0. 0. 0. 0. 0. 0. 0. 0.]
7.216987609863281,0.006273934151977301,-0.0019485637312754989,-0.9799419045448303,-0.19917532801628113,[0. 0. 0. 0. 0. 0. 0. 0. 0.],2.01416015625,-5.37109375,13.85498046875,[0. 0. 0. 0. 0. 0. 0. 0. 0.],-0.041015625,-0.0751953125,0.98291015625,[0. 0. 0. 0. 0. 0. 0. 0. 0.]
7.240208625793457,0.006997518707066774,-0.0006731125176884234,-0.9804912805557251,-0.19643685221672058,[0. 0. 0. 0. 0. 0. 0. 0. 0.],1.52587890625,-5.06591796875,16.78466796875,[0. 0. 0. 0. 0. 0. 0. 0. 0.],-0.0703125,-0.06884765625,0.94775390625,[0. 0. 0. 0. 0. 0. 0. 0. 0.]
7.261899471282959,0.007240550592541695,0.0010929309064522386,-0.981102466583252,-0.1933501660823822,[0. 0. 0. 0. 0. 0. 0. 0. 0.],-4.69970703125,-5.126953125,17.7001953125,[0. 0. 0. 0. 0. 0. 0. 0. 0.],-0.0283203125,-0.10205078125,0.9482421875,[0. 0. 0. 0. 0. 0. 0. 0. 0.]
7.280251979827881,0.0063290721736848354,0.0038983274716883898,-0.9816504716873169,-0.19054482877254486,[0. 0. 0. 0. 0. 0. 0. 0. 0.],-1.5869140625,-5.18798828125,15.80810546875,[0. 0. 0. 0. 0. 0. 0. 0. 0.],0.05126953125,-0.13525390625,1.0517578125,[0. 0. 0. 0. 0. 0. 0. 0. 0.]
7.30295467376709,0.005802952218800783,0.005437154322862625,-0.9822808504104614,-0.18724636733531952,[0. 0. 0. 0. 0. 0. 0. 0. 0.],2.0751953125,-3.173828125,20.44677734375,[0. 0. 0. 0. 0. 0. 0. 0. 0.],-0.0146484375,-0.0693359375,1.1064453125,[0. 0. 0. 0. 0. 0. 0. 0. 0.]
7.320584297180176,0.005988177843391895,0.006585015915334225,-0.9829859137535095,-0.18346507847309113,[0. 0. 0. 0. 0. 0. 0. 0. 0.],0.244140625,-0.48828125,23.8037109375,[0. 0. 0. 0. 0. 0. 0. 0. 0.],-0.015625,-0.03515625,0.96728515625,[0. 0. 0. 0. 0. 0. 0. 0. 0.]
7.340834617614746,0.006820618640631437,0.008248435333371162,-0.9837568998336792,-0.17918699979782104,[0. 0. 0. 0. 0. 0. 0. 0. 0.],-2.0751953125,-5.18798828125,25.146484375,[0. 0. 0. 0. 0. 0. 0. 0. 0.],-0.02587890625,-0.033203125,0.93896484375,[0. 0. 0. 0. 0. 0. 0. 0. 0.]
7.36026930809021,0.006205401383340359,0.009603604674339294,-0.9845243096351624,-0.17487451434135437,[0. 0. 0. 0. 0. 0. 0. 0. 0.],2.62451171875,1.64794921875,24.5361328125,[0. 0. 0. 0. 0. 0. 0. 0. 0.],0.037109375,-0.04736328125,1.08447265625,[0. 0. 0. 0. 0. 0. 0. 0. 0.]
7.3806376457214355,0.005013985093683004,0.009599616751074791,-0.9852691292762756,-0.17066773772239685,[0. 0. 0. 0. 0. 0. 0. 0. 0.],5.67626953125,-1.8310546875,24.71923828125,[0. 0. 0. 0. 0. 0. 0. 0. 0.],-0.0048828125,-0.0263671875,1.03662109375,[0. 0. 0. 0. 0. 0. 0. 0. 0.]
7.401010990142822,0.005037751514464617,0.008870585821568966,-0.9860402941703796,-0.1661943644285202,[0. 0. 0. 0. 0. 0. 0. 0. 0.],-1.708984375,-8.30078125,26.2451171875,[0. 0. 0. 0. 0. 0. 0. 0. 0.],-0.06298828125,0.0029296875,0.92041015625,[0. 0. 0. 0. 0. 0. 0. 0. 0.]
7.420388221740723,0.003866320475935936,0.00831983145326376,-0.9867841601371765,-0.161780446767807,[0. 0. 0. 0. 0. 0. 0. 0. 0.],1.64794921875,1.28173828125,25.32958984375,[0. 0. 0. 0. 0. 0. 0. 0. 0.],0.06103515625,-0.01708984375,1.01806640625,[0. 0. 0. 0. 0. 0. 0. 0. 0.]
7.440126419067383,0.0019179437076672912,0.008102783001959324,-0.9874783158302307,-0.15753485262393951,[0. 0. 0. 0. 0. 0. 0. 0. 0.],5.43212890625,-2.8076171875,24.658203125,[0. 0. 0. 0. 0. 0. 0. 0. 0.],0.046875,-0.0234375,1.01513671875,[0. 0. 0. 0. 0. 0. 0. 0. 0.]
7.460571765899658,0.0006684617255814373,0.007161837071180344,-0.9881740212440491,-0.15316832065582275,[0. 0. 0. 0. 0. 0. 0. 0. 0.],-2.44140625,1.708984375,25.57373046875,[0. 0. 0. 0. 0. 0. 0. 0. 0.],0.03857421875,0.02978515625,0.96875,[0. 0. 0. 0. 0. 0. 0. 0. 0.]
7.482845783233643,-0.0008446499123238027,0.006622391287237406,-0.9888527393341064,-0.1487477570772171,[0. 0. 0. 0. 0. 0. 0. 0. 0.],-0.79345703125,0.30517578125,25.5126953125,[0. 0. 0. 0. 0. 0. 0. 0. 0.],0.03271484375,-0.001953125,1.01806640625,[0. 0. 0. 0. 0. 0. 0. 0. 0.]
7.5040810108184814,-0.002746265847235918,0.0062190028838813305,-0.9894727468490601,-0.1445600688457489,[0. 0. 0. 0. 0. 0. 0. 0. 0.],-1.0986328125,-2.44140625,24.169921875,[0. 0. 0. 0. 0. 0. 0. 0. 0.],0.01953125,0.005859375,0.9697265625,[0. 0. 0. 0. 0. 0. 0. 0. 0.]
7.5168616771698,-0.0029307869262993336,0.004935915116220713,-0.9900709986686707,-0.1404513716697693,[0. 0. 0. 0. 0. 0. 0. 0. 0.],0.67138671875,-3.96728515625,23.681640625,[0. 0. 0. 0. 0. 0. 0. 0. 0.],-0.00439453125,0.017578125,1.02734375,[0. 0. 0. 0. 0. 0. 0. 0. 0.]
7.540251016616821,-0.003745820838958025,0.0036469006445258856,-0.9906089901924133,-0.13662590086460114,[0. 0. 0. 0. 0. 0. 0. 0. 0.],3.90625,4.33349609375,22.0947265625,[0. 0. 0. 0. 0. 0. 0. 0. 0.],0.08544921875,0.0322265625,1.14599609375,[0. 0. 0. 0. 0. 0. 0. 0. 0.]
7.560248851776123,-0.004425125662237406,0.0019728830084204674,-0.991157591342926,-0.13260208070278168,[0. 0. 0. 0. 0. 0. 0. 0. 0.],2.62451171875,-2.74658203125,23.8037109375,[0. 0. 0. 0. 0. 0. 0. 0. 0.],-0.00341796875,0.0322265625,1.001953125,[0. 0. 0. 0. 0. 0. 0. 0. 0.]
7.580465793609619,-0.0034642056562006474,0.0006106898654252291,-0.991719663143158,-0.12837351858615875,[0. 0. 0. 0. 0. 0. 0. 0. 0.],1.5869140625,-0.67138671875,24.84130859375,[0. 0. 0. 0. 0. 0. 0. 0. 0.],-0.0244140625,0.013671875,0.86669921875,[0. 0. 0. 0. 0. 0. 0. 0. 0.]
7.600221395492554,-0.0021292483434081078,-0.000628576788585633,-0.9922732710838318,-0.12405180186033249,[0. 0. 0. 0. 0. 0. 0. 0. 0.],-0.18310546875,0.91552734375,25.146484375,[0. 0. 0. 0. 0. 0. 0. 0. 0.],-0.025390625,0.0283203125,0.9248046875,[0. 0. 0. 0. 0. 0. 0. 0. 0.]
7.620462894439697,-0.001275195856578648,-0.0009003977756947279,-0.9928246736526489,-0.11956869065761566,[0. 0. 0. 0. 0. 0. 0. 0. 0.],-5.9814453125,-2.3193359375,27.099609375,[0. 0. 0. 0. 0. 0. 0. 0. 0.],-0.0625,0.041015625,1.00830078125,[0. 0. 0. 0. 0. 0. 0. 0. 0.]
7.640226125717163,-0.000199950736714527,-0.0007931897998787463,-0.9933552145957947,-0.11508648097515106,[0. 0. 0. 0. 0. 0. 0. 0. 0.],-2.5634765625,-5.126953125,24.4140625,[0. 0. 0. 0. 0. 0. 0. 0. 0.],-0.04443359375,0.0078125,1.0712890625,[0. 0. 0. 0. 0. 0. 0. 0. 0.]
7.660218715667725,-0.0006060271407477558,-0.0014665259514003992,-0.9937201142311096,-0.1118830069899559,[0. 0. 0. 0. 0. 0. 0. 0. 0.],0.42724609375,-2.01416015625,14.2822265625,[0. 0. 0. 0. 0. 0. 0. 0. 0.],0.00830078125,0.009765625,1.02734375,[0. 0. 0. 0. 0. 0. 0. 0. 0.]
7.680302381515503,0.00011038668890250847,-0.002641645958647132,-0.9939166307449341,-0.11010312288999557,[0. 0. 0. 0. 0. 0. 0. 0. 0.],0.48828125,-2.8076171875,8.4228515625,[0. 0. 0. 0. 0. 0. 0. 0. 0.],-0.0439453125,0.02294921875,0.9521484375,[0. 0. 0. 0. 0. 0. 0. 0. 0.]
7.700244665145874,0.0017357992473989725,-0.0038352729752659798,-0.9940420389175415,-0.10891658067703247,[0. 0. 0. 0. 0. 0. 0. 0. 0.],-0.79345703125,-1.3427734375,5.7373046875,[0. 0. 0. 0. 0. 0. 0. 0. 0.],-0.03466796875,0.0361328125,0.99462890625,[0. 0. 0. 0. 0. 0. 0. 0. 0.]
7.720522165298462,0.0022815573029220104,-0.004175713285803795,-0.9941494464874268,-0.10790872573852539,[0. 0. 0. 0. 0. 0. 0. 0. 0.],-7.4462890625,-5.2490234375,6.591796875,[0. 0. 0. 0. 0. 0. 0. 0. 0.],-0.046875,0.04052734375,0.97265625,[0. 0. 0. 0. 0. 0. 0. 0. 0.]
7.740347385406494,0.0018664496019482613,-0.004829406272619963,-0.9942736625671387,-0.1067383661866188,[0. 0. 0. 0. 0. 0. 0. 0. 0.],0.732421875,4.69970703125,6.53076171875,[0. 0. 0. 0. 0. 0. 0. 0. 0.],0.04150390625,0.01904296875,1.1474609375,[0. 0. 0. 0. 0. 0. 0. 0. 0.]
7.760343790054321,0.0008399741491302848,-0.005742795765399933,-0.9943890571594238,-0.10562528669834137,[0. 0. 0. 0. 0. 0. 0. 0. 0.],3.35693359375,0.06103515625,6.53076171875,[0. 0. 0. 0. 0. 0. 0. 0. 0.],0.009765625,0.0244140625,1.08349609375,[0. 0. 0. 0. 0. 0. 0. 0. 0.]
7.775655031204224,0.0011441796086728573,-0.006954025477170944,-0.9945281147956848,-0.10423191636800766,[0. 0. 0. 0. 0. 0. 0. 0. 0.],2.25830078125,-5.9814453125,8.6669921875,[0. 0. 0. 0. 0. 0. 0. 0. 0.],-0.06787109375,0.0361328125,0.91845703125,[0. 0. 0. 0. 0. 0. 0. 0. 0.]
7.800582408905029,0.0008638006402179599,-0.008320339024066925,-0.9946677088737488,-0.10279212146997452,[0. 0. 0. 0. 0. 0. 0. 0. 0.],2.50244140625,-1.46484375,7.4462890625,[0. 0. 0. 0. 0. 0. 0. 0. 0.],0.0244140625,0.02783203125,0.9365234375,[0. 0. 0. 0. 0. 0. 0. 0. 0.]
7.82095193862915,-0.0009027945925481617,-0.009359374642372131,-0.9947988986968994,-0.10142325609922409,[0. 0. 0. 0. 0. 0. 0. 0. 0.],4.638671875,-10.1318359375,9.09423828125,[0. 0. 0. 0. 0. 0. 0. 0. 0.],-0.01171875,0.02197265625,1.03515625,[0. 0. 0. 0. 0. 0. 0. 0. 0.]
7.840538501739502,-0.0016603401163592935,-0.010752405039966106,-0.9950178265571594,-0.09910264611244202,[0. 0. 0. 0. 0. 0. 0. 0. 0.],0.91552734375,-3.23486328125,16.845703125,[0. 0. 0. 0. 0. 0. 0. 0. 0.],0.02978515625,0.05078125,1.03759765625,[0. 0. 0. 0. 0. 0. 0. 0. 0.]
7.8608009815216064,-0.003979529719799757,-0.011238669976592064,-0.9953988194465637,-0.09507425129413605,[0. 0. 0. 0. 0. 0. 0. 0. 0.],0.0,-2.74658203125,26.79443359375,[0. 0. 0. 0. 0. 0. 0. 0. 0.],0.0888671875,0.0400390625,1.00927734375,[0. 0. 0. 0. 0. 0. 0. 0. 0.]
7.880295038223267,-0.0066454713232815266,-0.011531037278473377,-0.9959033131599426,-0.08944070339202881,[0. 0. 0. 0. 0. 0. 0. 0. 0.],1.0986328125,-5.67626953125,35.5224609375,[0. 0. 0. 0. 0. 0. 0. 0. 0.],0.0673828125,0.033203125,0.9677734375,[0. 0. 0. 0. 0. 0. 0. 0. 0.]
7.900299072265625,-0.009489624761044979,-0.011853542178869247,-0.9964560270309448,-0.0827341228723526,[0. 0. 0. 0. 0. 0. 0. 0. 0.],-2.25830078125,-4.08935546875,40.1611328125,[0. 0. 0. 0. 0. 0. 0. 0. 0.],0.06689453125,0.05126953125,0.91943359375,[0. 0. 0. 0. 0. 0. 0. 0. 0.]
7.92046594619751,-0.010428693145513535,-0.01185033842921257,-0.9970243573188782,-0.07545484602451324,[0. 0. 0. 0. 0. 0. 0. 0. 0.],-0.3662109375,7.14111328125,42.6025390625,[0. 0. 0. 0. 0. 0. 0. 0. 0.],0.17626953125,0.0634765625,1.10986328125,[0. 0. 0. 0. 0. 0. 0. 0. 0.]
7.940392971038818,-0.012057517655193806,-0.012769093737006187,-0.9975612759590149,-0.06755051016807556,[0. 0. 0. 0. 0. 0. 0. 0. 0.],2.5634765625,-4.45556640625,46.5087890625,[0. 0. 0. 0. 0. 0. 0. 0. 0.],0.04150390625,0.05322265625,1.09033203125,[0. 0. 0. 0. 0. 0. 0. 0. 0.]
7.960523366928101,-0.013265511952340603,-0.013937335461378098,-0.99803626537323,-0.05961032211780548,[0. 0. 0. 0. 0. 0. 0. 0. 0.],-2.8076171875,-3.96728515625,45.22705078125,[0. 0. 0. 0. 0. 0. 0. 0. 0.],0.0361328125,0.04931640625,0.90576171875,[0. 0. 0. 0. 0. 0. 0. 0. 0.]
7.980243444442749,-0.015161707997322083,-0.013601611368358135,-0.9984537363052368,-0.05172283947467804,[0. 0. 0. 0. 0. 0. 0. 0. 0.],-1.40380859375,-0.3662109375,45.2880859375,[0. 0. 0. 0. 0. 0. 0. 0. 0.],0.0458984375,0.021484375,0.95751953125,[0. 0. 0. 0. 0. 0. 0. 0. 0.]
8.003747463226318,-0.014025137759745121,-0.012675860896706581,-0.9989672303199768,-0.04131794348359108,[0. 0. 0. 0. 0. 0. 0. 0. 0.],-1.28173828125,-0.67138671875,49.560546875,[0. 0. 0. 0. 0. 0. 0. 0. 0.],-0.013671875,0.02880859375,0.97216796875,[0. 0. 0. 0. 0. 0. 0. 0. 0.]
8.020555257797241,-0.012974131852388382,-0.012488228268921375,-0.9992363452911377,-0.03467870503664017,[0. 0. 0. 0. 0. 0. 0. 0. 0.],3.96728515625,-0.3662109375,51.1474609375,[0. 0. 0. 0. 0. 0. 0. 0. 0.],-0.00439453125,0.00927734375,1.009765625,[0. 0. 0. 0. 0. 0. 0. 0. 0.]
8.040884494781494,-0.012616573832929134,-0.012157101184129715,-0.9995129108428955,-0.02582845650613308,[0. 0. 0. 0. 0. 0. 0. 0. 0.],-4.33349609375,-8.1787109375,51.20849609375,[0. 0. 0. 0. 0. 0. 0. 0. 0.],-0.0244140625,0.0400390625,0.9716796875,[0. 0. 0. 0. 0. 0. 0. 0. 0.]
8.061542272567749,-0.013759528286755085,-0.01285582222044468,-0.9997115731239319,-0.014907280914485455,[0. 0. 0. 0. 0. 0. 0. 0. 0.],-0.18310546875,1.77001953125,49.37744140625,[0. 0. 0. 0. 0. 0. 0. 0. 0.],0.10791015625,0.08349609375,1.09326171875,[0. 0. 0. 0. 0. 0. 0. 0. 0.]
8.080807209014893,-0.014370310120284557,-0.013593824580311775,-0.9997655749320984,-0.008806362748146057,[0. 0. 0. 0. 0. 0. 0. 0. 0.],-2.50244140625,0.8544921875,44.7998046875,[0. 0. 0. 0. 0. 0. 0. 0. 0.],0.06298828125,0.109375,1.0380859375,[0. 0. 0. 0. 0. 0. 0. 0. 0.]
8.100982427597046,-0.014199815690517426,-0.014396793209016323,-0.9997937083244324,-0.0019241917179897428,[0. 0. 0. 0. 0. 0. 0. 0. 0.],-3.60107421875,4.69970703125,36.2548828125,[0. 0. 0. 0. 0. 0. 0. 0. 0.],0.03076171875,0.12158203125,0.9873046875,[0. 0. 0. 0. 0. 0. 0. 0. 0.]
8.120676517486572,-0.012878328561782837,-0.01618197187781334,-0.9997811317443848,0.0031605048570781946,[0. 0. 0. 0. 0. 0. 0. 0. 0.],5.67626953125,11.474609375,25.5126953125,[0. 0. 0. 0. 0. 0. 0. 0. 0.],0.04541015625,0.083984375,1.0625,[0. 0. 0. 0. 0. 0. 0. 0. 0.]
8.140908479690552,-0.011155041866004467,-0.01796598546206951,-0.9997550249099731,0.006544163916260004,[0. 0. 0. 0. 0. 0. 0. 0. 0.],2.13623046875,-1.3427734375,15.625,[0. 0. 0. 0. 0. 0. 0. 0. 0.],-0.08203125,0.11328125,0.947265625,[0. 0. 0. 0. 0. 0. 0. 0. 0.]
8.167577743530273,-0.009579021483659744,-0.019891850650310516,-0.9997184872627258,0.008687914349138737,[0. 0. 0. 0. 0. 0. 0. 0. 0.],0.1220703125,-2.3193359375,4.33349609375,[0. 0. 0. 0. 0. 0. 0. 0. 0.],-0.04248046875,0.134765625,1.03271484375,[0. 0. 0. 0. 0. 0. 0. 0. 0.]
8.175375699996948,-0.009272103197872639,-0.02082422561943531,-0.9996992945671082,0.009038383141160011,[0. 0. 0. 0. 0. 0. 0. 0. 0.],3.2958984375,-2.50244140625,4.21142578125,[0. 0. 0. 0. 0. 0. 0. 0. 0.],-0.03466796875,0.115234375,1.10791015625,[0. 0. 0. 0. 0. 0. 0. 0. 0.]
8.201135635375977,-0.008873702958226204,-0.023097803816199303,-0.9996486902236938,0.00950392335653305,[0. 0. 0. 0. 0. 0. 0. 0. 0.],5.43212890625,-2.74658203125,2.38037109375,[0. 0. 0. 0. 0. 0. 0. 0. 0.],-0.01513671875,0.12255859375,1.05322265625,[0. 0. 0. 0. 0. 0. 0. 0. 0.]
8.220598697662354,-0.0082945441827178,-0.024978715926408768,-0.9996023178100586,0.010127104818820953,[0. 0. 0. 0. 0. 0. 0. 0. 0.],-0.18310546875,1.40380859375,4.33349609375,[0. 0. 0. 0. 0. 0. 0. 0. 0.],-0.0087890625,0.142578125,0.95751953125,[0. 0. 0. 0. 0. 0. 0. 0. 0.]
8.240221977233887,-0.007378460373729467,-0.026737505570054054,-0.9995542764663696,0.011048241518437862,[0. 0. 0. 0. 0. 0. 0. 0. 0.],2.01416015625,1.46484375,6.53076171875,[0. 0. 0. 0. 0. 0. 0. 0. 0.],-0.01171875,0.11767578125,1.00537109375,[0. 0. 0. 0. 0. 0. 0. 0. 0.]
8.260715961456299,-0.006339128129184246,-0.02850644290447235,-0.9994997382164001,0.012146473862230778,[0. 0. 0. 0. 0. 0. 0. 0. 0.],1.64794921875,-0.732421875,6.591796875,[0. 0. 0. 0. 0. 0. 0. 0. 0.],-0.03173828125,0.1083984375,0.986328125,[0. 0. 0. 0. 0. 0. 0. 0. 0.]
8.280480861663818,-0.00568395433947444,-0.029944701120257378,-0.999448299407959,0.013194526545703411,[0. 0. 0. 0. 0. 0. 0. 0. 0.],-0.3662109375,-6.16455078125,6.28662109375,[0. 0. 0. 0. 0. 0. 0. 0. 0.],-0.05126953125,0.1162109375,0.97119140625,[0. 0. 0. 0. 0. 0. 0. 0. 0.]
8.300350904464722,-0.004884849302470684,-0.03100132942199707,-0.9994082450866699,0.014082315377891064,[0. 0. 0. 0. 0. 0. 0. 0. 0.],-1.89208984375,-0.732421875,5.37109375,[0. 0. 0. 0. 0. 0. 0. 0. 0.],-0.01904296875,0.10986328125,0.99853515625,[0. 0. 0. 0. 0. 0. 0. 0. 0.]
8.320546627044678,-0.004530638922005892,-0.03264912590384483,-0.9993483424186707,0.014713862910866737,[0. 0. 0. 0. 0. 0. 0. 0. 0.],1.77001953125,4.8828125,2.74658203125,[0. 0. 0. 0. 0. 0. 0. 0. 0.],0.02880859375,0.09375,1.0654296875,[0. 0. 0. 0. 0. 0. 0. 0. 0.]
8.340279340744019,-0.00448210071772337,-0.03442249447107315,-0.9992824196815491,0.015156188048422337,[0. 0. 0. 0. 0. 0. 0. 0. 0.],2.197265625,4.08935546875,2.197265625,[0. 0. 0. 0. 0. 0. 0. 0. 0.],0.02001953125,0.10791015625,1.04296875,[0. 0. 0. 0. 0. 0. 0. 0. 0.]
8.360576152801514,-0.0034526705276221037,-0.0359468050301075,-0.999225378036499,0.015637122094631195,[0. 0. 0. 0. 0. 0. 0. 0. 0.],-0.732421875,2.99072265625,2.685546875,[0. 0. 0. 0. 0. 0. 0. 0. 0.],-0.009765625,0.1103515625,0.9541015625,[0. 0. 0. 0. 0. 0. 0. 0. 0.]
8.380610227584839,-0.002124822000041604,-0.03687359392642975,-0.9991890788078308,0.01603206805884838,[0. 0. 0. 0. 0. 0. 0. 0. 0.],-2.13623046875,-0.18310546875,2.197265625,[0. 0. 0. 0. 0. 0. 0. 0. 0.],-0.02099609375,0.0859375,0.951171875,[0. 0. 0. 0. 0. 0. 0. 0. 0.]
8.400606632232666,-0.0009986594086512923,-0.03799186646938324,-0.999144971370697,0.016277004033327103,[0. 0. 0. 0. 0. 0. 0. 0. 0.],-2.5634765625,1.89208984375,1.03759765625,[0. 0. 0. 0. 0. 0. 0. 0. 0.],0.0029296875,0.0888671875,0.982421875,[0. 0. 0. 0. 0. 0. 0. 0. 0.]
8.420792818069458,0.0005644906195811927,-0.03868965059518814,-0.9991198182106018,0.01620286889374256,[0. 0. 0. 0. 0. 0. 0. 0. 0.],0.54931640625,1.03759765625,-0.1220703125,[0. 0. 0. 0. 0. 0. 0. 0. 0.],-0.0166015625,0.0830078125,1.0625,[0. 0. 0. 0. 0. 0. 0. 0. 0.]
8.44028353691101,0.0018999611493200064,-0.03912109509110451,-0.9991052150726318,0.01596054621040821,[0. 0. 0. 0. 0. 0. 0. 0. 0.],1.77001953125,-2.86865234375,-0.3662109375,[0. 0. 0. 0. 0. 0. 0. 0. 0.],-0.05126953125,0.09375,1.0751953125,[0. 0. 0. 0. 0. 0. 0. 0. 0.]
8.455940008163452,0.003143688663840294,-0.03936326503753662,-0.9990929961204529,0.015933629125356674,[0. 0. 0. 0. 0. 0. 0. 0. 0.],-3.11279296875,-1.28173828125,0.42724609375,[0. 0. 0. 0. 0. 0. 0. 0. 0.],-0.04931640625,0.0986328125,0.9716796875,[0. 0. 0. 0. 0. 0. 0. 0. 0.]
8.480289220809937,0.004425327759236097,-0.0391266867518425,-0.999095618724823,0.016046252101659775,[0. 0. 0. 0. 0. 0. 0. 0. 0.],-2.5634765625,-1.77001953125,1.5869140625,[0. 0. 0. 0. 0. 0. 0. 0. 0.],-0.05322265625,0.06640625,0.96044921875,[0. 0. 0. 0. 0. 0. 0. 0. 0.]
8.501542091369629,0.00536087341606617,-0.03789598494768143,-0.9991325736045837,0.016413874924182892,[0. 0. 0. 0. 0. 0. 0. 0. 0.],2.197265625,-1.03759765625,2.685546875,[0. 0. 0. 0. 0. 0. 0. 0. 0.],-0.0419921875,0.0166015625,1.02685546875,[0. 0. 0. 0. 0. 0. 0. 0. 0.]
8.517417430877686,0.00535177905112505,-0.036961473524570465,-0.9991576075553894,0.01700923591852188,[0. 0. 0. 0. 0. 0. 0. 0. 0.],3.96728515625,-6.53076171875,4.39453125,[0. 0. 0. 0. 0. 0. 0. 0. 0.],-0.04296875,0.0146484375,1.0009765625,[0. 0. 0. 0. 0. 0. 0. 0. 0.]
8.538269281387329,0.005293288268148899,-0.03547361493110657,-0.9991868734359741,0.01842118427157402,[0. 0. 0. 0. 0. 0. 0. 0. 0.],0.42724609375,-2.86865234375,9.6435546875,[0. 0. 0. 0. 0. 0. 0. 0. 0.],-0.01513671875,0.021484375,0.96826171875,[0. 0. 0. 0. 0. 0. 0. 0. 0.]
8.55557918548584,0.004267002921551466,-0.03338966891169548,-0.9992201328277588,0.020646294578909874,[0. 0. 0. 0. 0. 0. 0. 0. 0.],-3.662109375,-3.23486328125,13.0615234375,[0. 0. 0. 0. 0. 0. 0. 0. 0.],0.005859375,0.03857421875,1.02490234375,[0. 0. 0. 0. 0. 0. 0. 0. 0.]
8.581022500991821,0.0028416740242391825,-0.03171169012784958,-0.999221920967102,0.02327960915863514,[0. 0. 0. 0. 0. 0. 0. 0. 0.],-3.11279296875,-1.64794921875,15.625,[0. 0. 0. 0. 0. 0. 0. 0. 0.],0.0166015625,0.03515625,1.0830078125,[0. 0. 0. 0. 0. 0. 0. 0. 0.]
8.597675561904907,0.0015298387734219432,-0.029981615021824837,-0.9991773366928101,0.02726941742002964,[0. 0. 0. 0. 0. 0. 0. 0. 0.],2.3193359375,-1.220703125,20.69091796875,[0. 0. 0. 0. 0. 0. 0. 0. 0.],0.009765625,0.01123046875,0.9716796875,[0. 0. 0. 0. 0. 0. 0. 0. 0.]
8.62031078338623,0.0009694670443423092,-0.028546864166855812,-0.999140739440918,0.030033716931939125,[0. 0. 0. 0. 0. 0. 0. 0. 0.],-0.732421875,-4.69970703125,23.0712890625,[0. 0. 0. 0. 0. 0. 0. 0. 0.],-0.00634765625,0.03759765625,0.919921875,[0. 0. 0. 0. 0. 0. 0. 0. 0.]
8.64030408859253,0.00040546184754930437,-0.026872115209698677,-0.9990628957748413,0.03392999991774559,[0. 0. 0. 0. 0. 0. 0. 0. 0.],-3.35693359375,1.953125,21.484375,[0. 0. 0. 0. 0. 0. 0. 0. 0.],0.04345703125,0.0390625,1.02392578125,[0. 0. 0. 0. 0. 0. 0. 0. 0.]
8.6608726978302,-0.000746720761526376,-0.025946112349629402,-0.9989519119262695,0.037702035158872604,[0. 0. 0. 0. 0. 0. 0. 0. 0.],2.01416015625,0.1220703125,20.81298828125,[0. 0. 0. 0. 0. 0. 0. 0. 0.],0.0458984375,0.00244140625,1.1025390625,[0. 0. 0. 0. 0. 0. 0. 0. 0.]
8.681640863418579,-0.001367721939459443,-0.024982906877994537,-0.9988324642181396,0.04132494330406189,[0. 0. 0. 0. 0. 0. 0. 0. 0.],1.708984375,-1.3427734375,20.263671875,[0. 0. 0. 0. 0. 0. 0. 0. 0.],0.00146484375,0.013671875,0.97119140625,[0. 0. 0. 0. 0. 0. 0. 0. 0.]
8.696726560592651,-0.0009009687346406281,-0.02343756891787052,-0.9987162351608276,0.04489884898066521,[0. 0. 0. 0. 0. 0. 0. 0. 0.],0.42724609375,-0.6103515625,20.93505859375,[0. 0. 0. 0. 0. 0. 0. 0. 0.],-0.01416015625,0.0087890625,0.91796875,[0. 0. 0. 0. 0. 0. 0. 0. 0.]
8.720051288604736,-0.0005454565398395061,-0.021966125816106796,-0.9985827803611755,0.04847449064254761,[0. 0. 0. 0. 0. 0. 0. 0. 0.],1.15966796875,-1.89208984375,20.6298828125,[0. 0. 0. 0. 0. 0. 0. 0. 0.],-0.0146484375,-0.00048828125,0.9892578125,[0. 0. 0. 0. 0. 0. 0. 0. 0.]
8.74119520187378,-0.0007324088946916163,-0.020473379641771317,-0.9984403252601624,0.05193713307380676,[0. 0. 0. 0. 0. 0. 0. 0. 0.],0.91552734375,-1.5869140625,19.287109375,[0. 0. 0. 0. 0. 0. 0. 0. 0.],0.01220703125,0.0166015625,1.04736328125,[0. 0. 0. 0. 0. 0. 0. 0. 0.]
8.760788440704346,-0.0021245069801807404,-0.019100436940789223,-0.9982878565788269,0.05524715781211853,[0. 0. 0. 0. 0. 0. 0. 0. 0.],-0.67138671875,-1.89208984375,18.6767578125,[0. 0. 0. 0. 0. 0. 0. 0. 0.],0.01123046875,0.02392578125,1.03173828125,[0. 0. 0. 0. 0. 0. 0. 0. 0.]
8.780430316925049,-0.0014991938369348645,-0.017960200086236,-0.9981145858764648,0.05867404863238335,[0. 0. 0. 0. 0. 0. 0. 0. 0.],0.0,-0.06103515625,19.8974609375,[0. 0. 0. 0. 0. 0. 0. 0. 0.],-0.009765625,0.0322265625,1.02392578125,[0. 0. 0. 0. 0. 0. 0. 0. 0.]
8.800334453582764,-0.00022954909945838153,-0.01818785071372986,-0.9979129433631897,0.061958447098731995,[0. 0. 0. 0. 0. 0. 0. 0. 0.],-0.30517578125,-3.96728515625,18.85986328125,[0. 0. 0. 0. 0. 0. 0. 0. 0.],-0.02294921875,0.048828125,1.001953125,[0. 0. 0. 0. 0. 0. 0. 0. 0.]
8.82060718536377,0.0005127825425006449,-0.018325921148061752,-0.9976953864097595,0.06532983481884003,[0. 0. 0. 0. 0. 0. 0. 0. 0.],1.03759765625,-6.9580078125,20.93505859375,[0. 0. 0. 0. 0. 0. 0. 0. 0.],-0.0185546875,0.0322265625,1.00634765625,[0. 0. 0. 0. 0. 0. 0. 0. 0.]
8.844276428222656,0.0007504791137762368,-0.018264077603816986,-0.9973528385162354,0.07037957012653351,[0. 0. 0. 0. 0. 0. 0. 0. 0.],1.3427734375,-10.43701171875,25.81787109375,[0. 0. 0. 0. 0. 0. 0. 0. 0.],-0.015625,0.037109375,0.9873046875,[0. 0. 0. 0. 0. 0. 0. 0. 0.]
8.860093116760254,0.00025577182532288134,-0.018956225365400314,-0.9970982670783997,0.07372815161943436,[0. 0. 0. 0. 0. 0. 0. 0. 0.],-3.173828125,-10.986328125,26.85546875,[0. 0. 0. 0. 0. 0. 0. 0. 0.],-0.005859375,0.04931640625,0.95068359375,[0. 0. 0. 0. 0. 0. 0. 0. 0.]
8.880647420883179,-0.0020557017996907234,-0.019319457933306694,-0.9967137575149536,0.07863938808441162,[0. 0. 0. 0. 0. 0. 0. 0. 0.],-3.2958984375,-2.685546875,29.11376953125,[0. 0. 0. 0. 0. 0. 0. 0. 0.],0.03759765625,0.041015625,1.01220703125,[0. 0. 0. 0. 0. 0. 0. 0. 0.]
8.903937339782715,-0.004729323089122772,-0.01921701617538929,-0.9961824417114258,0.08502305299043655,[0. 0. 0. 0. 0. 0. 0. 0. 0.],2.01416015625,-2.38037109375,28.86962890625,[0. 0. 0. 0. 0. 0. 0. 0. 0.],0.05419921875,0.0390625,1.08349609375,[0. 0. 0. 0. 0. 0. 0. 0. 0.]
8.920530319213867,-0.006149434484541416,-0.01964951492846012,-0.9958314299583435,0.08885898441076279,[0. 0. 0. 0. 0. 0. 0. 0. 0.],-0.18310546875,-1.77001953125,29.296875,[0. 0. 0. 0. 0. 0. 0. 0. 0.],0.029296875,0.04345703125,0.9970703125,[0. 0. 0. 0. 0. 0. 0. 0. 0.]
8.941282033920288,-0.006145060062408447,-0.020190441980957985,-0.995356559753418,0.09391509741544724,[0. 0. 0. 0. 0. 0. 0. 0. 0.],-3.662109375,-3.84521484375,29.96826171875,[0. 0. 0. 0. 0. 0. 0. 0. 0.],0.00341796875,0.033203125,0.912109375,[0. 0. 0. 0. 0. 0. 0. 0. 0.]
8.96063494682312,-0.005765032954514027,-0.017963947728276253,-0.9948909282684326,0.0991777628660202,[0. 0. 0. 0. 0. 0. 0. 0. 0.],-4.45556640625,3.41796875,31.55517578125,[0. 0. 0. 0. 0. 0. 0. 0. 0.],0.0126953125,0.005859375,0.927734375,[0. 0. 0. 0. 0. 0. 0. 0. 0.]
8.980323553085327,-0.005723575595766306,-0.016113270074129105,-0.9943721890449524,0.10455431044101715,[0. 0. 0. 0. 0. 0. 0. 0. 0.],-2.86865234375,-2.38037109375,31.494140625,[0. 0. 0. 0. 0. 0. 0. 0. 0.],-0.01318359375,0.0078125,0.99267578125,[0. 0. 0. 0. 0. 0. 0. 0. 0.]
9.002239227294922,-0.005105291958898306,-0.014485063962638378,-0.9938223958015442,0.10991489887237549,[0. 0. 0. 0. 0. 0. 0. 0. 0.],-1.64794921875,-0.48828125,29.78515625,[0. 0. 0. 0. 0. 0. 0. 0. 0.],0.01806640625,0.01708984375,1.0341796875,[0. 0. 0. 0. 0. 0. 0. 0. 0.]
9.022054672241211,-0.006349335424602032,-0.012629630975425243,-0.9932281970977783,0.11531659960746765,[0. 0. 0. 0. 0. 0. 0. 0. 0.],-1.77001953125,-2.3193359375,31.18896484375,[0. 0. 0. 0. 0. 0. 0. 0. 0.],0.02001953125,0.00634765625,0.99560546875,[0. 0. 0. 0. 0. 0. 0. 0. 0.]
9.036112308502197,-0.007269264664500952,-0.011970419436693192,-0.9925827383995056,0.12076176702976227,[0. 0. 0. 0. 0. 0. 0. 0. 0.],-2.9296875,0.06103515625,32.16552734375,[0. 0. 0. 0. 0. 0. 0. 0. 0.],0.0283203125,0.015625,0.97021484375,[0. 0. 0. 0. 0. 0. 0. 0. 0.]
9.060282468795776,-0.008958203718066216,-0.009718257933855057,-0.9919350743293762,0.12605684995651245,[0. 0. 0. 0. 0. 0. 0. 0. 0.],-8.4228515625,-3.96728515625,29.72412109375,[0. 0. 0. 0. 0. 0. 0. 0. 0.],0.06787109375,-0.0888671875,0.95166015625,[0. 0. 0. 0. 0. 0. 0. 0. 0.]
9.080710411071777,-0.010187949053943157,-0.007184723392128944,-0.991228461265564,0.13157013058662415,[0. 0. 0. 0. 0. 0. 0. 0. 0.],-3.0517578125,-2.8076171875,34.60693359375,[0. 0. 0. 0. 0. 0. 0. 0. 0.],-0.0322265625,-0.19580078125,1.0810546875,[0. 0. 0. 0. 0. 0. 0. 0. 0.]
9.100292682647705,-0.010209094732999802,-0.006499455776065588,-0.9902709722518921,0.13862524926662445,[0. 0. 0. 0. 0. 0. 0. 0. 0.],7.568359375,-8.60595703125,43.9453125,[0. 0. 0. 0. 0. 0. 0. 0. 0.],-0.1552734375,-0.12109375,1.15185546875,[0. 0. 0. 0. 0. 0. 0. 0. 0.]
9.12055778503418,-0.010076659731566906,-0.005525354295969009,-0.9891030788421631,0.146776020526886,[0. 0. 0. 0. 0. 0. 0. 0. 0.],-0.91552734375,-8.544921875,47.9736328125,[0. 0. 0. 0. 0. 0. 0. 0. 0.],-0.10302734375,-0.12548828125,0.9697265625,[0. 0. 0. 0. 0. 0. 0. 0. 0.]
9.140578269958496,-0.012273440137505531,-0.0043236976489424706,-0.9877539873123169,0.1554756909608841,[0. 0. 0. 0. 0. 0. 0. 0. 0.],-2.86865234375,-13.12255859375,52.3681640625,[0. 0. 0. 0. 0. 0. 0. 0. 0.],-0.00732421875,-0.0810546875,0.9287109375,[0. 0. 0. 0. 0. 0. 0. 0. 0.]
9.164426565170288,-0.013765079900622368,-0.0021055249962955713,-0.98630690574646,0.16433146595954895,[0. 0. 0. 0. 0. 0. 0. 0. 0.],-5.0048828125,3.90625,49.98779296875,[0. 0. 0. 0. 0. 0. 0. 0. 0.],0.1962890625,-0.18994140625,0.97216796875,[0. 0. 0. 0. 0. 0. 0. 0. 0.]
9.1802396774292,-0.016269775107502937,-0.002261654008179903,-0.984851062297821,0.17262262105941772,[0. 0. 0. 0. 0. 0. 0. 0. 0.],10.07080078125,-9.765625,47.119140625,[0. 0. 0. 0. 0. 0. 0. 0. 0.],0.19287109375,-0.15283203125,1.10009765625,[0. 0. 0. 0. 0. 0. 0. 0. 0.]
9.201204299926758,-0.01812647469341755,-0.002531354082748294,-0.9834020733833313,0.18051443994045258,[0. 0. 0. 0. 0. 0. 0. 0. 0.],8.9111328125,-9.33837890625,45.47119140625,[0. 0. 0. 0. 0. 0. 0. 0. 0.],0.123046875,-0.11474609375,1.00439453125,[0. 0. 0. 0. 0. 0. 0. 0. 0.]
9.21562647819519,-0.018988095223903656,-0.0016411927063018084,-0.9817915558815002,0.1890030801296234,[0. 0. 0. 0. 0. 0. 0. 0. 0.],2.3193359375,-0.6103515625,50.59814453125,[0. 0. 0. 0. 0. 0. 0. 0. 0.],0.015625,-0.11376953125,0.9853515625,[0. 0. 0. 0. 0. 0. 0. 0. 0.]
9.236876487731934,-0.019206013530492783,0.0004022077191621065,-0.9798809289932251,0.19865676760673523,[0. 0. 0. 0. 0. 0. 0. 0. 0.],-2.44140625,-7.26318359375,58.2275390625,[0. 0. 0. 0. 0. 0. 0. 0. 0.],-0.060546875,-0.2197265625,0.90771484375,[0. 0. 0. 0. 0. 0. 0. 0. 0.]
9.260353565216064,-0.019594790413975716,0.0030998385045677423,-0.9776042699813843,0.20951440930366516,[0. 0. 0. 0. 0. 0. 0. 0. 0.],-5.43212890625,4.39453125,64.453125,[0. 0. 0. 0. 0. 0. 0. 0. 0.],0.04150390625,-0.291015625,0.97412109375,[0. 0. 0. 0. 0. 0. 0. 0. 0.]
9.280359268188477,-0.021391233429312706,0.004399285651743412,-0.9750238656997681,0.2210240364074707,[0. 0. 0. 0. 0. 0. 0. 0. 0.],-0.732421875,-8.6669921875,68.115234375,[0. 0. 0. 0. 0. 0. 0. 0. 0.],0.05126953125,-0.31201171875,0.9833984375,[0. 0. 0. 0. 0. 0. 0. 0. 0.]
9.30047059059143,-0.022765064612030983,0.006137860473245382,-0.9722320437431335,0.23282837867736816,[0. 0. 0. 0. 0. 0. 0. 0. 0.],-1.708984375,0.6103515625,68.84765625,[0. 0. 0. 0. 0. 0. 0. 0. 0.],0.2255859375,-0.32373046875,0.970703125,[0. 0. 0. 0. 0. 0. 0. 0. 0.]
9.321200132369995,-0.024779006838798523,0.007741689216345549,-0.9692196249961853,0.24482521414756775,[0. 0. 0. 0. 0. 0. 0. 0. 0.],-2.3193359375,-6.8359375,72.8759765625,[0. 0. 0. 0. 0. 0. 0. 0. 0.],0.177734375,-0.3212890625,0.9921875,[0. 0. 0. 0. 0. 0. 0. 0. 0.]
9.340172052383423,-0.02813626267015934,0.008539773523807526,-0.9659688472747803,0.2569820284843445,[0. 0. 0. 0. 0. 0. 0. 0. 0.],6.7138671875,-20.81298828125,74.951171875,[0. 0. 0. 0. 0. 0. 0. 0. 0.],0.1611328125,-0.359375,1.048828125,[0. 0. 0. 0. 0. 0. 0. 0. 0.]
9.360424041748047,-0.030576633289456367,0.00884518213570118,-0.9624273777008057,0.26966747641563416,[0. 0. 0. 0. 0. 0. 0. 0. 0.],3.662109375,-5.43212890625,79.4677734375,[0. 0. 0. 0. 0. 0. 0. 0. 0.],0.2109375,-0.314453125,0.98046875,[0. 0. 0. 0. 0. 0. 0. 0. 0.]
9.380441427230835,-0.03182266280055046,0.010593795217573643,-0.9583696126937866,0.28355416655540466,[0. 0. 0. 0. 0. 0. 0. 0. 0.],-5.0048828125,1.5869140625,86.3037109375,[0. 0. 0. 0. 0. 0. 0. 0. 0.],0.1611328125,-0.23291015625,0.82958984375,[0. 0. 0. 0. 0. 0. 0. 0. 0.]
9.400690793991089,-0.03179306909441948,0.014541273936629295,-0.9537608027458191,0.2985268533229828,[0. 0. 0. 0. 0. 0. 0. 0. 0.],-17.15087890625,19.775390625,93.20068359375,[0. 0. 0. 0. 0. 0. 0. 0. 0.],0.21923828125,-0.23486328125,0.9267578125,[0. 0. 0. 0. 0. 0. 0. 0. 0.]
9.420413732528687,-0.03250091150403023,0.019876055419445038,-0.9485986828804016,0.3141801953315735,[0. 0. 0. 0. 0. 0. 0. 0. 0.],-12.51220703125,-10.19287109375,96.37451171875,[0. 0. 0. 0. 0. 0. 0. 0. 0.],0.15185546875,-0.42626953125,1.220703125,[0. 0. 0. 0. 0. 0. 0. 0. 0.]
9.441082239151001,-0.035811711102724075,0.020220039412379265,-0.943108856678009,0.32993075251579285,[0. 0. 0. 0. 0. 0. 0. 0. 0.],3.84521484375,-16.66259765625,94.17724609375,[0. 0. 0. 0. 0. 0. 0. 0. 0.],0.2021484375,-0.4833984375,1.1904296875,[0. 0. 0. 0. 0. 0. 0. 0. 0.]
9.460498571395874,-0.03841913491487503,0.019427554681897163,-0.9371151328086853,0.34635522961616516,[0. 0. 0. 0. 0. 0. 0. 0. 0.],7.75146484375,-15.869140625,100.4638671875,[0. 0. 0. 0. 0. 0. 0. 0. 0.],0.19580078125,-0.310546875,0.8564453125,[0. 0. 0. 0. 0. 0. 0. 0. 0.]
9.480982780456543,-0.03920578956604004,0.01940431445837021,-0.930222749710083,0.3643791675567627,[0. 0. 0. 0. 0. 0. 0. 0. 0.],7.01904296875,-1.89208984375,112.36572265625,[0. 0. 0. 0. 0. 0. 0. 0. 0.],0.21728515625,-0.28076171875,0.8271484375,[0. 0. 0. 0. 0. 0. 0. 0. 0.]
9.500491380691528,-0.04185262322425842,0.02051015943288803,-0.9222492575645447,0.3837762176990509,[0. 0. 0. 0. 0. 0. 0. 0. 0.],2.50244140625,-22.216796875,122.49755859375,[0. 0. 0. 0. 0. 0. 0. 0. 0.],0.109375,-0.28515625,0.8134765625,[0. 0. 0. 0. 0. 0. 0. 0. 0.]
9.520908117294312,-0.04616852104663849,0.022730981931090355,-0.9129884243011475,0.4047270119190216,[0. 0. 0. 0. 0. 0. 0. 0. 0.],-16.7236328125,-7.99560546875,135.8642578125,[0. 0. 0. 0. 0. 0. 0. 0. 0.],0.2587890625,-0.2490234375,0.83984375,[0. 0. 0. 0. 0. 0. 0. 0. 0.]
9.54025936126709,-0.048720840364694595,0.026111170649528503,-0.9027718305587769,0.42655304074287415,[0. 0. 0. 0. 0. 0. 0. 0. 0.],-8.056640625,-8.9111328125,135.68115234375,[0. 0. 0. 0. 0. 0. 0. 0. 0.],0.39208984375,-0.43310546875,1.154296875,[0. 0. 0. 0. 0. 0. 0. 0. 0.]
9.560496807098389,-0.051774170249700546,0.02451704628765583,-0.8920940160751343,0.4482037127017975,[0. 0. 0. 0. 0. 0. 0. 0. 0.],14.2822265625,-24.35302734375,127.13623046875,[0. 0. 0. 0. 0. 0. 0. 0. 0.],0.64208984375,-0.56201171875,1.47021484375,[0. 0. 0. 0. 0. 0. 0. 0. 0.]
9.58031964302063,-0.051837604492902756,0.02072320133447647,-0.8817503452301025,0.4684012234210968,[0. 0. 0. 0. 0. 0. 0. 0. 0.],21.78955078125,-4.57763671875,133.544921875,[0. 0. 0. 0. 0. 0. 0. 0. 0.],0.71337890625,-0.3505859375,1.10205078125,[0. 0. 0. 0. 0. 0. 0. 0. 0.]
9.596137046813965,-0.049629874527454376,0.02201949991285801,-0.8698791265487671,0.49026769399642944,[0. 0. 0. 0. 0. 0. 0. 0. 0.],3.35693359375,17.76123046875,149.169921875,[0. 0. 0. 0. 0. 0. 0. 0. 0.],0.27880859375,-0.240234375,0.60400390625,[0. 0. 0. 0. 0. 0. 0. 0. 0.]
9.620187759399414,-0.05285670608282089,0.022642716765403748,-0.856198787689209,0.5134367346763611,[0. 0. 0. 0. 0. 0. 0. 0. 0.],3.0517578125,-33.63037109375,158.8134765625,[0. 0. 0. 0. 0. 0. 0. 0. 0.],0.03515625,-0.36083984375,0.67236328125,[0. 0. 0. 0. 0. 0. 0. 0. 0.]
9.641204833984375,-0.05579916015267372,0.024387693032622337,-0.8406699895858765,0.5381130576133728,[0. 0. 0. 0. 0. 0. 0. 0. 0.],-11.77978515625,8.7890625,172.05810546875,[0. 0. 0. 0. 0. 0. 0. 0. 0.],0.47509765625,-0.3642578125,0.77001953125,[0. 0. 0. 0. 0. 0. 0. 0. 0.]
9.661117553710938,-0.05792348459362984,0.024621635675430298,-0.8243511915206909,0.5625688433647156,[0. 0. 0. 0. 0. 0. 0. 0. 0.],13.24462890625,-20.99609375,170.47119140625,[0. 0. 0. 0. 0. 0. 0. 0. 0.],0.58447265625,-0.552734375,1.2421875,[0. 0. 0. 0. 0. 0. 0. 0. 0.]
9.67543339729309,-0.05960991606116295,0.021995972841978073,-0.8078556060791016,0.5859454870223999,[0. 0. 0. 0. 0. 0. 0. 0. 0.],24.0478515625,-16.4794921875,163.39111328125,[0. 0. 0. 0. 0. 0. 0. 0. 0.],0.76953125,-0.4951171875,1.18798828125,[0. 0. 0. 0. 0. 0. 0. 0. 0.]
9.700889587402344,-0.05777369439601898,0.02197892591357231,-0.7911890149116516,0.6084398031234741,[0. 0. 0. 0. 0. 0. 0. 0. 0.],26.3671875,-12.8173828125,160.2783203125,[0. 0. 0. 0. 0. 0. 0. 0. 0.],0.69873046875,-0.41455078125,1.0234375,[0. 0. 0. 0. 0. 0. 0. 0. 0.]
9.720142602920532,-0.0593840666115284,0.019667616114020348,-0.7728506922721863,0.6314970850944519,[0. 0. 0. 0. 0. 0. 0. 0. 0.],2.86865234375,-8.544921875,178.1005859375,[0. 0. 0. 0. 0. 0. 0. 0. 0.],0.25390625,-0.263671875,0.671875,[0. 0. 0. 0. 0. 0. 0. 0. 0.]
9.740567922592163,-0.06198902800679207,0.019102582708001137,-0.7527737617492676,0.6550756692886353,[0. 0. 0. 0. 0. 0. 0. 0. 0.],21.1181640625,-32.53173828125,178.64990234375,[0. 0. 0. 0. 0. 0. 0. 0. 0.],0.45947265625,-0.38623046875,0.8935546875,[0. 0. 0. 0. 0. 0. 0. 0. 0.]
9.76043963432312,-0.06173749268054962,0.016275985166430473,-0.7334824204444885,0.6767030954360962,[0. 0. 0. 0. 0. 0. 0. 0. 0.],29.23583984375,0.91552734375,159.7900390625,[0. 0. 0. 0. 0. 0. 0. 0. 0.],1.08447265625,-0.2763671875,1.208984375,[0. 0. 0. 0. 0. 0. 0. 0. 0.]
9.780680894851685,-0.060908716171979904,0.012681794352829456,-0.7150165438652039,0.6963337659835815,[0. 0. 0. 0. 0. 0. 0. 0. 0.],21.30126953125,-48.52294921875,155.1513671875,[0. 0. 0. 0. 0. 0. 0. 0. 0.],0.70556640625,-0.193359375,0.81591796875,[0. 0. 0. 0. 0. 0. 0. 0. 0.]
9.80051326751709,-0.0633506178855896,0.008546960540115833,-0.6959916353225708,0.7151988744735718,[0. 0. 0. 0. 0. 0. 0. 0. 0.],13.85498046875,0.06103515625,149.35302734375,[0. 0. 0. 0. 0. 0. 0. 0. 0.],0.98486328125,-0.06298828125,0.97314453125,[0. 0. 0. 0. 0. 0. 0. 0. 0.]
9.820473909378052,-0.062360793352127075,0.011520948261022568,-0.677110493183136,0.7331437468528748,[0. 0. 0. 0. 0. 0. 0. 0. 0.],-4.2724609375,0.732421875,140.80810546875,[0. 0. 0. 0. 0. 0. 0. 0. 0.],0.724609375,-0.08837890625,0.6572265625,[0. 0. 0. 0. 0. 0. 0. 0. 0.]
9.840869188308716,-0.0663549154996872,0.011200662702322006,-0.6541776657104492,0.7533413767814636,[0. 0. 0. 0. 0. 0. 0. 0. 0.],-13.427734375,-6.8359375,129.5166015625,[0. 0. 0. 0. 0. 0. 0. 0. 0.],0.74658203125,-0.21923828125,0.79638671875,[0. 0. 0. 0. 0. 0. 0. 0. 0.]
9.86283540725708,-0.06562133878469467,0.011579645797610283,-0.6403104662895203,0.7652204036712646,[0. 0. 0. 0. 0. 0. 0. 0. 0.],9.70458984375,16.17431640625,95.703125,[0. 0. 0. 0. 0. 0. 0. 0. 0.],1.19677734375,-0.17236328125,1.29541015625,[0. 0. 0. 0. 0. 0. 0. 0. 0.]
9.88040041923523,-0.062289632856845856,0.012474642135202885,-0.6326057314872742,0.7718642354011536,[0. 0. 0. 0. 0. 0. 0. 0. 0.],24.658203125,19.8974609375,68.17626953125,[0. 0. 0. 0. 0. 0. 0. 0. 0.],0.9814453125,-0.13427734375,1.19091796875,[0. 0. 0. 0. 0. 0. 0. 0. 0.]
9.900438785552979,-0.060522083193063736,0.011255824007093906,-0.6259647607803345,0.7774178385734558,[0. 0. 0. 0. 0. 0. 0. 0. 0.],2.86865234375,16.41845703125,37.29248046875,[0. 0. 0. 0. 0. 0. 0. 0. 0.],0.65576171875,-0.00146484375,0.85888671875,[0. 0. 0. 0. 0. 0. 0. 0. 0.]
9.920487403869629,-0.05708881467580795,0.014222259633243084,-0.6221494674682617,0.780684769153595,[0. 0. 0. 0. 0. 0. 0. 0. 0.],3.72314453125,10.68115234375,17.39501953125,[0. 0. 0. 0. 0. 0. 0. 0. 0.],0.3046875,-0.00439453125,0.927734375,[0. 0. 0. 0. 0. 0. 0. 0. 0.]
9.940216302871704,-0.0563131719827652,0.014967842027544975,-0.620826780796051,0.7817793488502502,[0. 0. 0. 0. 0. 0. 0. 0. 0.],0.8544921875,9.46044921875,12.5732421875,[0. 0. 0. 0. 0. 0. 0. 0. 0.],0.109375,0.0341796875,0.91162109375,[0. 0. 0. 0. 0. 0. 0. 0. 0.]
9.960295915603638,-0.05415620654821396,0.014024396426975727,-0.6195051074028015,0.782996654510498,[0. 0. 0. 0. 0. 0. 0. 0. 0.],-0.79345703125,12.3291015625,11.90185546875,[0. 0. 0. 0. 0. 0. 0. 0. 0.],0.08642578125,0.0625,1.06298828125,[0. 0. 0. 0. 0. 0. 0. 0. 0.]
9.980319023132324,-0.050789665430784225,0.015025078319013119,-0.6183183193206787,0.7841410040855408,[0. 0. 0. 0. 0. 0. 0. 0. 0.],12.39013671875,13.48876953125,12.39013671875,[0. 0. 0. 0. 0. 0. 0. 0. 0.],0.08447265625,0.08837890625,1.1005859375,[0. 0. 0. 0. 0. 0. 0. 0. 0.]
9.995417356491089,-0.04853110760450363,0.012832842767238617,-0.6173681616783142,0.785071074962616,[0. 0. 0. 0. 0. 0. 0. 0. 0.],8.9111328125,-1.220703125,5.79833984375,[0. 0. 0. 0. 0. 0. 0. 0. 0.],0.03466796875,0.1123046875,0.96240234375,[0. 0. 0. 0. 0. 0. 0. 0. 0.]
10.020264148712158,-0.04512931779026985,0.008448551408946514,-0.616826057434082,0.7857592701911926,[0. 0. 0. 0. 0. 0. 0. 0. 0.],36.43798828125,5.18798828125,2.99072265625,[0. 0. 0. 0. 0. 0. 0. 0. 0.],0.107421875,0.0625,0.98193359375,[0. 0. 0. 0. 0. 0. 0. 0. 0.]
10.040363550186157,-0.036569979041814804,0.009398052468895912,-0.6163877844810486,0.7865369915962219,[0. 0. 0. 0. 0. 0. 0. 0. 0.],26.4892578125,22.94921875,11.1083984375,[0. 0. 0. 0. 0. 0. 0. 0. 0.],0.142578125,0.1640625,0.89501953125,[0. 0. 0. 0. 0. 0. 0. 0. 0.]
10.06023645401001,-0.03381010890007019,0.009242876432836056,-0.6154072284698486,0.787429690361023,[0. 0. 0. 0. 0. 0. 0. 0. 0.],-0.91552734375,1.3427734375,10.80322265625,[0. 0. 0. 0. 0. 0. 0. 0. 0.],-0.1162109375,0.435546875,0.71728515625,[0. 0. 0. 0. 0. 0. 0. 0. 0.]
10.080459117889404,-0.032825034111738205,0.008686644025146961,-0.6144826412200928,0.7881994247436523,[0. 0. 0. 0. 0. 0. 0. 0. 0.],8.4228515625,-6.28662109375,7.38525390625,[0. 0. 0. 0. 0. 0. 0. 0. 0.],-0.0439453125,0.36376953125,1.18017578125,[0. 0. 0. 0. 0. 0. 0. 0. 0.]
10.09614634513855,-0.030616266652941704,0.007453531958162785,-0.6136574745178223,0.7889434099197388,[0. 0. 0. 0. 0. 0. 0. 0. 0.],11.3525390625,3.5400390625,3.7841796875,[0. 0. 0. 0. 0. 0. 0. 0. 0.],0.06494140625,0.43212890625,1.29248046875,[0. 0. 0. 0. 0. 0. 0. 0. 0.]
10.120368957519531,-0.02765975147485733,0.0057239532470703125,-0.6130505204200745,0.7895386815071106,[0. 0. 0. 0. 0. 0. 0. 0. 0.],12.26806640625,-4.33349609375,3.96728515625,[0. 0. 0. 0. 0. 0. 0. 0. 0.],0.00244140625,0.443359375,1.00146484375,[0. 0. 0. 0. 0. 0. 0. 0. 0.]
10.140180826187134,-0.02741127461194992,0.0036450771149247885,-0.6117746829986572,0.79054856300354,[0. 0. 0. 0. 0. 0. 0. 0. 0.],-8.11767578125,-17.15087890625,14.2822265625,[0. 0. 0. 0. 0. 0. 0. 0. 0.],-0.20263671875,0.345703125,0.64794921875,[0. 0. 0. 0. 0. 0. 0. 0. 0.]
10.160649538040161,-0.028198909014463425,0.006051959935575724,-0.6096991300582886,0.7921081781387329,[0. 0. 0. 0. 0. 0. 0. 0. 0.],-28.13720703125,28.62548828125,3.2958984375,[0. 0. 0. 0. 0. 0. 0. 0. 0.],0.22216796875,0.3759765625,0.66650390625,[0. 0. 0. 0. 0. 0. 0. 0. 0.]
10.182809114456177,-0.02849722094833851,0.006311491597443819,-0.6052272319793701,0.79551762342453,[0. 0. 0. 0. 0. 0. 0. 0. 0.],5.859375,-12.51220703125,29.11376953125,[0. 0. 0. 0. 0. 0. 0. 0. 0.],-0.07958984375,0.32470703125,1.400390625,[0. 0. 0. 0. 0. 0. 0. 0. 0.]
10.200334310531616,-0.027062667533755302,0.0028926038648933172,-0.6013227701187134,0.7985426187515259,[0. 0. 0. 0. 0. 0. 0. 0. 0.],20.5078125,-12.26806640625,48.40087890625,[0. 0. 0. 0. 0. 0. 0. 0. 0.],0.1533203125,0.328125,1.447265625,[0. 0. 0. 0. 0. 0. 0. 0. 0.]
10.22049617767334,-0.026241380721330643,-0.000659906305372715,-0.5931655168533325,0.8046525716781616,[0. 0. 0. 0. 0. 0. 0. 0. 0.],6.8359375,-15.13671875,66.71142578125,[0. 0. 0. 0. 0. 0. 0. 0. 0.],0.17333984375,0.388671875,0.9228515625,[0. 0. 0. 0. 0. 0. 0. 0. 0.]
10.240219593048096,-0.027312543243169785,-0.002566033508628607,-0.5820621252059937,0.8126815557479858,[0. 0. 0. 0. 0. 0. 0. 0. 0.],-8.4228515625,-10.19287109375,83.0078125,[0. 0. 0. 0. 0. 0. 0. 0. 0.],0.2275390625,0.40478515625,0.8212890625,[0. 0. 0. 0. 0. 0. 0. 0. 0.]
10.26050591468811,-0.028166774660348892,-0.00467725982889533,-0.5690965056419373,0.821774959564209,[0. 0. 0. 0. 0. 0. 0. 0. 0.],-0.91552734375,-9.765625,94.54345703125,[0. 0. 0. 0. 0. 0. 0. 0. 0.],0.283203125,0.3046875,1.02783203125,[0. 0. 0. 0. 0. 0. 0. 0. 0.]
10.277567863464355,-0.026812978088855743,-0.0078117395751178265,-0.5547119975090027,0.8315735459327698,[0. 0. 0. 0. 0. 0. 0. 0. 0.],18.85986328125,-15.68603515625,104.30908203125,[0. 0. 0. 0. 0. 0. 0. 0. 0.],0.26806640625,0.28857421875,1.03466796875,[0. 0. 0. 0. 0. 0. 0. 0. 0.]
10.300214529037476,-0.025731639936566353,-0.01140412874519825,-0.5387641191482544,0.841986358165741,[0. 0. 0. 0. 0. 0. 0. 0. 0.],9.09423828125,-13.5498046875,109.06982421875,[0. 0. 0. 0. 0. 0. 0. 0. 0.],0.41357421875,0.4130859375,0.990234375,[0. 0. 0. 0. 0. 0. 0. 0. 0.]
10.320380687713623,-0.0259769968688488,-0.0133660351857543,-0.5225691199302673,0.8520962595939636,[0. 0. 0. 0. 0. 0. 0. 0. 0.],0.8544921875,3.2958984375,108.0322265625,[0. 0. 0. 0. 0. 0. 0. 0. 0.],0.5712890625,0.24755859375,1.00048828125,[0. 0. 0. 0. 0. 0. 0. 0. 0.]
10.340293884277344,-0.02626158855855465,-0.013690195046365261,-0.5067588686943054,0.8615790605545044,[0. 0. 0. 0. 0. 0. 0. 0. 0.],-2.62451171875,-1.28173828125,103.57666015625,[0. 0. 0. 0. 0. 0. 0. 0. 0.],0.46826171875,0.16943359375,1.01611328125,[0. 0. 0. 0. 0. 0. 0. 0. 0.]
10.35651683807373,-0.026296572759747505,-0.015346791595220566,-0.4912722408771515,0.8704738020896912,[0. 0. 0. 0. 0. 0. 0. 0. 0.],4.2724609375,-1.708984375,102.23388671875,[0. 0. 0. 0. 0. 0. 0. 0. 0.],0.3720703125,0.1181640625,0.98291015625,[0. 0. 0. 0. 0. 0. 0. 0. 0.]
10.380858659744263,-0.025477375835180283,-0.015665527433156967,-0.47589969635009766,0.8789910078048706,[0. 0. 0. 0. 0. 0. 0. 0. 0.],9.46044921875,8.97216796875,98.876953125,[0. 0. 0. 0. 0. 0. 0. 0. 0.],0.40283203125,0.1005859375,1.00048828125,[0. 0. 0. 0. 0. 0. 0. 0. 0.]
10.401596069335938,-0.025097958743572235,-0.016542524099349976,-0.4603390395641327,0.8872342109680176,[0. 0. 0. 0. 0. 0. 0. 0. 0.],-4.638671875,0.8544921875,102.84423828125,[0. 0. 0. 0. 0. 0. 0. 0. 0.],0.22607421875,0.015625,0.927734375,[0. 0. 0. 0. 0. 0. 0. 0. 0.]
10.420709371566772,-0.027566511183977127,-0.018026726320385933,-0.443698525428772,0.895570695400238,[0. 0. 0. 0. 0. 0. 0. 0. 0.],-9.3994140625,-4.69970703125,109.619140625,[0. 0. 0. 0. 0. 0. 0. 0. 0.],0.13623046875,-0.0634765625,0.90478515625,[0. 0. 0. 0. 0. 0. 0. 0. 0.]
10.440902709960938,-0.030991151928901672,-0.019697194918990135,-0.4262608587741852,0.9038547277450562,[0. 0. 0. 0. 0. 0. 0. 0. 0.],-3.35693359375,-10.3759765625,110.9619140625,[0. 0. 0. 0. 0. 0. 0. 0. 0.],0.2470703125,-0.14599609375,0.9619140625,[0. 0. 0. 0. 0. 0. 0. 0. 0.]
10.46220064163208,-0.03261031582951546,-0.022039512172341347,-0.4087827801704407,0.9117825627326965,[0. 0. 0. 0. 0. 0. 0. 0. 0.],5.79833984375,-1.5869140625,110.2294921875,[0. 0. 0. 0. 0. 0. 0. 0. 0.],0.43798828125,-0.02880859375,1.00927734375,[0. 0. 0. 0. 0. 0. 0. 0. 0.]
10.480428457260132,-0.03168349340558052,-0.022603562101721764,-0.3916836977005005,0.9192764163017273,[0. 0. 0. 0. 0. 0. 0. 0. 0.],9.94873046875,3.72314453125,107.7880859375,[0. 0. 0. 0. 0. 0. 0. 0. 0.],0.47802734375,0.115234375,1.0419921875,[0. 0. 0. 0. 0. 0. 0. 0. 0.]
10.500689506530762,-0.029601259157061577,-0.02433638460934162,-0.3743130564689636,0.9265102744102478,[0. 0. 0. 0. 0. 0. 0. 0. 0.],11.23046875,-4.21142578125,107.666015625,[0. 0. 0. 0. 0. 0. 0. 0. 0.],0.3515625,0.154296875,1.08544921875,[0. 0. 0. 0. 0. 0. 0. 0. 0.]
10.520303726196289,-0.029140645638108253,-0.02648749016225338,-0.3568522036075592,0.9333304762840271,[0. 0. 0. 0. 0. 0. 0. 0. 0.],3.7841796875,-9.6435546875,106.14013671875,[0. 0. 0. 0. 0. 0. 0. 0. 0.],0.3447265625,0.185546875,1.03173828125,[0. 0. 0. 0. 0. 0. 0. 0. 0.]
10.540301322937012,-0.029156271368265152,-0.02703044004738331,-0.3392001986503601,0.9398736357688904,[0. 0. 0. 0. 0. 0. 0. 0. 0.],1.64794921875,8.30078125,108.70361328125,[0. 0. 0. 0. 0. 0. 0. 0. 0.],0.37744140625,0.16943359375,0.94287109375,[0. 0. 0. 0. 0. 0. 0. 0. 0.]
10.560305833816528,-0.02695675566792488,-0.02730710804462433,-0.3220175504684448,0.9459558129310608,[0. 0. 0. 0. 0. 0. 0. 0. 0.],11.90185546875,4.69970703125,103.1494140625,[0. 0. 0. 0. 0. 0. 0. 0. 0.],0.30517578125,0.2294921875,1.01318359375,[0. 0. 0. 0. 0. 0. 0. 0. 0.]
10.580298662185669,-0.025831088423728943,-0.02725381962954998,-0.3056427836418152,0.9514055848121643,[0. 0. 0. 0. 0. 0. 0. 0. 0.],-0.54931640625,2.9296875,96.00830078125,[0. 0. 0. 0. 0. 0. 0. 0. 0.],0.20458984375,0.32080078125,0.84033203125,[0. 0. 0. 0. 0. 0. 0. 0. 0.]
10.600132942199707,-0.025798315182328224,-0.025836139917373657,-0.2911160886287689,0.9559907913208008,[0. 0. 0. 0. 0. 0. 0. 0. 0.],-8.30078125,10.43701171875,82.09228515625,[0. 0. 0. 0. 0. 0. 0. 0. 0.],0.220703125,0.31689453125,0.876953125,[0. 0. 0. 0. 0. 0. 0. 0. 0.]
10.62270712852478,-0.02451823465526104,-0.025774920359253883,-0.27697044610977173,0.9602198004722595,[0. 0. 0. 0. 0. 0. 0. 0. 0.],2.25830078125,1.28173828125,59.4482421875,[0. 0. 0. 0. 0. 0. 0. 0. 0.],0.111328125,0.306640625,1.05517578125,[0. 0. 0. 0. 0. 0. 0. 0. 0.]
10.6416175365448,-0.02287047542631626,-0.024816764518618584,-0.2706967890262604,0.9620729088783264,[0. 0. 0. 0. 0. 0. 0. 0. 0.],1.8310546875,15.31982421875,44.98291015625,[0. 0. 0. 0. 0. 0. 0. 0. 0.],0.1435546875,0.34912109375,1.0849609375,[0. 0. 0. 0. 0. 0. 0. 0. 0.]
10.660327672958374,-0.021593477576971054,-0.023674704134464264,-0.2647826373577118,0.963775634765625,[0. 0. 0. 0. 0. 0. 0. 0. 0.],-4.69970703125,1.8310546875,30.6396484375,[0. 0. 0. 0. 0. 0. 0. 0. 0.],0.0537109375,0.38330078125,0.9658203125,[0. 0. 0. 0. 0. 0. 0. 0. 0.]
10.680405855178833,-0.020313184708356857,-0.023010656237602234,-0.2627826929092407,0.9643667340278625,[0. 0. 0. 0. 0. 0. 0. 0. 0.],1.46484375,14.0380859375,-0.244140625,[0. 0. 0. 0. 0. 0. 0. 0. 0.],0.2216796875,0.33837890625,1.1669921875,[0. 0. 0. 0. 0. 0. 0. 0. 0.]
10.700401067733765,-0.018693702295422554,-0.02124306559562683,-0.26430749893188477,0.9640232920646667,[0. 0. 0. 0. 0. 0. 0. 0. 0.],-1.89208984375,13.3056640625,-13.916015625,[0. 0. 0. 0. 0. 0. 0. 0. 0.],0.0517578125,0.3125,0.96484375,[0. 0. 0. 0. 0. 0. 0. 0. 0.]
10.72226858139038,-0.016326796263456345,-0.018720872700214386,-0.26836755871772766,0.9629963636398315,[0. 0. 0. 0. 0. 0. 0. 0. 0.],2.13623046875,12.8173828125,-28.74755859375,[0. 0. 0. 0. 0. 0. 0. 0. 0.],-0.0322265625,0.3056640625,0.931640625,[0. 0. 0. 0. 0. 0. 0. 0. 0.]
10.740326404571533,-0.01430498342961073,-0.01741616800427437,-0.2745697796344757,0.9613031148910522,[0. 0. 0. 0. 0. 0. 0. 0. 0.],0.91552734375,7.38525390625,-41.32080078125,[0. 0. 0. 0. 0. 0. 0. 0. 0.],-0.111328125,0.33935546875,1.048828125,[0. 0. 0. 0. 0. 0. 0. 0. 0.]
10.760404109954834,-0.012326647527515888,-0.01595299504697323,-0.28276339173316956,0.9589778780937195,[0. 0. 0. 0. 0. 0. 0. 0. 0.],1.46484375,8.544921875,-52.24609375,[0. 0. 0. 0. 0. 0. 0. 0. 0.],-0.1376953125,0.31494140625,1.08544921875,[0. 0. 0. 0. 0. 0. 0. 0. 0.]
10.780227422714233,-0.009315701201558113,-0.01488450262695551,-0.2921837568283081,0.9562010765075684,[0. 0. 0. 0. 0. 0. 0. 0. 0.],7.38525390625,5.9814453125,-58.53271484375,[0. 0. 0. 0. 0. 0. 0. 0. 0.],-0.197265625,0.25634765625,1.0107421875,[0. 0. 0. 0. 0. 0. 0. 0. 0.]
10.800284385681152,-0.0072203828021883965,-0.014176953583955765,-0.302478551864624,0.9530234932899475,[0. 0. 0. 0. 0. 0. 0. 0. 0.],-2.25830078125,3.5400390625,-63.53759765625,[0. 0. 0. 0. 0. 0. 0. 0. 0.],-0.1943359375,0.30712890625,0.9111328125,[0. 0. 0. 0. 0. 0. 0. 0. 0.]
10.820534229278564,-0.006050716619938612,-0.012747084721922874,-0.313378244638443,0.9495235681533813,[0. 0. 0. 0. 0. 0. 0. 0. 0.],-4.5166015625,6.16455078125,-66.46728515625,[0. 0. 0. 0. 0. 0. 0. 0. 0.],-0.11572265625,0.2509765625,1.025390625,[0. 0. 0. 0. 0. 0. 0. 0. 0.]
10.842755317687988,-0.004005322232842445,-0.011395120061933994,-0.3244072496891022,0.9458404779434204,[0. 0. 0. 0. 0. 0. 0. 0. 0.],3.72314453125,2.62451171875,-65.85693359375,[0. 0. 0. 0. 0. 0. 0. 0. 0.],-0.1005859375,0.1552734375,1.099609375,[0. 0. 0. 0. 0. 0. 0. 0. 0.]
